Jaz Data File
++++++++++++++++++++++++++++++++++++
Date: Fri Jun 04 16:09:35 2021
User: jaz
Dark Spectrum Present: Yes
Reference Spectrum Present: Yes
Processed Spectrum Present: Yes
Spectrometers: JAZA3586
Integration Time (usec): 33500 (JAZA3586)
Spectra Averaged: 10 (JAZA3586)
Boxcar Smoothing: 1 (JAZA3586)
Correct for Electrical Dark: No (JAZA3586)
Strobe/Lamp Enabled: Yes (JAZA3586)
Correct for Detector Non-linearity: No (JAZA3586)
Correct for Stray Light: No (JAZA3586)
Number of Pixels in Processed Spectrum: 2048
>>>>>Begin Processed Spectral Data<<<<<
W	D	R	S	P
191.335022	0.000000	0.000000	0.000000	0.000000
191.713211	343.427155	341.792572	338.894684	277.286133
192.091385	684.030823	687.671692	683.882263	-4.080333
192.469528	1030.727417	1035.779907	1025.972046	-94.119354
192.847641	1039.866577	1050.417603	1036.225708	-34.507256
193.225739	1060.745605	1062.231689	1039.123657	-1454.961426
193.603790	1066.318359	1074.194458	1048.634399	-224.526901
193.981842	1072.485474	1075.606201	1057.179077	-490.475250
194.359863	1070.479370	1071.445313	1070.256470	-23.075951
194.737854	1075.234619	1068.770264	1076.795044	-24.138908
195.115829	1072.708374	1068.621704	1069.736206	72.728355
195.493774	1072.931274	1069.661987	1073.228516	-9.091928
195.871704	1075.457642	1070.850952	1072.485474	64.518524
196.249603	1074.120117	1066.764160	1077.017944	-39.394291
196.627457	1074.788940	1071.370972	1068.918945	171.739288
197.005310	1076.497803	1067.953003	1065.575195	127.827538
197.383133	1086.826050	1072.559814	1061.860229	174.999359
197.760910	1090.986816	1074.343140	1064.535156	158.929184
198.138687	1086.008545	1084.745483	1067.209961	1488.334839
198.516449	1084.745239	1086.751587	1073.748657	-548.089539
198.894180	1080.955933	1086.900269	1063.494751	-293.744873
199.271866	1083.779419	1085.191284	1060.151123	-1673.551758
199.649536	1076.051880	1079.024048	1057.327759	-629.981934
200.027191	1073.971558	1076.646484	1066.764160	-269.442810
200.404816	1073.897339	1070.776489	1070.850952	97.614021
200.782410	1070.776489	1086.751465	1070.776489	0.000000
201.159988	1066.541138	1100.126099	1075.531860	26.770084
201.537537	1067.729980	1109.636841	1081.550415	32.978931
201.915070	1074.491577	1104.138306	1083.630859	30.827288
202.292557	1071.668213	1100.126099	1080.212891	30.025694
202.670029	1067.953003	1100.200317	1078.058228	31.336639
203.047485	1059.631226	1104.584229	1080.510132	46.446075
203.424911	1058.665161	1102.801025	1075.903442	39.057308
203.802292	1056.733276	1100.869141	1072.188354	35.017052
204.179688	1056.881836	1098.565674	1080.138672	55.793415
204.557037	1057.550659	1103.766846	1086.751587	63.183334
204.934357	1058.145020	1107.184814	1085.042603	54.848480
205.311661	1058.665161	1103.692505	1076.943604	40.594093
205.688934	1055.247192	1099.085815	1070.330688	34.406864
206.066177	1052.052246	1093.661743	1075.754761	56.964195
206.443390	1047.445435	1095.222046	1071.296631	49.922329
206.820587	1056.361816	1095.073486	1070.627930	36.852230
207.197769	1059.928345	1098.194336	1065.426758	14.368929
207.574921	1066.169800	1103.692505	1073.005493	18.217485
207.952042	1063.420532	1104.584351	1077.166504	33.393333
208.329147	1056.436035	1103.395386	1078.726929	47.468487
208.706223	1063.123413	1103.692627	1086.305786	57.142773
209.083267	1054.578613	1103.246826	1082.070557	56.488499
209.460297	1054.949951	1099.160156	1080.584473	57.983269
209.837280	1043.284424	1088.163330	1073.302856	66.887619
210.214264	1052.720947	1086.082886	1076.052002	69.933151
210.591217	1056.138916	1094.181885	1079.841431	62.304588
210.968124	1055.692993	1100.869263	1074.937378	42.598438
211.345016	1052.572388	1105.178711	1074.194458	41.101658
211.721893	1052.720947	1099.160278	1066.689819	30.079830
212.098724	1050.714844	1098.342896	1068.250244	36.817379
212.475555	1046.182373	1094.404785	1064.757935	38.520599
212.852356	1044.399048	1095.816528	1070.776489	51.300533
213.229126	1048.560059	1094.256226	1070.776489	48.617710
213.605865	1058.367920	1096.559570	1074.343140	41.829090
213.982590	1062.974731	1090.838257	1068.547363	19.999737
214.359283	1061.265747	1091.952759	1064.163574	9.443172
214.735931	1055.544434	1087.346069	1063.569214	25.233860
215.112579	1056.807617	1095.370728	1063.420532	17.148293
215.489197	1064.460815	1086.677246	1060.299927	-18.728880
215.865799	1063.940552	1086.603027	1056.807617	-31.474649
216.242355	1061.339966	1088.906372	1053.761230	-27.492649
216.618896	1057.624878	1097.674194	1061.191406	8.905341
216.995407	1060.522705	1098.045776	1063.866333	8.910859
217.371902	1057.476318	1099.234497	1067.953003	25.088940
217.748367	1058.739502	1094.627686	1064.906616	17.184248
218.124802	1056.287476	1087.940430	1066.318359	31.690197
218.501236	1058.590942	1084.448120	1077.240845	72.126595
218.877609	1050.863403	1099.160156	1077.612427	55.384724
219.253983	1054.504272	1108.225098	1079.172729	45.919727
219.630295	1051.011963	1108.225098	1072.485474	37.532486
220.006592	1052.943848	1099.754517	1073.897095	44.761692
220.382889	1046.405273	1098.342773	1074.714600	54.506523
220.759140	1047.371216	1098.565674	1074.491699	52.975430
221.135391	1049.228638	1093.810303	1078.949829	66.666847
221.511581	1057.550659	1094.330444	1076.720825	52.121475
221.887772	1063.866333	1092.175659	1078.206787	50.656288
222.263931	1068.547485	1092.547241	1068.473145	-0.309757
222.640060	1064.312134	1093.364624	1070.776489	22.250607
223.016159	1062.603149	1092.472900	1064.237915	5.472980
223.392212	1058.888062	1095.073364	1069.141846	28.336876
223.768265	1054.950073	1091.358398	1069.587769	40.204254
224.144302	1045.513550	1091.729858	1068.547485	49.839409
224.520294	1035.854248	1088.460571	1070.479370	65.819313
224.896286	1039.717896	1093.513184	1067.953003	52.486210
225.272217	1047.222412	1099.234497	1071.519653	46.714607
225.648148	1057.104614	1109.785400	1076.126343	36.107525
226.024048	1051.160645	1106.813354	1078.132568	48.464710
226.399902	1049.377319	1105.475830	1083.110840	60.132648
226.775772	1042.095703	1100.274780	1075.160278	56.832417
227.151581	1050.789063	1107.259155	1076.869263	46.184093
227.527374	1047.222534	1105.178711	1070.033447	39.358898
227.903137	1049.971802	1104.435669	1070.999390	38.608326
228.278870	1051.160522	1108.968140	1070.776489	33.933186
228.654572	1059.408203	1119.593384	1075.606079	26.913397
229.030273	1070.925171	1129.772827	1079.915771	15.277755
229.405930	1067.284302	1135.271362	1073.897339	9.726906
229.781555	1060.374146	1136.757324	1066.392578	7.879264
230.157181	1051.606323	1135.122681	1064.386475	15.302573
230.532761	1051.977783	1128.286743	1074.268677	29.211370
230.908325	1051.011841	1122.937012	1080.435913	40.909283
231.283859	1058.665161	1122.639771	1084.002441	39.605213
231.659332	1053.092407	1118.924683	1073.302734	30.699724
232.034821	1049.303101	1119.221802	1072.782715	33.581306
232.410263	1046.999634	1121.673828	1063.271851	21.790951
232.785690	1044.101807	1123.531494	1068.770264	31.056974
233.161087	1055.618774	1121.599487	1066.764160	16.891884
233.536469	1049.451660	1119.964966	1061.637329	17.281376
233.911804	1058.367920	1119.444702	1068.324585	16.301882
234.287140	1041.724243	1118.478882	1065.946777	31.558397
234.662430	1039.940918	1123.159912	1070.553589	36.785679
235.037704	1037.340332	1122.937012	1061.414429	28.125036
235.412933	1047.742798	1133.413696	1064.237915	19.254049
235.788162	1049.971680	1133.562378	1069.364746	23.200029
236.163345	1056.733276	1143.295898	1073.748657	19.656731
236.538513	1059.482544	1138.243286	1077.686646	23.113167
236.913635	1058.070679	1133.562378	1075.903442	23.622152
237.288742	1044.027466	1128.435425	1075.234741	36.971958
237.663834	1037.934814	1130.813110	1081.030273	46.399925
238.038879	1033.550903	1137.426147	1080.584473	45.278900
238.413910	1044.696411	1140.695435	1081.699097	38.544857
238.788910	1045.365112	1139.135010	1074.045898	30.586348
239.163879	1049.971680	1131.556030	1075.680542	31.512003
239.538834	1046.925293	1127.172241	1070.182129	28.981583
239.913757	1055.024292	1130.887329	1069.661987	19.294897
240.288651	1055.024414	1137.054565	1074.417358	23.641239
240.663528	1049.228638	1148.645874	1073.451294	24.364645
241.038361	1043.358765	1150.280396	1074.565918	29.186941
241.413177	1042.615845	1160.459839	1065.501099	19.419958
241.787979	1051.383545	1173.388550	1071.296509	16.321432
242.162735	1051.755005	1184.236816	1077.463867	19.405579
242.537476	1055.470093	1196.793945	1086.454346	21.924292
242.912170	1044.919067	1209.053833	1085.339722	24.626503
243.286865	1045.810791	1223.988647	1077.315063	17.681362
243.661514	1043.210205	1231.270386	1072.039673	15.329916
244.036148	1051.309204	1225.697754	1071.370972	11.504063
244.410751	1054.652710	1216.781372	1075.308960	12.740653
244.785339	1060.819946	1198.725830	1080.287231	14.116356
245.159882	1062.306030	1198.651489	1081.996216	14.441395
245.534378	1054.429932	1202.218018	1084.596802	20.412249
245.908890	1049.303101	1220.050659	1082.070435	19.190514
246.283356	1044.621948	1233.796753	1081.921875	19.717175
246.657791	1052.646606	1258.911011	1077.240845	11.923646
247.032196	1058.813721	1289.969604	1075.680542	7.296730
247.406586	1060.374146	1320.433716	1073.971558	5.228576
247.780960	1057.624878	1352.532349	1079.469849	7.407398
248.155289	1053.835571	1355.207275	1073.971558	6.681446
248.529602	1051.309204	1341.535522	1079.618530	9.754225
248.903870	1047.222534	1314.192261	1074.788940	10.325667
249.278122	1044.398926	1299.257324	1078.132446	13.236181
249.652344	1045.364868	1277.338135	1074.343018	12.492022
250.026550	1043.656128	1260.248413	1079.246948	16.432173
250.400711	1044.101929	1241.672729	1089.723633	23.091320
250.774857	1040.461060	1238.031860	1094.627563	27.416250
251.148987	1043.135864	1232.384888	1093.067383	26.384029
251.523071	1046.033691	1236.768799	1085.414185	20.646694
251.897125	1055.767334	1247.319824	1081.921997	13.654045
252.271164	1064.312134	1262.254639	1080.287231	8.070575
252.645187	1063.197632	1283.728149	1078.949829	7.142865
253.019165	1062.974731	1294.056152	1073.302856	4.469474
253.393112	1059.333862	1299.926147	1077.909546	7.720814
253.767044	1062.231689	1282.242065	1081.476074	8.747035
254.140930	1053.686890	1268.867554	1078.726929	11.636751
254.514801	1049.674561	1254.006958	1076.646484	13.200024
254.888657	1044.473267	1247.914185	1070.405151	12.746642
255.262466	1056.510376	1246.948242	1075.011841	9.715223
255.636276	1057.922119	1253.115356	1072.857056	7.651360
256.010010	1058.962280	1266.266968	1082.813599	11.505441
256.383759	1047.445435	1275.406250	1091.209839	19.198214
256.757446	1043.804565	1275.703369	1093.884644	21.595661
257.131134	1045.959351	1283.802368	1090.392456	18.681694
257.504791	1043.879028	1294.724976	1082.962158	15.580531
257.878418	1048.411499	1321.399536	1076.869385	10.424591
258.252014	1046.628052	1341.312744	1074.268677	9.379729
258.625580	1053.092407	1378.390015	1078.058105	7.674726
258.999115	1046.182251	1419.256348	1078.429688	8.643708
259.372650	1041.872681	1464.804077	1077.389526	8.397779
259.746124	1041.352661	1517.038696	1075.754883	7.232128
260.119598	1054.504272	1579.675781	1082.813599	5.390491
260.493042	1063.271973	1637.334595	1086.380005	4.025351
260.866425	1062.826050	1658.733887	1088.906372	4.376570
261.239838	1049.377319	1630.498901	1083.333740	5.843256
261.613159	1052.126465	1578.041016	1084.819824	6.216477
261.986511	1051.903442	1516.890015	1082.070557	6.487739
262.359802	1056.956177	1470.525024	1086.157227	7.060747
262.733063	1054.281250	1445.187866	1085.042603	7.869233
263.106293	1057.624878	1430.401733	1089.426636	8.531044
263.479523	1067.135742	1437.460449	1091.729858	6.641230
263.852692	1062.974731	1439.243652	1093.958862	8.234571
264.225861	1062.231812	1446.748413	1097.822632	9.255991
264.598969	1049.451782	1441.324219	1094.924927	11.604068
264.972076	1050.269165	1438.723633	1091.729858	10.673244
265.345154	1041.724243	1440.135376	1089.129272	11.898520
265.718201	1046.553833	1452.543945	1090.764038	10.889479
266.091217	1053.315308	1472.605591	1092.547119	9.356718
266.464203	1057.401978	1500.989258	1084.819702	6.180909
266.837158	1054.801392	1516.890015	1080.138672	5.483208
267.210114	1043.061523	1540.889771	1080.138672	7.447779
267.583038	1047.222534	1564.741089	1085.265503	7.351035
267.955902	1052.795166	1583.168091	1084.448242	5.968079
268.328766	1052.200806	1583.985352	1080.881714	5.393332
268.701569	1046.033691	1577.446777	1075.680542	5.578871
269.074371	1042.170044	1583.762329	1075.828979	6.214811
269.447144	1045.662231	1599.440430	1080.138672	6.225677
269.819885	1053.389648	1614.300903	1079.172729	4.596642
270.192596	1048.708496	1634.734009	1086.677368	6.479048
270.565277	1054.504150	1653.012573	1083.185181	4.792085
270.937927	1049.525879	1694.845093	1080.287231	4.766843
271.310577	1055.470093	1740.021118	1074.714478	2.811242
271.683136	1056.881836	1800.800781	1079.767090	3.076310
272.055725	1051.977905	1841.667358	1079.246948	3.453135
272.428284	1053.686890	1857.122192	1081.178833	3.421799
272.800812	1051.680786	1847.239868	1074.714600	2.895299
273.173279	1060.151245	1820.342407	1075.606201	2.033036
273.545776	1057.253418	1805.258911	1076.349243	2.552899
273.918152	1051.383423	1792.924683	1077.909546	3.577161
274.290558	1054.281250	1790.992798	1084.596802	4.114983
274.662964	1049.600220	1784.156860	1087.271606	5.128452
275.035278	1042.690186	1786.163086	1090.318115	6.406142
275.407593	1040.906860	1779.104492	1091.655640	6.874687
275.779907	1044.547607	1801.766724	1090.912598	6.123061
276.152161	1050.417480	1818.930664	1090.986816	5.278938
276.524384	1044.621948	1855.041870	1087.643188	5.308512
276.896606	1048.337036	1866.261353	1084.373901	4.405892
277.268799	1052.795288	1883.202515	1083.779419	3.731197
277.640930	1058.367920	1892.564453	1086.082886	3.322355
278.013031	1051.086304	1905.270142	1087.048828	4.210162
278.385162	1050.863403	1899.400391	1093.513184	5.026272
278.757233	1050.937622	1897.319946	1094.627686	5.161977
279.129272	1057.996460	1899.549194	1092.175781	4.061459
279.501282	1062.083130	1910.768921	1085.488525	2.757840
279.873230	1051.532104	1935.065796	1084.894043	3.775967
280.245178	1051.457764	1952.749878	1087.346069	3.981873
280.617126	1048.114136	2004.018555	1087.791870	4.150805
280.988983	1057.327759	2039.683960	1084.151001	2.730501
281.360870	1060.522705	2090.581299	1084.522461	2.329941
281.732697	1052.423706	2134.494141	1080.956055	2.636829
282.104492	1047.222534	2186.134521	1078.949829	2.785755
282.476288	1042.170044	2227.372803	1077.389526	2.971600
282.848053	1051.086304	2256.499268	1080.138672	2.410159
283.219757	1059.259644	2270.616943	1087.048828	2.294054
283.591461	1063.420532	2263.335205	1088.980713	2.130167
283.963135	1060.448364	2250.406494	1095.742188	2.965972
284.334747	1052.572388	2255.087402	1097.005371	3.695004
284.706360	1049.971802	2290.455566	1090.169556	3.240490
285.077942	1051.457886	2330.430420	1084.299683	2.567827
285.449524	1050.863281	2371.519775	1078.875488	2.121082
285.821014	1052.349487	2394.776611	1086.380127	2.535008
286.192535	1045.439331	2439.209717	1085.859985	2.900094
286.563995	1050.714844	2476.806885	1085.711304	2.454011
286.935425	1040.832520	2519.754150	1079.990112	2.647712
287.306824	1051.680786	2516.038818	1085.934204	2.339142
287.678223	1053.315430	2484.088623	1090.243774	2.581006
288.049561	1060.151367	2432.299561	1088.757813	2.084793
288.420898	1049.526001	2396.114258	1081.030396	2.339571
288.792145	1043.878906	2384.522705	1075.754883	2.377662
289.163452	1047.965576	2397.897461	1084.745483	2.724575
289.534668	1050.640503	2433.116943	1085.339844	2.509941
289.905914	1049.302979	2471.754150	1085.488525	2.543887
290.277039	1043.730347	2533.053955	1078.429810	2.329881
290.648193	1052.646606	2596.731445	1080.510254	1.804541
291.019318	1058.070801	2663.975586	1087.048828	1.804467
291.390381	1060.374146	2683.442871	1091.952881	1.945619
291.761475	1059.185425	2674.675049	1094.924927	2.212301
292.132507	1060.076904	2631.876709	1092.324341	2.051625
292.503510	1055.692993	2598.737549	1089.129272	2.166903
292.874481	1051.755005	2575.629639	1083.482300	2.082015
293.245422	1045.216431	2585.586182	1079.990112	2.257489
293.616364	1048.485840	2620.359619	1085.711304	2.368222
293.987213	1048.708618	2664.198486	1089.426392	2.520460
294.358093	1053.687012	2733.596924	1091.209839	2.233621
294.728943	1057.030640	2821.051514	1083.185059	1.482659
295.099731	1057.030518	2906.722412	1083.185059	1.413994
295.470490	1058.368042	2950.041016	1077.017944	0.985895
295.841248	1052.200806	2967.947998	1082.962280	1.605717
296.211975	1046.628052	3003.167236	1075.606323	1.481098
296.582642	1045.587891	3067.736328	1078.652588	1.635127
296.953308	1050.194702	3153.853516	1080.510132	1.441081
297.323883	1059.482544	3200.589844	1087.568970	1.311771
297.694519	1053.909790	3242.719482	1092.175781	1.748256
298.065063	1056.287476	3251.412842	1092.175659	1.634904
298.435608	1053.092529	3227.487061	1090.243774	1.708579
298.806122	1055.247192	3143.896484	1101.537842	2.216296
299.176575	1052.126587	3027.910156	1100.794800	2.463236
299.547028	1050.491821	2956.208252	1104.807251	2.850132
299.917450	1056.213257	2923.812256	1093.290405	1.985284
300.287872	1053.835449	2927.007080	1091.061157	1.987309
300.658234	1056.138794	2919.576904	1083.779419	1.483313
301.028564	1054.875610	2896.840088	1087.643188	1.778947
301.398865	1061.414307	2872.246094	1083.333618	1.210455
301.769135	1057.699219	2863.552734	1089.352173	1.752797
302.139374	1058.145020	2874.475342	1090.838135	1.799954
302.509583	1053.984009	2897.954834	1098.937134	2.437844
302.879791	1056.658813	2898.549072	1092.249878	1.932312
303.249939	1052.869507	2886.660889	1090.838257	2.070505
303.620087	1049.302979	2839.849854	1080.584473	1.747036
303.990173	1045.736450	2813.026611	1090.912598	2.556238
304.360260	1047.073853	2795.862549	1090.243774	2.468561
304.730286	1053.018066	2811.986328	1092.695801	2.255739
305.100281	1061.934448	2825.212158	1088.832031	1.525431
305.470276	1059.928223	2841.187500	1086.380005	1.485005
305.840179	1055.172852	2859.317383	1095.370728	2.228085
306.210144	1043.507324	2874.400391	1091.804199	2.637886
306.579987	1047.519653	2896.393799	1095.742188	2.608211
306.949890	1051.011963	2909.768799	1095.667969	2.402466
307.319702	1056.881836	2945.136719	1093.810425	1.955699
307.689484	1049.228638	2981.248047	1084.448120	1.822936
308.059265	1039.197754	3023.451904	1081.178833	2.115711
308.429016	1034.293945	3069.742920	1084.150879	2.449432
308.798737	1031.544800	3134.311523	1096.336548	3.081262
309.168396	1039.346558	3208.837158	1095.222046	2.575512
309.538055	1047.668335	3269.988281	1097.971313	2.263535
309.907684	1052.869629	3291.536133	1090.392456	1.676124
310.277313	1047.222534	3310.334717	1094.702026	2.097973
310.646851	1040.758179	3326.532471	1091.284058	2.210449
311.016388	1046.182251	3346.074219	1092.770142	2.025656
311.385895	1057.179077	3343.547852	1089.500854	1.413673
311.755371	1058.219360	3345.554443	1087.420288	1.276635
312.124817	1054.801392	3362.718018	1085.042603	1.310325
312.494232	1049.674561	3366.284424	1083.482178	1.459357
312.863617	1056.361816	3343.325195	1094.627563	1.673212
313.232971	1057.476318	3307.511475	1101.909302	1.974768
313.602295	1063.197632	3289.530029	1105.995972	1.922370
313.971619	1057.699219	3302.235596	1102.578003	1.999468
314.340820	1059.259521	3315.239014	1103.321167	1.953105
314.710083	1053.761230	3366.953369	1112.014526	2.518308
315.079285	1052.943848	3402.618896	1117.067261	2.729033
315.448486	1057.476318	3450.618408	1121.302368	2.667040
315.817596	1057.550537	3431.225342	1118.924683	2.585617
316.186707	1057.922119	3385.900391	1116.101196	2.499125
316.555786	1049.525879	3323.114990	1115.655396	2.908596
316.924866	1047.594116	3273.778076	1118.107422	3.167452
317.293884	1045.959351	3246.063232	1122.713989	3.488682
317.662872	1049.971680	3231.499756	1123.159912	3.354907
318.031830	1052.423706	3237.592529	1124.051636	3.277913
318.400757	1049.451660	3255.425049	1128.732666	3.593924
318.769684	1046.479614	3273.183594	1133.562378	3.910837
319.138550	1033.476563	3292.130859	1134.008057	4.450946
319.507416	1033.328003	3317.244873	1143.667358	4.831146
319.876190	1031.619019	3333.740234	1141.215454	4.760672
320.244995	1046.628052	3322.372070	1149.983276	4.541601
320.613770	1047.593994	3303.201904	1150.354736	4.555789
320.982483	1047.891235	3277.047607	1152.806763	4.706513
321.351166	1042.170044	3255.871094	1157.859375	5.226059
321.719818	1042.987427	3231.425537	1162.168945	5.445963
322.088440	1041.204102	3243.611084	1175.543457	6.099661
322.457062	1045.290649	3275.932617	1189.289307	6.455480
322.825623	1054.727173	3318.359375	1194.267578	6.164446
323.194183	1058.516602	3359.374756	1207.790649	6.487755
323.562653	1057.922241	3431.225342	1217.301392	6.715499
323.931183	1054.207031	3519.051025	1228.298218	7.062970
324.299591	1055.098633	3607.100342	1243.678955	7.389506
324.668060	1053.686890	3660.895264	1260.174194	7.919862
325.036407	1050.268921	3697.303467	1283.579468	8.814034
325.404755	1056.658936	3715.804688	1298.440063	9.092436
325.773102	1058.219360	3724.943604	1303.492554	9.197547
326.141388	1061.934448	3717.885010	1315.306641	9.539793
326.509674	1064.237915	3718.405273	1328.904175	9.971725
326.877899	1065.055176	3741.662109	1343.541870	10.404468
327.246124	1063.866333	3771.531982	1358.179565	10.869630
327.614288	1057.401978	3773.612305	1364.569458	11.308678
327.982422	1055.247192	3749.984131	1384.482544	12.217718
328.350525	1052.869507	3714.095947	1398.971680	13.005363
328.718628	1046.256714	3700.275635	1419.330566	14.056939
329.086700	1039.940796	3685.637939	1447.416992	15.401467
329.454712	1045.662109	3702.207275	1478.921509	16.309130
329.822693	1051.903687	3715.656250	1514.661011	17.372385
330.190674	1059.185181	3744.485596	1529.670288	17.520763
330.558563	1055.098633	3758.602783	1555.453125	18.507627
330.926483	1055.247192	3790.552979	1583.242310	19.302965
331.294312	1053.241089	3850.292725	1607.242188	19.806608
331.662231	1052.498047	3919.171143	1636.071655	20.357174
332.029999	1047.296875	3969.994385	1668.467651	21.253338
332.397766	1046.405151	4000.978516	1715.055542	22.631031
332.765503	1048.262817	4044.742920	1752.578491	23.504768
333.133240	1045.439331	4109.014160	1791.735718	24.360313
333.500916	1050.046021	4172.469238	1827.401001	24.895887
333.868561	1051.680786	4218.759766	1863.883789	25.645176
334.236176	1055.990356	4249.967285	1895.313843	26.278318
334.603790	1047.965698	4267.354004	1925.703613	27.264122
334.971344	1041.427002	4254.870605	1964.861328	28.736597
335.338867	1039.420776	4228.642090	1993.987915	29.931042
335.706360	1047.891235	4212.370605	2035.448730	31.207581
336.073853	1053.612549	4225.818848	2062.049072	31.789753
336.441284	1058.962402	4249.595703	2096.154053	32.507393
336.808655	1060.597046	4227.304688	2115.918701	33.325516
337.176086	1055.395874	4183.168945	2133.677002	34.474407
337.543396	1055.693115	4085.312256	2135.311523	35.635448
337.910706	1047.371216	4031.368408	2132.785156	36.374496
338.277954	1054.429810	4028.322266	2151.212158	36.880363
338.645264	1052.795288	4123.726563	2195.125244	37.198162
339.012421	1056.733276	4265.050293	2264.672607	37.650249
339.379669	1058.442261	4393.519531	2343.582031	38.534035
339.746796	1052.869629	4501.778809	2420.188232	39.644958
340.113953	1052.572388	4582.174316	2484.757324	40.576385
340.481018	1047.668457	4634.780762	2532.979736	41.406879
340.848114	1049.971802	4648.749512	2562.180664	42.020065
341.215118	1050.640503	4657.591797	2608.694092	43.195862
341.582153	1044.696289	4672.154785	2648.297607	44.207294
341.949066	1049.748779	4693.702637	2690.055664	45.014481
342.316010	1056.287476	4712.204102	2727.949951	45.724854
342.682922	1055.692993	4735.163574	2762.575195	46.389339
343.049835	1055.395752	4786.135254	2819.268311	47.279434
343.416656	1047.222534	4839.855957	2868.382080	48.018341
343.783478	1051.086304	4922.258301	2931.762451	48.581573
344.150269	1045.885132	5045.080078	3028.578857	49.577324
344.516998	1045.142090	5197.847168	3140.850342	50.466099
344.883728	1050.120239	5315.244629	3242.868164	51.411114
345.250427	1048.337036	5387.318848	3306.099609	52.034389
345.617065	1045.067749	5409.609863	3343.994141	52.672794
345.983704	1046.628296	5419.343262	3355.287842	52.796940
346.350281	1050.417603	5385.238281	3364.278564	53.378468
346.716827	1056.807617	5332.854980	3362.569336	53.922737
347.083405	1048.708618	5279.580078	3380.773438	55.120201
347.449860	1054.578491	5226.527832	3379.436279	55.725941
347.816376	1053.686890	5162.924316	3376.686768	56.531170
348.182770	1053.389648	5102.070313	3384.340576	57.573097
348.549194	1045.439331	5085.872559	3399.720947	58.268055
348.915558	1040.981079	5108.906738	3428.476318	58.690723
349.281921	1043.730225	5137.215332	3453.442139	58.867001
349.648193	1038.529175	5187.667480	3499.212158	59.305885
350.014526	1037.934692	5235.964355	3551.669922	59.878929
350.380737	1037.340210	5299.195801	3616.313477	60.512920
350.746948	1044.473267	5341.548340	3673.006592	61.170288
351.113159	1050.343262	5375.504883	3713.130127	61.565025
351.479309	1043.581665	5428.631348	3751.693115	61.757824
351.845428	1044.844849	5460.804688	3799.469727	62.378849
352.211517	1036.597168	5516.902344	3866.044922	63.153015
352.577576	1044.324707	5548.480957	3916.645264	63.770447
352.943604	1040.460938	5617.656738	3964.570313	63.884296
353.309601	1051.160522	5669.297363	4015.244873	64.183556
353.675537	1048.782837	5788.924316	4098.761230	64.343613
354.041473	1052.943848	5907.511719	4204.939941	64.928459
354.407379	1048.337036	6034.123535	4326.053223	65.741203
354.773254	1044.324707	6142.308594	4429.110840	66.394600
355.139038	1045.810791	6229.168457	4525.629883	67.134460
355.504913	1039.494995	6354.591309	4605.728516	67.096306
355.870636	1045.216431	6474.589844	4691.102539	67.151138
356.236389	1040.535278	6633.300781	4789.999512	67.041328
356.602081	1051.011841	6777.076660	4919.657715	67.562035
356.967804	1045.513550	6918.029785	5035.123535	67.936974
357.333405	1045.959473	7061.507813	5152.596680	68.267044
357.699036	1041.501343	7222.596191	5266.725098	68.357208
358.064606	1052.349487	7391.114746	5405.076660	68.668373
358.430176	1055.098633	7517.354980	5493.942871	68.688766
358.795654	1052.869629	7606.889160	5564.232910	68.833534
359.161163	1052.720947	7622.492676	5591.502441	69.085831
359.526581	1047.148193	7620.932129	5613.125000	69.457352
359.892029	1049.377319	7653.700684	5645.520996	69.592957
360.257416	1052.126587	7768.423828	5743.674316	69.853188
360.622772	1058.813843	8016.074707	5924.453125	69.936134
360.988098	1063.197754	8306.821289	6139.708496	70.082474
361.353394	1050.863403	8624.390625	6381.042969	70.379089
361.718658	1045.587891	8893.441406	6589.834473	70.646660
362.083893	1046.999634	9083.878906	6767.417969	71.177109
362.449097	1047.594116	9219.778320	6877.162598	71.334274
362.814209	1056.881958	9200.311523	6891.949219	71.653687
363.179382	1052.498047	9028.746094	6768.011719	71.656670
363.544434	1059.854004	8644.750000	6516.645996	71.942871
363.909546	1054.207031	8207.702148	6228.054199	72.326141
364.274536	1049.154419	7819.544434	5984.861328	72.901367
364.639587	1038.380493	7569.218750	5814.484863	73.131569
365.004517	1040.758179	7414.892090	5719.377441	73.400078
365.369507	1044.770508	7336.799316	5662.685059	73.393089
365.734344	1052.572388	7290.806152	5624.046875	73.281555
366.099274	1050.120239	7247.487793	5596.927246	73.366745
366.464081	1055.470093	7217.617188	5566.313965	73.202469
366.828918	1057.327759	7202.311035	5564.902344	73.353729
367.193665	1051.680664	7203.722656	5559.329590	73.270775
367.558411	1052.795166	7213.902344	5583.701172	73.540451
367.923126	1047.296753	7214.720215	5591.947754	73.687996
368.287781	1050.194702	7208.701172	5593.136719	73.766945
368.652435	1045.365112	7154.980469	5554.202637	73.799042
369.017059	1045.365112	7117.902832	5543.279785	74.069771
369.381653	1050.863403	7083.203613	5522.178223	74.122391
369.746185	1049.005737	7068.045410	5537.484375	74.571342
370.110687	1053.612671	7066.411621	5537.410156	74.570885
370.475220	1049.674683	7119.761230	5580.357422	74.639511
370.839661	1063.346191	7208.404297	5626.499512	74.257286
371.204041	1065.278198	7286.941895	5681.631348	74.198051
371.568451	1065.575317	7338.434082	5718.114746	74.169365
371.932770	1053.241089	7394.458496	5761.433105	74.247444
372.297150	1043.581665	7429.528809	5783.501465	74.224228
372.661377	1044.101807	7468.463379	5807.798340	74.150505
373.025696	1040.535278	7489.119629	5832.095215	74.304062
373.389862	1045.513550	7504.946777	5823.400879	73.967590
373.754059	1042.987305	7506.134766	5807.648926	73.720451
374.118225	1045.142090	7538.531250	5792.937500	73.117371
374.482361	1039.569336	7593.960938	5838.113281	73.211128
374.846436	1043.433105	7690.851563	5896.886719	73.012611
375.210510	1041.501343	7793.092285	5975.945313	73.085648
375.574524	1050.714722	7893.326660	6081.975098	73.528358
375.938538	1047.519775	8028.631348	6195.435547	73.740639
376.302460	1052.423706	8172.704590	6291.880371	73.584969
376.666412	1053.984131	8362.176758	6388.548340	72.994308
377.030304	1056.064575	8528.465820	6490.268066	72.723656
377.394196	1056.361938	8682.347656	6608.855469	72.810173
377.757996	1051.755127	8814.235352	6696.310059	72.715866
378.121796	1050.789063	8876.797852	6747.429688	72.791138
378.485565	1049.971802	8872.710938	6732.867188	72.645851
378.849304	1050.937622	8790.606445	6654.774902	72.404099
379.212982	1057.847778	8651.065430	6566.652344	72.549011
379.576630	1060.968506	8475.636719	6443.606934	72.594467
379.940277	1060.671387	8339.291992	6355.482910	72.744713
380.303864	1051.234863	8228.134766	6245.366699	72.372917
380.667450	1048.857300	8213.422852	6222.109375	72.206085
381.030945	1049.600220	8183.626953	6210.295410	72.339165
381.394501	1050.343262	8220.407227	6251.459473	72.539330
381.757935	1043.878906	8238.090820	6257.031738	72.463150
382.121399	1046.405273	8253.621094	6282.220703	72.646851
382.484741	1051.755005	8308.752930	6339.433594	72.863167
382.848145	1060.225464	8350.289063	6408.833496	73.368469
383.211487	1057.401978	8441.160156	6470.281250	73.307915
383.574768	1057.030396	8541.395508	6533.513184	73.172310
383.938019	1053.315308	8636.874023	6589.982910	73.008835
384.301270	1047.148315	8743.201172	6664.210938	72.986282
384.664459	1044.919067	8793.355469	6736.507813	73.454674
385.027649	1042.318481	8872.561523	6802.562500	73.564049
385.390778	1054.429932	8927.769531	6892.171875	74.145691
385.753876	1047.817017	8970.046875	6934.970703	74.311829
386.116943	1056.361938	8997.167969	6990.028809	74.723732
386.479980	1047.222656	9010.393555	7003.328613	74.795654
386.842987	1048.411499	9073.329102	7053.705566	74.833092
387.205994	1038.752075	9134.627930	7096.207031	74.821487
387.568909	1042.244263	9190.727539	7160.627441	75.086159
387.931793	1041.872681	9237.612305	7228.911621	75.490921
388.294678	1049.303101	9277.140625	7299.499512	75.964020
388.657471	1053.612671	9316.223633	7320.601074	75.847549
389.020294	1062.826172	9300.842773	7315.028809	75.894516
389.383057	1067.655884	9322.093750	7336.576172	75.946068
389.745819	1059.779663	9339.109375	7384.204590	76.388123
390.108521	1054.950073	9386.885742	7413.404785	76.314255
390.471191	1049.303101	9448.557617	7465.640137	76.391739
390.833801	1049.897461	9570.116211	7563.349121	76.446999
391.196442	1049.600220	9752.455078	7727.260254	76.729538
391.558960	1052.498169	9914.137695	7882.404785	77.072723
391.921509	1053.835571	10107.993164	8034.205078	77.095741
392.284027	1056.956177	10301.329102	8187.342285	77.132179
392.646484	1048.634277	10448.375000	8284.456055	76.978958
393.008911	1049.080078	10468.584961	8305.632813	77.037521
393.371307	1045.810669	10425.192383	8244.778320	76.753113
393.733673	1046.776733	10329.043945	8207.999023	77.149490
394.096008	1042.541626	10269.156250	8171.367188	77.263725
394.458344	1044.770630	10249.168945	8205.398438	77.795715
394.820587	1045.439331	10279.484375	8214.983398	77.642509
395.182831	1051.680664	10338.481445	8258.821289	77.606277
395.545013	1046.330933	10294.715820	8214.834961	77.510872
395.907196	1044.621948	10245.379883	8176.865723	77.518005
396.269287	1039.123535	10106.209961	8072.619141	77.571732
396.631409	1046.330933	9977.815430	7996.979004	77.821869
396.993469	1052.126465	9808.330078	7880.769531	77.986351
397.355530	1053.389771	9684.764648	7807.878906	78.255081
397.717499	1045.662231	9641.075195	7762.256348	78.141609
398.079468	1042.690063	9641.520508	7753.414551	78.042297
398.441376	1047.296753	9672.282227	7765.525879	77.892639
398.803284	1051.903564	9670.573242	7778.454590	78.046272
399.165131	1057.179077	9710.028320	7794.949707	77.867645
399.526978	1054.504272	9698.809570	7798.441406	78.015945
399.888763	1057.699219	9705.050781	7814.119629	78.132828
400.250519	1054.058350	9687.366211	7826.528809	78.445839
400.612244	1057.030518	9713.446289	7848.001953	78.450157
400.973938	1059.408203	9706.090820	7834.850098	78.358856
401.335602	1056.138916	9730.908203	7839.234863	78.193382
401.697205	1054.875732	9768.727539	7894.441406	78.490730
402.058807	1048.782837	9857.221680	7975.653809	78.639038
402.420349	1044.770630	9976.848633	8077.819824	78.739227
402.781860	1044.101929	10090.458008	8135.033203	78.384392
403.143341	1044.250488	10242.926758	8231.998047	78.138939
403.504822	1053.686890	10396.213867	8345.161133	78.046059
403.866241	1052.795288	10580.707031	8495.549805	78.115273
404.227631	1059.630981	10750.637695	8651.661133	78.340988
404.588959	1056.807495	10945.163086	8805.838867	78.365219
404.950287	1058.739502	11102.907227	8941.589844	78.481865
405.311554	1058.962402	11184.343750	9009.055664	78.516487
405.672821	1057.625000	11213.320313	9042.938477	78.628922
406.034027	1058.813721	11203.586914	9017.081055	78.446976
406.395203	1053.463989	11133.519531	8949.242188	78.330704
406.756348	1052.052368	11041.012695	8902.506836	78.591309
407.117493	1046.553955	10963.738281	8859.187500	78.778748
407.478516	1044.919312	10939.960938	8835.782227	78.735016
407.839600	1042.095581	10921.682617	8824.339844	78.770950
408.200592	1053.166626	10920.717773	8809.701172	78.606483
408.561554	1052.349487	10918.709961	8819.806641	78.726669
408.922485	1053.612549	10955.342773	8825.231445	78.487488
409.283417	1042.987305	10949.026367	8846.481445	78.775124
409.644257	1042.021362	11051.266602	8905.255859	78.559715
410.005096	1043.210327	11173.122070	8999.917969	78.546661
410.365906	1049.823120	11314.668945	9093.984375	78.366119
410.726715	1049.674438	11417.875977	9188.645508	78.499359
411.087433	1050.863403	11473.010742	9242.144531	78.594948
411.448120	1042.912964	11561.281250	9302.625977	78.526566
411.808807	1043.581665	11573.094727	9330.490234	78.701729
412.169434	1044.770508	11529.627930	9277.809570	78.523140
412.530029	1045.810791	11482.890625	9264.360352	78.743767
412.890564	1049.154419	11465.355469	9237.016602	78.606995
413.251099	1056.584595	11500.722656	9263.692383	78.580994
413.611572	1058.813843	11563.805664	9297.574219	78.427101
413.972076	1060.448486	11628.078125	9349.065430	78.434021
414.332489	1051.383423	11660.028320	9377.375000	78.483086
414.692871	1051.309082	11787.679688	9471.442383	78.426247
415.053223	1053.389648	11909.239258	9562.834961	78.385803
415.413574	1048.708496	12116.247070	9732.914063	78.465546
415.773834	1048.857056	12249.695313	9851.575195	78.589813
416.134094	1042.021362	12424.307617	9991.932617	78.630173
416.494263	1050.417603	12569.864258	10123.670898	78.764664
416.854462	1056.881958	12851.769531	10320.871094	78.542412
417.214630	1058.145142	13169.489258	10548.088867	78.355827
417.574738	1060.299927	13565.746094	10821.820313	78.058151
417.934784	1052.720947	13885.172852	11069.620117	78.059120
418.294861	1053.761108	14272.735352	11378.049805	78.102043
418.654846	1052.126465	14674.936523	11705.351563	78.201370
419.014832	1051.160522	15148.020508	12084.593750	78.268730
419.374756	1045.290649	15690.729492	12490.879883	78.151222
419.734680	1039.717896	16250.078125	12933.426758	78.194786
420.094543	1040.906738	16816.785156	13367.579102	78.136200
420.454376	1046.702515	17247.072266	13757.074219	78.457291
420.814148	1049.451660	17714.958984	14111.127930	78.375504
421.173920	1045.959473	18179.423828	14489.921875	78.466110
421.533691	1044.696289	18673.017578	14853.856445	78.335091
421.893341	1043.804565	19027.886719	15177.593750	78.590553
422.253021	1051.383545	19277.173828	15390.620117	78.675522
422.612640	1059.259644	19361.728516	15500.440430	78.902908
422.972260	1055.544434	19383.945313	15490.334961	78.756416
423.331757	1050.640503	19316.998047	15414.174805	78.633820
423.691315	1042.541504	19324.279297	15363.795898	78.336388
424.050781	1043.061523	19388.255859	15427.250000	78.408478
424.410248	1043.804565	19468.798828	15487.065430	78.389503
424.769653	1048.634277	19558.556641	15568.129883	78.441696
425.128998	1057.847778	19558.705078	15570.878906	78.445183
425.488373	1062.454712	19458.841797	15504.452148	78.504532
425.847656	1055.841675	19279.921875	15381.777344	78.609924
426.206940	1048.039917	19063.701172	15229.010742	78.714676
426.566193	1048.708618	18724.880859	14982.176758	78.826271
426.925385	1054.950073	18349.501953	14684.593750	78.808884
427.284576	1057.476318	17832.357422	14270.133789	78.764534
427.643677	1055.692993	17441.968750	13971.512695	78.820961
428.002777	1048.188354	17064.140625	13682.473633	78.885635
428.361847	1051.606323	16693.667969	13400.867188	78.949059
428.720856	1051.234985	16377.954102	13149.203125	78.933838
429.079865	1063.271973	16122.278320	12945.987305	78.907700
429.438812	1060.819946	15976.942383	12834.606445	78.933289
429.797760	1061.042847	15861.550781	12735.858398	78.881180
430.156616	1055.544434	15678.840820	12602.855469	78.965164
430.515503	1052.869507	15583.659180	12499.351563	78.773987
430.874268	1056.881836	15511.288086	12434.411133	78.713226
431.233093	1060.299683	15521.467773	12421.928711	78.566467
431.591827	1061.414307	15580.909180	12483.674805	78.668442
431.950562	1058.888062	15616.574219	12507.081055	78.640198
432.309204	1050.566284	15672.226563	12576.182617	78.825630
432.667877	1045.216431	15758.195313	12632.206055	78.753525
433.026459	1039.346558	15949.004883	12746.409180	78.519989
433.385010	1042.690063	16087.504883	12854.074219	78.508003
433.743561	1052.275146	16286.041992	12995.323242	78.398521
434.102051	1049.228638	16413.470703	13135.754883	78.666595
434.460510	1049.674438	16598.486328	13279.458008	78.654137
434.818939	1049.228638	16615.203125	13320.472656	78.833763
435.177338	1051.086304	16635.191406	13361.338867	78.992363
435.535675	1050.417603	16610.820313	13340.311523	78.981850
435.894012	1049.080200	16576.865234	13305.463867	78.931953
436.252289	1051.234863	16602.572266	13301.078125	78.770355
436.610535	1047.371216	16585.929688	13272.098633	78.673500
436.968719	1041.501343	16722.498047	13400.495117	78.815102
437.326935	1041.278320	16828.824219	13495.156250	78.884193
437.685028	1044.250366	16990.802734	13641.534180	78.996910
438.043152	1043.878906	17123.357422	13690.127930	78.648376
438.401215	1047.891357	17352.730469	13861.320313	78.586662
438.759277	1057.179199	17576.755859	14048.118164	78.639664
439.117249	1061.785889	17931.697266	14401.875000	79.076218
439.475250	1061.340088	18187.449219	14618.393555	79.160149
439.833130	1052.721069	18593.884766	14892.866211	78.900955
440.191071	1051.680786	18860.779297	15049.940430	78.601738
440.548889	1051.606445	19129.013672	15279.536133	78.705589
440.906708	1058.070801	19384.390625	15510.247070	78.860214
441.264496	1057.253418	19592.958984	15694.890625	78.969948
441.622223	1055.247192	19786.740234	15854.269531	79.006104
441.979950	1052.126587	19854.281250	15902.268555	78.981064
442.337616	1060.374146	19917.365234	15961.784180	79.023270
442.695251	1062.974731	19829.390625	15884.659180	78.979836
443.052887	1059.185425	19712.882813	15784.350586	78.939659
443.410461	1049.674561	19550.902344	15664.796875	78.995415
443.768005	1044.027466	19447.994141	15561.887695	78.884407
444.125458	1049.600220	19312.242188	15483.945313	79.037544
444.482941	1051.532104	19326.212891	15513.070313	79.134285
444.840393	1054.504028	19385.505859	15594.061523	79.316765
445.197754	1048.931519	19648.982422	15829.526367	79.465347
445.555084	1053.761108	19921.748047	16016.100586	79.300140
445.912415	1054.652832	20305.744141	16291.168945	79.146240
446.269714	1056.584595	20535.193359	16506.349609	79.316566
446.626953	1051.012085	20812.787109	16777.705078	79.581383
446.984161	1049.451660	21130.580078	17047.201172	79.665588
447.341309	1044.101929	21420.134766	17249.970703	79.533974
447.698456	1048.782959	21628.779297	17384.531250	79.376831
448.055542	1044.919312	21733.472656	17477.708984	79.429382
448.412598	1049.526001	21700.257813	17414.255859	79.245277
448.769653	1043.061646	21576.025391	17298.416016	79.167114
449.126617	1049.377441	21252.287109	17057.677734	79.237595
449.483582	1050.566162	20993.789063	16875.039063	79.347618
449.840515	1062.454590	20646.794922	16614.980469	79.413071
450.197388	1057.847778	20390.822266	16380.034180	79.254158
450.554230	1056.510376	20199.716797	16240.343750	79.317078
450.911041	1048.708618	20016.263672	16108.235352	79.396248
451.267822	1056.138794	19878.503906	16024.644531	79.525108
451.624573	1056.658936	19654.482422	15858.281250	79.587921
451.981262	1062.380249	19543.250000	15770.010742	79.583008
452.337921	1049.154419	19349.394531	15611.819336	79.576363
452.694580	1049.897461	19258.449219	15511.881836	79.424141
453.051147	1049.228638	19205.322266	15473.317383	79.444893
453.407715	1056.807617	19107.091797	15411.424805	79.525711
453.764221	1058.219360	19103.599609	15467.746094	79.851608
454.120728	1050.714844	18885.966797	15308.664063	79.942520
454.477142	1047.668335	18842.576172	15284.143555	80.003082
454.833557	1052.200806	18672.720703	15128.703125	79.886986
455.189911	1049.080078	18506.951172	15017.397461	80.011574
455.546265	1047.965454	18286.123047	14858.538086	80.116287
455.902557	1047.222534	18122.433594	14714.316406	80.040558
456.258820	1050.566162	18125.701172	14689.945313	79.878601
456.615051	1053.018188	18216.724609	14779.628906	79.974625
456.971252	1048.560059	18213.751953	14796.124023	80.089783
457.327393	1049.748901	18413.105469	14967.316406	80.154816
457.683502	1051.755005	18675.765625	15152.850586	80.010712
458.039612	1049.005737	19158.435547	15538.629883	80.011490
458.395630	1049.451538	19617.404297	15905.239258	80.007675
458.751648	1048.485718	20068.720703	16260.778320	79.979523
459.107605	1047.073975	20712.478516	16781.939453	80.012924
459.463562	1048.634399	21332.681641	17288.683594	80.063156
459.819458	1051.606445	21925.916016	17766.671875	80.074829
460.175323	1053.389648	22410.814453	18158.248047	80.088585
460.531158	1058.219360	22952.037109	18538.826172	79.842659
460.886932	1057.922241	23294.349609	18790.265625	79.744568
461.242676	1057.922119	23457.591797	18946.896484	79.862671
461.598419	1049.600342	23254.820313	18866.798828	80.238785
461.954102	1054.355591	22904.408203	18625.908203	80.418808
462.309723	1056.584717	22324.994141	18134.767578	80.298355
462.665344	1064.237915	21679.826172	17605.212891	80.235283
463.020905	1056.881958	21111.261719	17150.628906	80.250542
463.376373	1056.956177	20640.257813	16805.119141	80.416283
463.731873	1047.816895	20263.542969	16497.955078	80.403618
464.087341	1051.606323	19909.787109	16239.750000	80.538750
464.442749	1044.993530	19769.578125	16114.030273	80.477287
464.798126	1042.095581	19669.861328	16040.247070	80.515030
465.153503	1037.043091	19797.439453	16128.371094	80.442482
465.508820	1038.083374	19798.554688	16163.218750	80.622368
465.864105	1035.854248	19960.162109	16305.062500	80.685684
466.219330	1039.346436	20239.687500	16523.587891	80.645653
466.574524	1039.272095	20501.085938	16681.482422	80.373856
466.929657	1049.154419	20678.818359	16840.117188	80.444389
467.284790	1052.275146	20832.921875	16983.001953	80.536934
467.639893	1053.092407	21014.888672	17132.720703	80.552010
467.994934	1049.674683	21191.730469	17310.232422	80.729378
468.349945	1052.572388	21244.855469	17354.814453	80.735008
468.704926	1055.841675	21171.667969	17359.123047	81.047035
469.059875	1060.002563	20971.570313	17184.212891	80.979103
469.414764	1052.498047	20725.705078	17015.845703	81.142578
469.769653	1048.634277	20531.626953	16841.306641	81.058762
470.124451	1048.708618	20416.531250	16733.642578	80.984497
470.479248	1043.804565	20238.648438	16596.849609	81.027199
470.834015	1050.491943	20133.212891	16511.550781	81.021248
471.188721	1052.200928	20155.652344	16523.958984	80.989334
471.543365	1058.739502	20267.255859	16603.091797	80.924278
471.898010	1058.442261	20374.251953	16697.455078	80.964828
472.252625	1050.268921	20570.039063	16851.039063	80.947525
472.607178	1055.841675	20837.007813	17056.708984	80.889404
472.961700	1058.962402	21090.009766	17266.986328	80.914513
473.316193	1064.980835	21358.689453	17496.134766	80.966736
473.670654	1054.058228	21468.878906	17597.857422	81.038177
474.025055	1047.445435	21687.253906	17783.462891	81.086105
474.379456	1050.194702	21801.976563	17916.392578	81.275902
474.733795	1060.374146	22004.304688	18057.865234	81.157120
475.088104	1063.346313	22126.085938	18185.962891	81.293396
475.442383	1060.225586	22199.275391	18203.498047	81.097649
475.796570	1051.977905	22300.400391	18320.152344	81.268028
476.150787	1053.909790	22540.250000	18471.880859	81.065323
476.504944	1051.309204	22809.005859	18660.906250	80.935028
476.859070	1054.578491	23101.531250	18893.548828	80.913544
477.213135	1046.479492	23354.681641	19079.974609	80.837959
477.567200	1046.702271	23760.744141	19440.416016	80.979485
477.921173	1044.621948	24148.755859	19745.501953	80.941704
478.275146	1045.736450	24639.896484	20187.974609	81.131256
478.629089	1045.810913	24984.662109	20486.152344	81.208328
478.983002	1048.634277	25488.435547	20878.025391	81.135651
479.336823	1049.971680	25909.583984	21154.431641	80.871979
479.690643	1046.925171	26385.564453	21541.101563	80.881126
480.044403	1042.912964	26860.435547	21959.130859	81.015587
480.398163	1046.925293	27554.273438	22592.412109	81.281189
480.751862	1041.129761	28525.705078	23341.158203	81.136520
481.105499	1043.507324	29711.205078	24309.992188	81.159241
481.459137	1037.860352	31243.255859	25565.708984	81.203537
481.812744	1045.587891	33151.496094	27158.240234	81.332855
482.166290	1044.621948	35505.855469	29078.962891	81.350372
482.519806	1050.789185	38274.074219	31363.771484	81.435539
482.873291	1050.640503	41358.304688	33963.031250	81.652931
483.226715	1051.829468	44677.332031	36813.878906	81.975098
483.580139	1049.674561	47750.863281	39564.417969	82.470581
483.933502	1053.984131	50582.394531	42298.753906	83.274971
484.286804	1055.247192	52928.800781	44748.437500	84.230186
484.640106	1052.349487	54839.421875	46880.480469	85.202873
484.993347	1055.470215	56051.375000	48327.378906	85.955322
485.346558	1056.138794	56573.269531	48995.957031	86.351395
485.699738	1056.584595	56379.562500	48836.281250	86.365013
486.052887	1043.655884	55678.519531	47981.425781	85.911751
486.405975	1039.346436	54554.691406	46737.972656	85.393501
486.759064	1046.033569	53203.796875	45163.718750	84.585075
487.112061	1052.943848	51781.199219	43677.964844	84.026192
487.464996	1059.408203	50729.660156	42460.886719	83.352661
487.817963	1056.659058	50134.863281	41858.437500	83.136246
488.170868	1061.117188	49857.941406	41524.671875	82.922516
488.523743	1055.544434	49788.324219	41484.695313	82.960899
488.876587	1054.950073	49715.281250	41339.582031	82.787422
489.229401	1049.005737	49551.292969	41189.714844	82.760445
489.582153	1044.473267	49063.644531	40761.953125	82.711716
489.934845	1036.894531	48349.230469	40139.074219	82.646904
490.287537	1035.185425	47508.566406	39352.281250	82.449554
490.640198	1035.556885	46715.531250	38640.613281	82.322845
490.992798	1035.259766	45958.683594	38013.718750	82.314438
491.345337	1035.259766	45605.968750	37714.425781	82.294319
491.697876	1044.027466	45426.750000	37488.097656	82.113190
492.050354	1045.216309	45597.941406	37568.347656	81.977325
492.402832	1046.702515	45656.718750	37577.265625	81.888702
492.755219	1044.399048	45468.214844	37463.210938	81.980377
493.107605	1051.234863	44826.750000	36986.628906	82.090172
493.459930	1052.275146	43809.472656	36154.363281	82.096329
493.812225	1056.584717	42367.410156	34974.960938	82.105301
494.164490	1051.755005	40697.683594	33625.175781	82.160820
494.516724	1060.894165	38792.039063	32063.781250	82.167892
494.868896	1059.854004	37011.074219	30485.884766	81.849884
495.221039	1065.501099	35429.917969	29101.552734	81.584534
495.573120	1062.826172	34100.863281	28006.255859	81.552750
495.925201	1062.231812	33202.394531	27338.498047	81.755234
496.277222	1060.002563	32613.767578	26854.117188	81.746552
496.629211	1051.383423	32405.421875	26673.490234	81.718681
496.981140	1047.965576	32252.804688	26580.015625	81.820801
497.333069	1046.108032	32293.000000	26638.640625	81.904251
497.684967	1050.789063	32301.619141	26630.468750	81.852798
498.036804	1048.782959	32403.640625	26676.236328	81.733597
498.388580	1052.720825	32348.431641	26622.736328	81.704536
498.740326	1049.303101	32227.765625	26529.562500	81.723915
499.092072	1050.566284	31967.111328	26316.685547	81.723618
499.443756	1044.324829	31697.914063	26084.787109	81.688515
499.795410	1044.844849	31367.490234	25869.607422	81.868721
500.147003	1044.398926	30986.314453	25566.673828	81.899483
500.498566	1050.046021	30579.287109	25216.783203	81.840019
500.850098	1046.182373	30184.884766	24854.333984	81.706284
501.201599	1044.473389	29848.146484	24598.437500	81.774170
501.553009	1042.244263	29486.664063	24338.673828	81.901581
501.904449	1053.835571	29266.951172	24151.654297	81.869080
502.255859	1051.160645	29045.826172	23963.742188	81.846245
502.607178	1058.888062	29000.947266	23888.546875	81.703568
502.958405	1049.674561	28879.015625	23821.154297	81.825439
503.309692	1050.640503	28788.142578	23717.802734	81.720276
503.660919	1037.786133	28683.525391	23699.150391	81.970551
504.012115	1043.061523	28679.513672	23719.359375	82.052124
504.363251	1042.764404	28813.851563	23821.599609	82.023567
504.714294	1046.999634	28902.570313	23877.548828	81.960442
505.065369	1046.999634	28967.140625	23887.656250	81.807098
505.416443	1050.417603	28988.166016	23878.146484	81.709267
505.767395	1054.652710	28984.896484	23851.025391	81.618958
506.118317	1053.241089	28944.773438	23821.970703	81.633125
506.469238	1061.117188	28890.384766	23838.837891	81.848076
506.820160	1059.333862	28870.990234	23820.931641	81.841934
507.170929	1056.138794	28877.380859	23821.974609	81.828972
507.521729	1045.810913	28938.828125	23868.562500	81.822456
507.872498	1035.779907	29017.664063	23969.390625	81.958778
508.223236	1036.894531	29230.244141	24116.732422	81.862701
508.573883	1039.866455	29413.773438	24230.638672	81.732742
508.924500	1044.176025	29615.505859	24405.099609	81.763512
509.275116	1045.885132	29761.656250	24586.177734	81.976875
509.625702	1049.674438	29984.341797	24832.416016	82.194626
509.976196	1052.423828	30253.763672	25032.587891	82.120079
510.326660	1041.129761	30508.994141	25219.013672	82.048309
510.677124	1028.126709	30748.546875	25417.998047	82.064354
511.027557	1030.281494	30955.554688	25606.279297	82.124557
511.377869	1039.940796	31206.843750	25847.318359	82.233757
511.728180	1049.154419	31383.984375	25981.580078	82.190758
512.078430	1042.838745	31528.798828	26100.390625	82.193741
512.428650	1039.197754	31604.291016	26168.007813	82.214081
512.778931	1032.882080	31689.740234	26229.232422	82.188301
513.129028	1040.981079	31721.314453	26286.740234	82.286453
513.479126	1049.080078	31761.291016	26321.587891	82.288139
513.829285	1053.463989	31719.312500	26313.046875	82.370399
514.179382	1049.823242	31674.806641	26277.974609	82.377686
514.529297	1041.352661	31581.406250	26220.759766	82.447159
514.879272	1050.640381	31596.414063	26231.384766	82.436096
515.229187	1053.463989	31560.380859	26131.968750	82.205963
515.579163	1062.083008	31608.673828	26160.056641	82.162926
515.928955	1057.847778	31616.625000	26148.539063	82.106331
516.278748	1050.863403	31785.587891	26318.171875	82.210945
516.628540	1048.559937	32048.470703	26493.304688	82.080055
516.978333	1048.931519	32489.162109	26854.119141	82.076965
517.327942	1057.327759	33009.281250	27281.583984	82.074028
517.677612	1057.550659	33620.941406	27805.416016	82.140907
518.027222	1054.058472	34179.769531	28251.455078	82.103584
518.376831	1050.343262	34853.253906	28786.806641	82.053474
518.726379	1052.869507	35442.621094	29253.500000	82.003014
519.075867	1053.018188	35879.597656	29691.666016	82.232162
519.425293	1054.058472	36248.808594	30047.724609	82.380653
519.774658	1049.377319	36482.191406	30267.513672	82.460678
520.124084	1052.423706	36708.593750	30406.234375	82.324631
520.473389	1056.510376	36622.472656	30313.132813	82.260178
520.822693	1055.098633	36346.660156	30079.226563	82.240982
521.171997	1058.888062	35972.394531	29755.937500	82.194687
521.521240	1055.693237	35524.203125	29409.166016	82.259056
521.870361	1060.225586	35135.750000	29098.875000	82.283836
522.219482	1062.083130	34684.808594	28776.476563	82.427559
522.568604	1060.597046	34358.394531	28513.445313	82.446442
522.917664	1059.556763	34138.011719	28375.837891	82.580284
523.266724	1055.172974	34215.660156	28404.814453	82.476593
523.615662	1058.293579	34510.496094	28594.658203	82.315552
523.964600	1056.213257	34952.890625	28902.865234	82.151573
524.313538	1053.538208	35508.824219	29311.306641	82.012871
524.662354	1051.383423	36172.199219	29850.302734	81.999573
525.011169	1050.640503	37014.496094	30527.125000	81.961411
525.359985	1049.377319	37967.578125	31368.750000	82.125816
525.708740	1046.256592	39076.472656	32379.416016	82.390175
526.057434	1055.841675	40382.933594	33512.238281	82.529358
526.406067	1051.532104	41868.023438	34789.648438	82.658051
526.754700	1054.132813	43604.332031	36245.683594	82.705963
527.103333	1052.275024	45497.265625	37897.734375	82.901268
527.451782	1060.151245	47637.480469	39778.855469	83.127792
527.800293	1059.408203	49628.343750	41661.167969	83.596138
528.148743	1049.377319	51512.218750	43546.746094	84.215172
528.497131	1050.046021	53043.230469	45204.363281	84.923279
528.845642	1050.863281	54366.187500	46656.089844	85.538681
529.193909	1055.692993	55370.238281	47884.238281	86.217323
529.542175	1043.953247	56087.781250	48791.175781	86.744011
529.890503	1047.519653	56450.902344	49234.097656	86.974075
530.238770	1049.748901	56420.363281	49194.046875	86.949188
530.586914	1057.699341	56044.535156	48739.167969	86.714333
530.934998	1057.847900	55321.125000	47933.800781	86.386147
531.283142	1052.200806	54357.191406	46745.769531	85.720993
531.631226	1046.553833	52954.281250	45214.171875	85.088715
531.979248	1042.987427	51343.175781	43477.343750	84.362221
532.327148	1040.238159	49688.082031	41801.519531	83.788467
532.675110	1042.318604	48367.582031	40387.167969	83.137093
533.023071	1045.067749	47387.824219	39509.062500	82.998940
533.370850	1049.823120	46868.667969	39008.035156	82.844109
533.718689	1054.132813	46724.375000	38949.484375	82.976028
534.066467	1054.355591	46807.515625	38963.531250	82.855865
534.414246	1052.052246	46844.449219	39039.621094	82.956062
534.761963	1057.179077	46824.753906	38990.578125	82.882690
535.109619	1059.333984	46690.496094	38850.363281	82.818466
535.457153	1063.643433	46324.253906	38468.152344	82.642517
535.804749	1060.151245	45751.750000	37998.781250	82.652290
536.152344	1047.668335	44990.519531	37399.679688	82.725655
536.499817	1051.903687	44119.394531	36701.378906	82.775833
536.847229	1048.857300	43181.246094	35839.175781	82.573807
537.194641	1055.692993	42276.687500	35019.246094	82.393822
537.542114	1049.748779	41554.839844	34402.535156	82.342209
537.889404	1052.720947	40845.988281	33901.730469	82.549164
538.236694	1045.290649	40343.777344	33517.738281	82.630272
538.583984	1040.981079	40013.203125	33202.988281	82.525467
538.931213	1039.940918	39954.433594	33115.535156	82.425835
539.278381	1054.504272	39906.800781	33082.097656	82.434235
539.625488	1058.070801	40005.921875	33188.796875	82.496788
539.972595	1059.036743	40248.222656	33390.304688	82.500481
540.319641	1053.315308	40818.347656	33829.359375	82.424286
540.666687	1052.349487	41544.953125	34446.812500	82.470528
541.013611	1051.457886	42547.148438	35317.417969	82.577156
541.360596	1043.358887	43627.214844	36224.058594	82.615112
541.707458	1035.557007	44798.597656	37244.609375	82.738884
542.054260	1037.340332	45794.550781	38096.121094	82.799576
542.401062	1044.473267	46741.542969	38915.308594	82.873665
542.747864	1057.104858	47293.675781	39432.824219	82.998627
543.094666	1053.761230	47568.894531	39685.753906	83.052528
543.441284	1051.309204	47270.425781	39456.304688	83.093315
543.787903	1044.176147	46680.535156	38926.750000	83.009636
544.134460	1041.872681	45696.542969	38019.734375	82.808502
544.481079	1049.748657	44497.667969	36981.285156	82.700249
544.827637	1053.241089	43016.816406	35610.472656	82.350540
545.174072	1057.699219	41356.968750	34206.078125	82.255531
545.520508	1044.844849	39871.730469	32911.199219	82.072906
545.866943	1040.758179	38497.136719	31830.244141	82.200912
546.213318	1033.030762	37552.449219	31027.630859	82.133293
546.559631	1041.872803	36648.480469	30315.734375	82.214684
546.905823	1046.776733	35978.269531	29748.875000	82.166824
547.252136	1052.052246	35322.472656	29235.224609	82.237595
547.598389	1049.451538	34773.378906	28747.203125	82.130867
547.944458	1053.686890	34312.402344	28324.046875	81.994629
548.290588	1058.888062	33779.503906	27893.390625	82.010994
548.636658	1059.631104	33218.445313	27460.875000	82.096451
548.982727	1055.024414	32602.025391	26965.275391	82.132217
549.328735	1050.789185	32046.763672	26474.728516	82.023361
549.674622	1055.098755	31398.693359	25920.353516	81.945648
550.020569	1055.618774	30706.712891	25399.494141	82.101105
550.366455	1055.395874	29955.437500	24746.595703	81.976349
550.712280	1057.922241	29286.119141	24224.544922	82.069084
551.058044	1056.138794	28724.466797	23760.968750	82.060722
551.403748	1054.430054	28232.953125	23426.904297	82.316742
551.749512	1043.061646	27927.718750	23134.744141	82.172081
552.095154	1044.770630	27699.164063	22921.646484	82.076057
552.440735	1046.702393	27615.945313	22805.291016	81.893898
552.786316	1044.473267	27537.703125	22758.923828	81.962265
553.131897	1049.005737	27542.681641	22760.259766	81.948814
553.477417	1045.513550	27509.541016	22748.595703	82.009750
553.822815	1047.371216	27469.791016	22703.865234	81.962570
554.168213	1041.501221	27384.490234	22623.248047	81.925957
554.513672	1042.021362	27278.384766	22539.728516	81.938591
554.859009	1046.479370	27124.802734	22424.041016	81.974449
555.204285	1044.844849	26970.548828	22302.333984	81.993874
555.549500	1040.906860	26773.945313	22133.591797	81.967331
555.894714	1040.386719	26532.087891	21980.900391	82.146393
556.239990	1044.473267	26180.341797	21749.744141	82.373405
556.585022	1055.692993	25898.509766	21539.392578	82.453209
556.930115	1053.686890	25635.478516	21271.085938	82.245422
557.275146	1047.891235	25413.759766	21060.511719	82.133827
557.620178	1034.739746	25208.537109	20887.537109	82.125275
557.965149	1035.928589	25026.939453	20742.052734	82.139618
558.310059	1041.650024	24879.896484	20591.958984	82.012360
558.654968	1053.984253	24682.250000	20419.949219	81.961006
558.999756	1053.761230	24545.609375	20303.218750	81.941010
559.344604	1057.922241	24485.197266	20237.904297	81.870308
559.689331	1059.556763	24421.000000	20205.435547	81.955032
560.033997	1064.386597	24338.896484	20119.468750	81.871033
560.378723	1056.584595	24270.835938	20089.375000	81.987526
560.723389	1056.361694	24264.146484	20053.636719	81.857338
561.067932	1058.665161	24239.554688	20135.591797	82.295921
561.412476	1064.683716	24203.443359	20113.748047	82.325348
561.757019	1057.624878	24166.367188	20105.869141	82.428734
562.101501	1056.064453	24248.990234	20052.966797	81.908173
562.445862	1048.485718	24256.716797	20052.001953	81.882660
562.790222	1053.761230	24266.525391	20048.361328	81.828255
563.134644	1048.188477	24164.656250	20029.634766	82.112221
563.478943	1050.417603	24185.312500	20015.294922	81.975204
563.823181	1045.810669	24178.998047	19990.478516	81.893890
564.167358	1043.210083	24224.693359	20052.521484	82.002136
564.511536	1040.981079	24250.179688	20099.927734	82.118073
564.855774	1038.157715	24275.218750	20142.873047	82.216576
565.199768	1039.197876	24393.509766	20196.220703	82.027779
565.543823	1040.386719	24501.992188	20273.423828	81.976646
565.887817	1040.386597	24707.884766	20450.486328	82.011627
566.231812	1038.603394	24822.013672	20546.113281	82.021500
566.575745	1042.169922	24990.234375	20653.107422	81.889450
566.919617	1044.250488	25149.763672	20758.693359	81.783958
567.263428	1046.702515	25293.312500	20847.189453	81.662910
567.607239	1041.204102	25406.400391	20974.619141	81.811020
567.950989	1040.089478	25443.478516	21002.628906	81.802322
568.294678	1036.968750	25475.578125	21065.119141	81.952904
568.638367	1036.522949	25375.343750	21015.632813	82.087418
568.981995	1039.940918	25346.142578	20928.771484	81.826157
569.325623	1043.656128	25225.849609	20805.056641	81.718811
569.669128	1047.519897	25153.552734	20682.681641	81.453308
570.012573	1044.324829	24999.820313	20581.183594	81.554810
570.356140	1049.377441	24933.095703	20553.544922	81.663025
570.699524	1052.423828	24879.968750	20538.757813	81.780701
571.042908	1054.504272	24894.234375	20592.552734	81.955826
571.386230	1053.018066	24969.208984	20578.955078	81.643173
571.729492	1051.309204	25059.781250	20634.015625	81.565819
572.072815	1054.355591	25190.554688	20717.234375	81.466347
572.416016	1054.132690	25301.634766	20823.412109	81.531197
572.759094	1054.801392	25409.523438	20905.738281	81.507545
573.102234	1053.315308	25479.666016	20951.136719	81.460480
573.445374	1052.349487	25539.923828	20990.591797	81.421875
573.788391	1048.857300	25559.986328	20982.939453	81.326660
574.131409	1051.086304	25540.000000	20991.855469	81.427742
574.474365	1046.553833	25521.869141	20992.451172	81.493935
574.817261	1053.241089	25433.822266	20978.183594	81.724640
575.160156	1047.445435	25274.291016	20835.523438	81.678307
575.502930	1049.897339	25050.195313	20657.568359	81.697617
575.845703	1050.343262	24801.357422	20417.423828	81.542122
576.188477	1053.538208	24558.906250	20229.064453	81.579346
576.531250	1059.333862	24280.125000	20019.232422	81.650528
576.873901	1053.984009	24037.302734	19803.755859	81.579918
577.216431	1054.504150	23786.974609	19559.744141	81.404442
577.559082	1051.829346	23500.984375	19310.607422	81.333923
577.901611	1053.984131	23217.742188	19084.429688	81.351028
578.244080	1055.544556	22885.609375	18834.326172	81.441727
578.586487	1057.327759	22563.507813	18592.025391	81.533295
578.928955	1086.008667	22237.244141	18337.986328	81.564873
579.271301	1088.980591	21920.490234	18099.474609	81.657516
579.613647	1089.946533	21584.939453	17799.662109	81.530724
579.955872	1055.841675	21251.394531	17532.767578	81.586899
580.298157	1050.566162	20966.890625	17272.560547	81.450745
580.640320	1041.798462	20712.404297	17079.298828	81.530281
580.982483	1041.129761	20505.396484	16880.611328	81.377228
581.324524	1039.866577	20311.093750	16723.314453	81.382721
581.666626	1039.643677	20146.066406	16592.689453	81.402191
582.008728	1044.027466	20006.898438	16476.480469	81.382469
582.350647	1045.067749	19879.320313	16348.605469	81.253761
582.692566	1051.012085	19791.050781	16245.175781	81.078613
583.034424	1054.875854	19680.710938	16178.081055	81.194771
583.376343	1057.030518	19561.380859	16116.484375	81.383324
583.718201	1056.361694	19503.498047	16079.629883	81.439568
584.059937	1056.361694	19408.019531	16006.070313	81.462440
584.401611	1054.206909	19330.669922	15958.664063	81.550011
584.743347	1055.841675	19247.005859	15860.286133	81.382614
585.085022	1053.686890	19187.787109	15805.006836	81.345757
585.426514	1061.562988	19139.044922	15767.706055	81.350609
585.768127	1063.643433	19019.640625	15729.959961	81.679207
586.109619	1055.618774	18943.330078	15652.461914	81.602631
586.451172	1047.073853	18896.742188	15584.179688	81.441879
586.792542	1039.197876	18888.271484	15551.114258	81.303467
587.133850	1043.284546	18839.751953	15551.856445	81.525017
587.475220	1043.210205	18802.527344	15542.124023	81.641174
587.816589	1049.451660	18778.007813	15508.684570	81.558990
588.157776	1053.909912	18818.500000	15500.585938	81.322876
588.498962	1055.470215	18851.863281	15480.155273	81.053986
588.840210	1052.349487	18890.203125	15510.098633	81.050949
589.181335	1049.154419	18942.142578	15565.008789	81.125938
589.522400	1053.092529	18963.095703	15606.989258	81.261269
589.863403	1055.470215	18987.390625	15629.875000	81.276321
590.204407	1059.111084	18939.837891	15605.281250	81.351112
590.545410	1056.436157	18981.966797	15621.106445	81.250984
590.886353	1052.497925	18975.724609	15628.165039	81.322784
591.227112	1048.411255	18972.902344	15613.675781	81.259018
591.567932	1050.417603	18905.064453	15589.676758	81.431236
591.908752	1052.275146	18864.421875	15559.359375	81.444893
592.249512	1051.977905	18877.201172	15549.180664	81.329720
592.590149	1048.782837	18816.498047	15473.096680	81.182716
592.930786	1050.566162	18733.873047	15396.489258	81.126923
593.271423	1051.680786	18622.789063	15323.301758	81.222092
593.612000	1049.526001	18546.626953	15263.487305	81.236092
593.952576	1045.959351	18526.564453	15256.428711	81.292778
594.292969	1046.999634	18548.632813	15253.011719	81.169640
594.633484	1040.609619	18632.447266	15279.016602	80.937576
594.973877	1045.067749	18738.107422	15311.933594	80.635475
595.314209	1047.742676	18853.722656	15390.992188	80.552994
595.654480	1061.562988	18995.937500	15539.448242	80.727013
595.994812	1058.219360	19182.509766	15646.147461	80.488266
596.335022	1050.863403	19384.314453	15828.930664	80.607124
596.675171	1044.547607	19540.648438	15959.852539	80.640259
597.015320	1044.324707	19680.931641	16125.176758	80.920586
597.355408	1043.507446	19773.068359	16175.851563	80.793907
597.695496	1044.696167	19844.472656	16232.174805	80.785416
598.035461	1044.696289	19808.435547	16184.991211	80.689117
598.375366	1052.943848	19764.001953	16167.530273	80.778893
598.715271	1053.166870	19697.875000	16113.882813	80.777428
599.055176	1051.234985	19532.921875	15994.627930	80.855133
599.395081	1048.857300	19322.125000	15858.504883	81.045425
599.734802	1050.714844	19051.736328	15624.301758	80.959778
600.074524	1052.126587	18768.347656	15434.680664	81.182968
600.414246	1053.018188	18405.525391	15101.284180	80.958130
600.753906	1056.659058	18063.435547	14830.079102	80.987831
601.093506	1064.757935	17746.982422	14548.768555	80.828613
601.433044	1063.643555	17487.591797	14392.213867	81.153259
601.772583	1056.510376	17272.484375	14243.311523	81.319824
602.112122	1054.652832	17218.615234	14182.680664	81.217873
602.451538	1053.686890	17262.228516	14187.362305	81.029350
602.790894	1055.618774	17366.107422	14263.149414	80.975693
603.130310	1054.504272	17527.269531	14384.784180	80.923149
603.469604	1055.024414	17695.935547	14533.018555	80.993134
603.808838	1052.795288	17998.275391	14722.713867	80.669998
604.148010	1054.355591	18239.087891	14950.524414	80.863457
604.487305	1061.339966	18515.125000	15118.597656	80.539879
604.826416	1064.163452	18646.640625	15284.886719	80.880096
605.165527	1058.293701	18801.115234	15390.249023	80.776070
605.504456	1049.377319	18933.744141	15504.823242	80.827271
605.843445	1047.296875	19055.898438	15512.402344	80.323311
606.182434	1048.634277	19073.583984	15531.793945	80.350632
606.521423	1049.971802	18985.310547	15456.598633	80.325371
606.860229	1047.668335	18855.429688	15382.222656	80.496109
607.199036	1042.095703	18685.798828	15202.187500	80.255783
607.537903	1047.668335	18501.824219	15059.304688	80.276794
607.876648	1049.525879	18236.041016	14884.991211	80.501862
608.215271	1050.046021	17949.828125	14708.297852	80.819107
608.553955	1041.872681	17685.681641	14524.696289	81.008041
608.892578	1048.931519	17444.498047	14348.450195	81.116554
609.231140	1052.498047	17307.853516	14210.768555	80.947296
609.569641	1057.401978	17182.652344	14084.304688	80.785736
609.908081	1057.030518	17142.380859	14006.657227	80.505714
610.246521	1056.138794	17085.615234	13945.581055	80.410873
610.584961	1053.241089	17067.111328	13924.776367	80.377419
610.923340	1055.618774	17016.958984	13928.340820	80.649384
611.261597	1056.361816	16960.560547	13878.856445	80.623322
611.599854	1059.630981	16867.759766	13803.514648	80.616013
611.938110	1049.971802	16768.638672	13690.648438	80.418251
612.276245	1047.742676	16593.656250	13584.543945	80.643700
612.614319	1053.315430	16359.081055	13431.332031	80.871597
612.952393	1057.179077	16093.375000	13204.261719	80.785614
613.290466	1054.578613	15848.324219	12959.657227	80.473724
613.628479	1046.702271	15555.200195	12671.957031	80.127213
613.966370	1036.151367	15258.583008	12460.343750	80.325172
614.304260	1050.417603	14982.325195	12261.731445	80.472206
614.642151	1050.268921	14796.198242	12126.500000	80.578262
614.979980	1056.881958	14669.437500	11966.824219	80.146172
615.317749	1046.330933	14511.766602	11842.145508	80.174271
615.655396	1046.479614	14406.257813	11720.882813	79.899551
615.993164	1054.504272	14298.295898	11706.468750	80.429871
616.330811	1058.442383	14274.890625	11679.199219	80.360146
616.668396	1061.265747	14223.918945	11648.512695	80.433990
617.005859	1054.950073	14172.204102	11577.850586	80.221825
617.343445	1051.309204	14134.383789	11568.488281	80.387672
617.680908	1051.234985	14154.816406	11616.264648	80.627037
618.018311	1046.330933	14182.679688	11639.967773	80.643692
618.355652	1049.674438	14184.538086	11640.487305	80.631310
618.692993	1044.473389	14144.934570	11607.718750	80.632622
619.030273	1050.491821	14110.754883	11585.875000	80.667465
619.367554	1046.033691	14106.668945	11563.359375	80.526917
619.704712	1048.411499	14131.633789	11555.039063	80.306114
620.041870	1048.114136	14158.012695	11543.151367	80.054298
620.379028	1056.361816	14130.742188	11521.007813	80.039330
620.716064	1051.309204	14062.903320	11463.721680	80.024109
621.053040	1047.371216	13970.471680	11418.172852	80.250107
621.389954	1039.123535	13894.237305	11365.714844	80.330620
621.726929	1040.609497	13817.631836	11345.208008	80.649452
622.063843	1046.999634	13771.489258	11295.796875	80.543877
622.400635	1045.439331	13743.106445	11253.890625	80.396271
622.737427	1049.823120	13709.819336	11199.276367	80.169479
623.074219	1043.507324	13660.852539	11147.710938	80.081841
623.410889	1049.228638	13582.016602	11096.813477	80.170387
623.747559	1050.789063	13543.676758	11081.656250	80.292625
624.084167	1052.275024	13543.231445	11089.235352	80.353813
624.420715	1058.739502	13568.867188	11097.409180	80.244339
624.757324	1067.061401	13600.221680	11091.092773	79.980080
625.093750	1069.141968	13617.163086	11085.000000	79.820221
625.430176	1060.522827	13667.540039	11101.643555	79.647079
625.766602	1051.903687	13702.239258	11133.964844	79.697975
626.102905	1050.417603	13800.617188	11214.954102	79.720604
626.439209	1047.965698	13870.015625	11274.916992	79.760658
626.775452	1048.411377	13978.421875	11352.934570	79.694626
627.111694	1050.566162	14022.261719	11379.536133	79.626984
627.447876	1058.739502	14069.590820	11438.829102	79.780251
627.783997	1055.024414	14086.979492	11443.436523	79.714920
628.120056	1058.590820	14122.867188	11497.083008	79.901039
628.456055	1052.126587	14112.166992	11466.543945	79.742615
628.792053	1056.436157	14095.151367	11468.179688	79.852524
629.128052	1048.337036	14029.542969	11406.285156	79.791878
629.463928	1055.247192	13961.406250	11384.291992	80.031906
629.799744	1054.281372	13854.187500	11312.663086	80.144196
630.135559	1055.247437	13752.616211	11218.223633	80.040016
630.471375	1053.166870	13635.143555	11113.977539	79.962082
630.807068	1052.869507	13494.414063	10981.496094	79.802200
631.142700	1050.937622	13348.335938	10864.469727	79.801697
631.478333	1054.207031	13198.243164	10757.250000	79.899658
631.813965	1050.491821	13061.006836	10640.447266	79.846329
632.149475	1051.234863	12928.524414	10526.020508	79.772285
632.484924	1042.169922	12825.465820	10409.290039	79.494904
632.820435	1045.587769	12758.520508	10343.903320	79.385033
633.155884	1048.188477	12687.858398	10309.799805	79.569366
633.491150	1049.525879	12625.295898	10291.594727	79.839775
633.826477	1049.600220	12547.128906	10260.983398	80.116203
634.161804	1051.903564	12472.975586	10182.816406	79.947952
634.497009	1046.553833	12406.473633	10090.309570	79.611092
634.832153	1044.547729	12308.617188	10016.972656	79.655273
635.167297	1046.033691	12233.051758	9955.078125	79.637352
635.502380	1056.213135	12152.656250	9914.805664	79.832726
635.837463	1057.921997	12081.770508	9857.666992	79.824615
636.172424	1057.625000	12011.109375	9814.422852	79.945320
636.507324	1050.640503	11945.796875	9734.622070	79.704971
636.842224	1053.835571	11880.411133	9656.381836	79.457687
637.177124	1049.228760	11757.291992	9546.116211	79.350365
637.511963	1045.810791	11637.070313	9457.770508	79.423599
637.846741	1043.581665	11529.999023	9378.860352	79.486427
638.181396	1048.559937	11418.174805	9304.631836	79.617920
638.516113	1055.247192	11290.745117	9215.320313	79.723267
638.850769	1048.039917	11189.320313	9143.543945	79.827240
639.185303	1037.860352	11104.096680	9061.959961	79.713005
639.519836	1034.368164	11031.502930	8982.456055	79.503662
639.854370	1039.494995	10945.460938	8882.742188	79.177002
640.188843	1040.163696	10847.678711	8822.333008	79.349045
640.523254	1041.798462	10747.368164	8747.288086	79.392456
640.857605	1036.597290	10632.719727	8682.570313	79.677742
641.191895	1042.095703	10570.157227	8603.363281	79.357880
641.526184	1040.906738	10508.113281	8552.614258	79.344498
641.860413	1042.541382	10456.028320	8498.076172	79.200562
642.194580	1044.919067	10376.078125	8463.154297	79.499611
642.528748	1049.971680	10285.354492	8417.012695	79.769745
642.862793	1055.321655	10213.280273	8354.226563	79.700127
643.196838	1054.875610	10169.144531	8294.041016	79.426727
643.530823	1054.504272	10142.469727	8229.025391	78.945290
643.864746	1057.847778	10103.015625	8190.982910	78.861282
644.198669	1059.779663	10056.650391	8165.645996	78.981529
644.532532	1059.259644	10010.359375	8159.182129	79.318993
644.866333	1053.315308	9973.803711	8133.547363	79.370453
645.200073	1054.652710	9957.233398	8119.578613	79.358177
645.533813	1057.179077	9942.818359	8097.882324	79.236877
645.867554	1062.974731	9963.698242	8090.600098	78.955666
646.201172	1064.683716	9953.221680	8087.256348	79.007065
646.534729	1070.107788	9950.842773	8103.528809	79.198631
646.868225	1064.386353	9949.728516	8123.367676	79.445244
647.201782	1058.962402	9966.373047	8083.764160	78.864693
647.535217	1047.668335	9986.434570	8068.829590	78.547318
647.868591	1054.429810	9965.703125	8053.449219	78.541183
648.201965	1054.652954	9957.530273	8069.721191	78.795525
648.535278	1061.340210	9947.127930	8051.071777	78.661919
648.868591	1059.779663	9918.298828	8037.027832	78.763138
649.201782	1056.213135	9883.599609	8022.835938	78.920563
649.534912	1057.253418	9858.336914	8004.334473	78.934380
649.868103	1051.309204	9837.605469	7963.096191	78.665543
650.201172	1053.463989	9787.823242	7942.291504	78.870438
650.534180	1040.981201	9733.582031	7918.068848	79.114273
650.867188	1039.049316	9698.363281	7907.815918	79.322289
651.200134	1039.049194	9690.041016	7880.472656	79.082527
651.533020	1041.501221	9657.125000	7848.596191	79.008728
651.865845	1047.519775	9608.307617	7810.999512	79.005341
652.198608	1054.504272	9538.909180	7757.575684	79.004608
652.531433	1056.881958	9491.800781	7728.151855	79.091095
652.864136	1048.560059	9465.275391	7712.176270	79.171227
653.196777	1168.336060	9580.964844	7801.636719	78.849319
653.529358	1175.246094	9549.014648	7740.931641	78.407776
653.861938	1174.651611	9463.492188	7674.356934	78.415131
654.194519	1044.621826	9262.651367	7489.490723	78.423538
654.526978	1034.888306	9197.117188	7467.645996	78.811287
654.859375	1036.968750	9153.203125	7415.114746	78.585037
655.191833	1046.330933	9113.749023	7397.652344	78.728058
655.524170	1050.269043	9057.948242	7337.689941	78.517395
655.856445	1057.104858	8988.995117	7311.981934	78.857330
656.188660	1057.030396	8936.016602	7273.418457	78.898323
656.520874	1062.008911	8906.295898	7255.363281	78.953697
656.853088	1062.900513	8931.708008	7251.127441	78.642502
657.185181	1055.841675	8929.404297	7260.267578	78.800743
657.517212	1050.343384	8951.471680	7280.775391	78.854965
657.849243	1047.742676	8985.130859	7285.679199	78.589287
658.181274	1054.652832	9040.188477	7313.616699	78.378761
658.513123	1062.380371	9096.807617	7357.158203	78.347565
658.844971	1059.408203	9160.633789	7413.554199	78.434380
659.176819	1054.652832	9237.684570	7475.894043	78.470200
659.508667	1049.005737	9300.323242	7537.936035	78.641144
659.840393	1051.383423	9351.889648	7597.675781	78.866188
660.172058	1054.281250	9405.684570	7634.826660	78.795685
660.503662	1056.510376	9429.832031	7622.418457	78.414619
660.835266	1045.290649	9445.139648	7610.232910	78.155487
661.166931	1036.968872	9398.328125	7572.858887	78.167793
661.498413	1035.259766	9359.245117	7568.771973	78.490196
661.829773	1045.439331	9278.922852	7524.859375	78.695976
662.161194	1051.383667	9205.140625	7441.492188	78.370110
662.492615	1050.491821	9088.262695	7316.589355	77.958153
662.823975	1051.680664	8944.709961	7204.540527	77.953087
663.155212	1049.080078	8788.823242	7101.705566	78.201889
663.486450	1050.789063	8654.334961	6993.595215	78.158348
663.817627	1048.931519	8524.157227	6871.367188	77.889763
664.148743	1045.067749	8396.059570	6769.646484	77.874916
664.479858	1040.015137	8281.929688	6711.690918	78.317352
664.810913	1043.210083	8205.398438	6672.533203	78.597809
665.141907	1047.222534	8116.310059	6632.781250	79.013855
665.472778	1043.061523	8044.532715	6559.072754	78.783600
665.803711	1044.101807	7981.970215	6473.327637	78.254951
666.134583	1043.507446	7956.111816	6412.250000	77.665993
666.465454	1052.943848	7914.800293	6387.582031	77.743362
666.796143	1050.417603	7868.509766	6382.900879	78.210785
667.126831	1055.841675	7842.652344	6375.396484	78.380775
667.457458	1057.550659	7832.546875	6345.898438	78.056839
667.788147	1060.077026	7818.429688	6310.083984	77.681755
668.118774	1063.272095	7785.587402	6292.920410	77.795341
668.449219	1057.847900	7762.033691	6273.972656	77.804008
668.779663	1062.454590	7744.721191	6281.403809	78.101479
669.110107	1059.482422	7721.910156	6250.938965	77.921394
669.440552	1064.015015	7704.375000	6235.781250	77.883820
669.770874	1051.234985	7681.935059	6224.636719	78.021957
670.101135	1047.222656	7657.712402	6196.476074	77.895187
670.431396	1041.352661	7616.771973	6171.287109	78.016838
670.761597	1051.903687	7566.023438	6113.851563	77.707321
671.091797	1047.891235	7536.228027	6097.429688	77.824852
671.421875	1046.776733	7519.287109	6055.597656	77.386063
671.751892	1036.820190	7507.917969	6035.090332	77.239914
672.081909	1033.030762	7469.280762	5989.171387	77.003548
672.411865	1035.779907	7407.683594	5970.298340	77.441826
672.741821	1044.027466	7351.882324	5935.078125	77.539047
673.071716	1052.943848	7317.332031	5908.181152	77.505371
673.401550	1052.498047	7294.743652	5877.048340	77.288696
673.731262	1045.290649	7258.929688	5867.091309	77.600273
674.060974	1044.919067	7213.308105	5847.029297	77.850311
674.390625	1047.148315	7152.825684	5828.379395	78.307953
674.720276	1052.349487	7106.609375	5772.207031	77.959282
675.049927	1052.572388	7048.876465	5732.678223	78.049843
675.379395	1050.491821	7012.765137	5686.387207	77.753822
675.708923	1046.182251	6976.728027	5646.041016	77.562149
676.038330	1045.067749	6980.518066	5619.291504	77.066162
676.367737	1048.708618	6949.385254	5602.351074	77.171532
676.697083	1050.714722	6925.830566	5589.496094	77.254326
677.026428	1047.817017	6874.636230	5562.078613	77.473854
677.355652	1044.547607	6858.066895	5554.574219	77.578247
677.684875	1051.234863	6850.562500	5569.286621	77.906479
678.013977	1059.853882	6849.373535	5577.236816	78.026901
678.343079	1064.460815	6849.968262	5566.017090	77.807457
678.672180	1061.414429	6849.076660	5566.908691	77.846527
679.001221	1059.185181	6864.753906	5575.081543	77.785599
679.330139	1062.380249	6907.998047	5600.642090	77.635284
679.659058	1060.596924	6931.329590	5615.873535	77.592979
679.987976	1054.355591	6981.260254	5633.855469	77.266296
680.316772	1047.371094	7003.328613	5665.805176	77.543098
680.645630	1050.937744	7045.384277	5681.557129	77.248489
680.974304	1054.875610	7073.544922	5733.569824	77.736359
681.302979	1054.652832	7096.727051	5755.562500	77.802910
681.631653	1048.857178	7128.231934	5762.398438	77.533318
681.960266	1047.668335	7153.865723	5768.120605	77.305923
682.288757	1044.919067	7175.710938	5778.745605	77.213951
682.617249	1049.748901	7154.832031	5791.600098	77.670540
682.945679	1046.479614	7100.070313	5770.126465	78.030495
683.274109	1050.863403	7049.916016	5726.287598	77.936043
683.602478	1049.005859	7004.369141	5679.105469	77.746719
683.930725	1054.281128	6953.619629	5620.703125	77.405663
684.259033	1051.606323	6883.850098	5550.412598	77.136803
684.587280	1050.789063	6806.649902	5500.853027	77.313614
684.915344	1043.210327	6746.390137	5453.968262	77.338577
685.243469	1052.349487	6684.125000	5400.395996	77.205605
685.571533	1049.451660	6641.994629	5336.050293	76.648468
685.899536	1055.024414	6586.416504	5286.415527	76.497765
686.227539	1055.692993	6543.468750	5267.617188	76.751030
686.555420	1050.566162	6514.342285	5266.725586	77.165665
686.883301	1052.498047	6514.416504	5255.283203	76.947052
687.211121	1047.817017	6521.104004	5260.112793	76.960991
687.538940	1060.299805	6516.349121	5238.490234	76.579048
687.866638	1058.665161	6510.404297	5242.576660	76.744530
688.194336	1056.584717	6488.113281	5216.942871	76.596458
688.521973	1052.943848	6484.695801	5217.537109	76.671272
688.849609	1056.213257	6446.355469	5186.552734	76.627655
689.177063	1053.463989	6423.841309	5166.045410	76.579002
689.504578	1053.538208	6340.845215	5126.590332	77.034531
689.832031	1050.491821	6269.143066	5081.191406	77.236427
690.159485	1051.829346	6182.952637	5017.959961	77.295563
690.486816	1055.990234	6134.878906	4953.539551	76.740196
690.814087	1057.699219	6070.681152	4896.177246	76.570755
691.141296	1056.659058	6005.740234	4835.992676	76.364349
691.468506	1049.451782	5917.171875	4778.333984	76.604286
691.795715	1047.594116	5826.447754	4724.761719	76.946648
692.122803	1050.194702	5732.975098	4686.495605	77.652603
692.449829	1050.789185	5660.307129	4625.938965	77.560165
692.776855	1049.377319	5607.255371	4565.084961	77.134743
693.103821	1052.349487	5579.466309	4530.236816	76.823448
693.430664	1045.216309	5541.645996	4494.125488	76.703285
693.757568	1044.027466	5495.205566	4459.723145	76.736893
694.084351	1039.792236	5441.559570	4408.306152	76.526390
694.411133	1042.764404	5383.455078	4381.854004	76.925308
694.737854	1053.018188	5355.665527	4350.201660	76.631508
695.064575	1056.361694	5323.195313	4322.635254	76.550293
695.391174	1060.448364	5305.734375	4303.465332	76.391014
695.717773	1053.389648	5286.490234	4303.687988	76.782921
696.044250	1048.931519	5255.728516	4310.746582	77.536781
696.370789	1043.210083	5262.638672	4309.780762	77.417374
696.697205	1046.182251	5291.542480	4306.808105	76.804459
697.023621	1049.451660	5349.127441	4330.510742	76.309456
697.349915	1054.578491	5409.015137	4367.736816	76.086960
697.676208	1042.541504	5470.537598	4431.785645	76.541260
698.002380	1039.569336	5546.326660	4493.382324	76.636322
698.328674	1039.866577	5645.892578	4579.647949	76.851097
698.654724	1050.640503	5738.993652	4656.477051	76.910515
698.980896	1052.869507	5828.380371	4716.439453	76.715767
699.306946	1060.819946	5872.589844	4747.052246	76.608658
699.632935	1062.751831	5901.939941	4773.801270	76.687439
699.958862	1066.838379	5926.459473	4787.101563	76.554596
700.284729	1060.596924	5938.199219	4783.460449	76.325684
700.610596	1057.922119	5914.570801	4753.665527	76.096581
700.936340	1045.142090	5844.206543	4678.099609	75.701370
701.262146	1039.866699	5738.176270	4600.824707	75.792320
701.587830	1038.529175	5629.322754	4510.844238	75.636490
701.913513	1049.897583	5510.587402	4437.061035	75.933624
702.239075	1050.268921	5391.331055	4343.291016	75.857521
702.564697	1050.566162	5262.267090	4244.840332	75.842850
702.890137	1044.919067	5150.664551	4160.655273	75.887222
703.215698	1048.634277	5045.601074	4100.247070	76.348213
703.541016	1047.445435	4951.830566	4024.904297	76.259354
703.866455	1050.046021	4851.076172	3971.628906	76.862923
704.191711	1058.293579	4790.519531	3902.824463	76.215393
704.517029	1060.299805	4727.361816	3869.091064	76.595139
704.842163	1056.956177	4690.136230	3819.679688	76.041473
705.167419	1052.572266	4636.192871	3783.123047	76.195305
705.492493	1052.423706	4611.970215	3751.916016	75.838097
705.817566	1052.423706	4558.025879	3719.520264	76.080986
706.142578	1048.559937	4533.951660	3716.250244	76.539185
706.467590	1053.315430	4511.066895	3690.615967	76.272125
706.792480	1054.801392	4507.574707	3677.093018	75.947395
707.117371	1054.207031	4492.045410	3660.152100	75.801849
707.442200	1043.061646	4480.305176	3661.489258	76.178123
707.766907	1043.433228	4485.877930	3666.839111	76.207634
708.091675	1046.776733	4500.961426	3659.483154	75.638878
708.416321	1053.909790	4499.475098	3658.888672	75.603821
708.741028	1055.618774	4505.196777	3666.095947	75.675255
709.065552	1060.671387	4497.543945	3680.733643	76.233910
709.390137	1064.163574	4516.490723	3702.653076	76.426407
709.714600	1066.764282	4534.323730	3717.142334	76.433525
710.039063	1064.089355	4578.013672	3734.826172	76.004395
710.363403	1064.609497	4616.354004	3753.699219	75.711800
710.687744	1063.420532	4671.412109	3790.256104	75.577652
711.012085	1055.916016	4697.863770	3816.039063	75.787003
711.336304	1051.606445	4743.560059	3858.688721	76.032433
711.660461	1055.618774	4772.018066	3870.503174	75.742241
711.984619	1059.631104	4802.630859	3889.375977	75.600990
712.308716	1057.996460	4788.959473	3880.013672	75.637772
712.632751	1051.383423	4767.337402	3870.131592	75.855301
712.956726	1046.925293	4728.328125	3853.710693	76.242279
713.280701	1046.850952	4693.554199	3834.763428	76.450218
713.604553	1053.835571	4651.573730	3812.695313	76.683174
713.928467	1056.733276	4621.777832	3787.209717	76.590256
714.252258	1055.470093	4586.930176	3747.755127	76.237167
714.575989	1058.145142	4547.178223	3706.814209	75.914124
714.899719	1053.092651	4492.862793	3647.371826	75.420135
715.223267	1051.977905	4449.469727	3613.341064	75.389832
715.546936	1044.696167	4405.110840	3587.038330	75.655617
715.870422	1046.405151	4372.789551	3589.638672	76.456390
716.193970	1044.547607	4336.826660	3565.787842	76.580391
716.517395	1045.290649	4304.950684	3539.335938	76.512436
716.840820	1046.330933	4262.003906	3497.652100	76.230431
717.164124	1050.194580	4235.105957	3468.525391	75.930870
717.487488	1043.730347	4201.224609	3441.702148	75.945404
717.810730	1048.634277	4184.357422	3419.039795	75.593582
718.133972	1047.073853	4139.181641	3382.111328	75.516045
718.457092	1048.485596	4105.819824	3347.560547	75.198677
718.780212	1046.330933	4040.433594	3289.753174	74.928040
719.103210	1047.445313	3989.610352	3254.830811	75.025887
719.426208	1047.073853	3929.499268	3207.797119	74.961983
719.749207	1044.324829	3898.366455	3176.886963	74.720779
720.072083	1043.879028	3853.487549	3134.980469	74.426796
720.394958	1050.937866	3816.336670	3117.296143	74.721893
720.717773	1054.355713	3762.169678	3089.358398	75.152969
721.040527	1054.652954	3733.934570	3071.005859	75.257217
721.363281	1052.200806	3699.309326	3040.021484	75.094040
721.685913	1046.182251	3675.309814	3025.160889	75.271309
722.008545	1055.247192	3641.130127	3004.207764	75.369255
722.331055	1050.194702	3613.266846	2990.833252	75.715324
722.653503	1049.971680	3591.942139	2969.954102	75.531265
722.976013	1037.786011	3570.171631	2947.960693	75.429848
723.298401	1044.250488	3559.471924	2932.282471	75.064247
723.620789	1046.776733	3547.434814	2924.703857	75.097313
723.943115	1044.547607	3534.357422	2919.130859	75.290222
724.265381	1042.467163	3536.883545	2901.818359	74.540527
724.587585	1045.067749	3536.735107	2891.044922	74.086014
724.909790	1051.680664	3533.762939	2890.673096	74.090714
725.231873	1050.046021	3519.719971	2898.326172	74.839035
725.553894	1053.389648	3507.682861	2900.035156	75.241440
725.875916	1098.268433	3557.762695	2946.697266	75.154839
726.197937	1099.531738	3568.536865	2939.638428	74.528267
726.519775	1101.017578	3597.291992	2945.954102	73.907600
726.841675	1055.915894	3578.122070	2915.490234	73.728088
727.163513	1055.544434	3590.976318	2934.289063	74.099586
727.485291	1049.005859	3590.382080	2941.867920	74.481773
727.806946	1050.120239	3597.812500	2946.623047	74.440025
728.128662	1042.987305	3606.951172	2966.164795	75.007980
728.450256	1050.046021	3637.712646	3003.018799	75.472351
728.771790	1051.309204	3649.526611	3018.028076	75.694931
729.093323	1058.590820	3655.173828	3010.671875	75.178841
729.414795	1057.030396	3649.898438	2990.610107	74.573006
729.736145	1053.761108	3645.737305	2973.817627	74.076935
730.057495	1051.754883	3640.536133	2969.285156	74.070770
730.378845	1054.058472	3641.353516	2957.991455	73.587784
730.700134	1054.504272	3645.142822	2975.452393	74.149597
731.021301	1058.368042	3661.117920	2982.139893	73.913048
731.342468	1045.587891	3649.675537	2999.600830	75.036377
731.663574	1051.680664	3638.975830	2996.480469	75.167297
731.984680	1042.392944	3625.155518	2993.359375	75.537964
732.305664	1050.640503	3643.805420	2981.694092	74.467056
732.626648	1043.804688	3656.510986	2988.975342	74.450417
732.947571	1049.451660	3670.034180	3003.835938	74.578239
733.268433	1049.525879	3673.972656	3015.947266	74.927078
733.589233	1051.457886	3670.703125	2998.709229	74.343994
733.909973	1054.727173	3633.997314	2972.851807	74.366959
734.230713	1054.132690	3590.604492	2946.400146	74.602348
734.551331	1053.538208	3549.960938	2924.258057	74.936020
734.871948	1048.411377	3538.815674	2895.651367	74.174301
735.192505	1044.844849	3499.137939	2856.270752	73.806427
735.513062	1040.163696	3451.584229	2828.258789	74.151115
735.833435	1042.244263	3393.702393	2791.924805	74.408325
736.153931	1043.581787	3350.086914	2772.383545	74.953300
736.474304	1048.783081	3326.978516	2733.374023	73.944099
736.794617	1050.566284	3305.282227	2721.188721	74.094589
737.114807	1048.039917	3295.920166	2705.510742	73.734833
737.434998	1047.222656	3280.688232	2708.631592	74.387039
737.755188	1050.343384	3272.663330	2693.696533	73.947647
738.075256	1055.544434	3272.663330	2696.668701	74.020576
738.395325	1049.823242	3286.260742	2690.798828	73.374535
738.715271	1045.142090	3305.430908	2711.231934	73.711372
739.035278	1050.566284	3314.272705	2720.445313	73.767471
739.355164	1060.299927	3325.418213	2732.408203	73.819916
739.675049	1066.095337	3330.322266	2726.909912	73.350182
739.994873	1062.900391	3330.099365	2717.399170	72.975456
740.314636	1054.504150	3307.957031	2713.015381	73.598663
740.634277	1050.120239	3292.947998	2710.860352	74.046715
740.953979	1049.451660	3266.644775	2702.612793	74.560989
741.273499	1053.463989	3253.864502	2675.715576	73.725288
741.593140	1048.188477	3223.177490	2638.861084	73.134743
741.912598	1045.439331	3194.793945	2607.951416	72.696808
742.232117	1039.569336	3161.283203	2584.620361	72.820892
742.551453	1043.953247	3119.302490	2563.740967	73.230461
742.870850	1042.021362	3082.968506	2537.586426	73.277992
743.190063	1048.634277	3038.312500	2515.444336	73.720970
743.509338	1044.250488	3005.322266	2494.936768	73.974152
743.828552	1042.467163	2993.433838	2473.091797	73.329018
744.147705	1040.981079	2970.548584	2460.014404	73.541519
744.466797	1044.399048	2940.084717	2449.314697	74.111214
744.785828	1044.844849	2909.100342	2445.748291	75.145462
745.104858	1050.863403	2888.741211	2428.733154	74.970695
745.423706	1057.030518	2888.444092	2402.355713	73.458298
745.742615	1067.878662	2873.211914	2381.030518	72.737366
746.061401	1067.581421	2867.862305	2370.256836	72.359566
746.380249	1063.048950	2846.314453	2367.953369	73.174995
746.698975	1063.717896	2828.407227	2366.838867	73.844215
747.017639	1062.454712	2815.033203	2363.123779	74.214600
747.336304	1065.723999	2818.525391	2358.591064	73.760040
747.654907	1060.894165	2814.587158	2358.665527	74.002197
747.973389	1059.854126	2817.707764	2358.071045	73.852386
748.291931	1050.566162	2803.070313	2357.625488	74.582382
748.610352	1050.268921	2807.231201	2347.817627	73.851822
748.928711	1051.532104	2802.698486	2350.492188	74.176849
749.247070	1060.374146	2801.063721	2346.479736	73.884834
749.565308	1053.909790	2802.030029	2338.752197	73.498512
749.883545	1050.937622	2788.655518	2320.250977	73.044846
750.201782	1046.628052	2792.742188	2318.096436	72.817024
750.519836	1046.628052	2786.203857	2318.542236	73.116341
750.837952	1050.863403	2780.927979	2314.306885	73.028687
751.155884	1047.891235	2769.410889	2304.573242	72.998413
751.473877	1050.417603	2735.826172	2295.731201	73.887932
751.791809	1042.541626	2717.621826	2285.031494	74.174950
752.109619	1045.216431	2715.689941	2275.743896	73.663391
752.427490	1047.891235	2727.207031	2275.000732	73.071991
752.745300	1047.222534	2736.346436	2274.480469	72.656479
753.062988	1049.154297	2723.343018	2269.799316	72.909645
753.380615	1046.405273	2727.801514	2253.007080	71.761894
753.698303	1053.612549	2712.866455	2256.573486	72.500114
754.015808	1046.850952	2706.030762	2256.053467	72.879532
754.333374	1046.702393	2689.758545	2258.282471	73.739418
754.650757	1036.968750	2696.965820	2241.638672	72.570602
754.968262	1045.810791	2697.486084	2236.140381	72.068016
755.285583	1053.835571	2698.006104	2224.772217	71.217468
755.602905	1063.940674	2682.031006	2233.762695	72.296463
755.920105	1064.609497	2678.835938	2237.552002	72.662827
756.237305	1058.070801	2663.083984	2235.620361	73.366974
756.554443	1054.429932	2658.254150	2219.719482	72.656937
756.871582	1054.429810	2644.210938	2209.911377	72.681801
757.188599	1056.733276	2653.275879	2217.490479	72.704430
757.505615	1055.692993	2669.993896	2235.471680	73.082947
757.822510	1048.634277	2699.492188	2249.069092	72.715820
758.139465	1049.971802	2714.947266	2255.979492	72.433960
758.456238	1047.371216	2714.724365	2258.431396	72.633698
758.773010	1054.281250	2713.535400	2267.347412	73.109123
759.089783	1048.485718	2723.268799	2270.542480	72.968063
759.406433	1053.984009	2735.603271	2278.418701	72.812836
759.723145	1053.612549	2754.550537	2275.372314	71.828590
760.039673	1055.024292	2751.058350	2283.396973	72.426178
760.356201	1049.748657	2754.624756	2287.632080	72.608406
760.672668	1049.154419	2737.757813	2291.644775	73.580948
760.989136	1048.337036	2738.129639	2290.307373	73.498390
761.305481	1046.851074	2736.271729	2289.043945	73.527740
761.621826	1047.371216	2742.067627	2287.780518	73.193596
761.938049	1048.262817	2749.349365	2301.155029	73.652466
762.254333	1048.783081	2774.463623	2307.545166	72.942940
762.570496	1051.903687	2830.041992	2335.111572	72.165810
762.886597	1056.138794	2899.589600	2389.575439	72.333725
763.202637	1057.699097	3008.962891	2472.125732	72.487717
763.518677	1048.782837	3147.017578	2576.001221	72.785866
763.834656	1044.770508	3301.864502	2671.851807	72.087440
764.150574	1043.061523	3423.720703	2761.609375	72.187897
764.466370	1041.724121	3480.190674	2817.187744	72.810661
764.782288	1034.145142	3502.035889	2836.060547	73.014397
765.097961	1041.724243	3478.184570	2821.868408	73.062714
765.413696	1046.182373	3435.980469	2775.354736	72.356422
765.729309	1056.138916	3344.662842	2708.631104	72.207771
766.044861	1057.253418	3228.601807	2626.452393	72.268410
766.360474	1061.488647	3102.064453	2546.948486	72.796112
766.675903	1055.990234	2981.694092	2455.333252	72.666573
766.991394	1049.451538	2881.385010	2377.910156	72.516747
767.306763	1046.033691	2787.094971	2310.071777	72.601585
767.622131	1047.965698	2707.591309	2267.347656	73.473312
767.937378	1049.154419	2647.480469	2217.044678	73.069588
768.252625	1048.114136	2584.991699	2167.038818	72.805061
768.567810	1045.216431	2545.016846	2134.865479	72.652939
768.882996	1046.330933	2496.719971	2102.989746	72.853477
769.197998	1046.108032	2466.850586	2076.463623	72.522331
769.513062	1052.572388	2431.110840	2048.823242	72.268631
769.828064	1055.395874	2410.825928	2027.795532	71.741043
770.142944	1061.042847	2389.204102	2016.055664	71.904884
770.457825	1060.299805	2362.900879	1993.616211	71.650208
770.772705	1061.117188	2329.018799	1985.517212	72.907867
771.087402	1059.631104	2303.904541	1960.700195	72.417290
771.402100	1054.281250	2289.786865	1946.062622	72.179466
771.716736	1049.525879	2274.629150	1923.623169	71.348869
772.031372	1043.135864	2259.619873	1915.970093	71.750572
772.345947	1050.268921	2240.004150	1900.291992	71.446404
772.660461	1051.903687	2220.388428	1892.564575	71.944534
772.974854	1046.999634	2211.843506	1880.378906	71.544289
773.289246	1039.643677	2200.252197	1879.041626	72.323952
773.603638	1037.711792	2194.159424	1874.360474	72.346436
773.917908	1041.872681	2169.862549	1863.660767	72.854210
774.232178	1044.919067	2152.401367	1842.335938	72.002670
774.546265	1045.290649	2138.506592	1819.525024	70.821724
774.860474	1047.817017	2139.472656	1807.859497	69.622917
775.174561	1049.748901	2136.351807	1810.682983	70.028717
775.488586	1050.046021	2125.132080	1807.636719	70.467911
775.802551	1044.250488	2108.934082	1809.196899	71.847298
776.116516	1043.656128	2084.636963	1803.401367	72.983597
776.430359	1036.894409	2070.891113	1801.395020	73.936462
776.744202	1040.015137	2054.247314	1788.912109	73.838814
777.057922	1032.064819	2062.420654	1772.640015	71.875671
777.371704	1036.745972	2059.596924	1763.946655	71.095467
777.685303	1040.981201	2059.671143	1766.621460	71.232689
777.998962	1051.086304	2052.240967	1764.838257	71.292877
778.312500	1057.848022	2043.250366	1760.083008	71.263786
778.626038	1058.293701	2032.253540	1751.909546	71.216064
778.939453	1058.070679	2027.498413	1755.178833	71.909241
779.252869	1055.618774	2028.835571	1752.206665	71.575821
779.566223	1050.937622	2036.043091	1743.958984	70.349968
779.879578	1047.445435	2030.842163	1739.203735	70.343765
780.192749	1045.067749	2029.950562	1746.782593	71.248566
780.505920	1049.154419	2019.102173	1764.466675	73.747505
780.819031	1046.702515	2007.065063	1756.144897	73.872353
781.132141	1055.916016	2005.207642	1745.222290	72.612701
781.445190	1061.265869	2002.532593	1724.343262	70.445221
781.758118	1066.392700	2001.269531	1716.244141	69.511986
782.071045	1066.838501	1978.012695	1711.488892	70.749413
782.383911	1062.900391	1965.529907	1703.687134	70.991112
782.696838	1060.522827	1957.282349	1695.142212	70.768066
783.009583	1057.550659	1959.288452	1691.130005	70.262039
783.322266	1055.098633	1942.347290	1684.962891	70.990723
783.634888	1053.166870	1929.344360	1685.408569	72.159088
783.947510	1043.953247	1913.815063	1668.393188	71.786110
784.260132	1044.473267	1911.288696	1661.408813	71.172653
784.572571	1045.587891	1900.960815	1651.303711	70.813072
784.885010	1044.919067	1899.177612	1650.932251	70.940254
785.197449	1045.364990	1893.307617	1648.331665	71.109375
785.509766	1045.736572	1888.032227	1642.610352	70.862740
785.822083	1051.680786	1882.236450	1638.672241	70.674545
786.134277	1050.194702	1889.518188	1642.090210	70.520546
786.446533	1054.652954	1883.202515	1641.941406	70.881508
786.758606	1052.423828	1886.769043	1641.569946	70.611794
787.070740	1053.166870	1877.183960	1634.139648	70.504944
787.382690	1047.965454	1886.768921	1647.439941	71.467812
787.694641	1048.039795	1892.044556	1650.560547	71.388313
788.006653	1045.216309	1919.536499	1662.449219	70.595749
788.318481	1042.021362	1951.635254	1677.383789	69.849686
788.630310	1039.494995	1975.486450	1700.863647	70.659691
788.942017	1044.547485	1982.173828	1716.244141	71.637985
789.253784	1048.114136	1990.495605	1715.352661	70.803444
789.565430	1051.309204	1994.359375	1710.300171	69.878677
789.877014	1049.451660	1984.997070	1709.928345	70.598038
790.188538	1052.126465	1974.966187	1706.361938	70.893730
790.500061	1048.114136	1953.790039	1700.566406	72.040367
790.811462	1049.600220	1931.276245	1680.356079	71.540550
791.122925	1043.878906	1902.669800	1661.557495	71.924210
791.434204	1048.782959	1881.790649	1641.347168	71.135506
791.745483	1043.210327	1868.787720	1631.910767	71.307724
792.056702	1044.399048	1856.156250	1620.170898	70.929070
792.367920	1043.581665	1839.363892	1610.957397	71.297867
792.678955	1049.005737	1814.769653	1604.270142	72.511177
792.990112	1052.869507	1796.416992	1602.040894	73.858284
793.301086	1048.262817	1793.147583	1597.062500	73.675781
793.612122	1046.256592	1801.395142	1596.393921	72.852501
793.922974	1052.126465	1796.268188	1585.248535	71.642548
794.233826	1055.544434	1790.546997	1578.264038	71.118065
794.544556	1049.451660	1791.141235	1563.849487	69.354866
794.855286	1046.405273	1794.113403	1563.775024	69.194077
795.166016	1051.457886	1801.766602	1570.090820	69.122604
795.476624	1061.340210	1808.676758	1571.799805	68.303848
795.787292	1064.089233	1822.274414	1577.223755	67.679314
796.097778	1056.659058	1831.265015	1584.951172	68.201401
796.408264	1061.488647	1842.633179	1607.539185	69.903908
796.718689	1056.584595	1855.041626	1620.467896	70.621620
797.029053	1059.482544	1857.419434	1616.381348	69.792336
797.339355	1051.680664	1850.434937	1611.402954	70.074402
797.649658	1050.937622	1848.428711	1603.155640	69.244415
797.959839	1046.405273	1846.497070	1607.910767	70.180130
798.270020	1043.358887	1841.667358	1605.384399	70.402046
798.580078	1047.296875	1819.747925	1604.864380	72.181595
798.890137	1054.058228	1814.472534	1599.811890	71.770569
799.200195	1058.442261	1801.246460	1582.499390	70.551178
799.510071	1052.943848	1794.187866	1569.570679	69.697266
799.820007	1056.213257	1780.293335	1549.880493	68.178543
800.129883	1051.309204	1772.417114	1544.381958	68.377113
800.439575	1049.748901	1748.714722	1539.180786	70.022293
800.749329	1043.730347	1736.826172	1544.010620	72.180534
801.058960	1046.182373	1735.786011	1544.010620	72.190491
801.368591	1050.714844	1745.222290	1531.750610	69.262863
801.678162	1048.931519	1738.609375	1515.032349	67.582397
801.987671	1051.755005	1723.897461	1504.407227	67.344688
802.297119	1050.417603	1715.501343	1508.122070	68.819077
802.606506	1051.086304	1705.916016	1501.063477	68.716667
802.915894	1041.426880	1706.733398	1500.766235	69.041763
803.225159	1035.631348	1707.179321	1487.763306	67.326828
803.534424	1036.820190	1705.321899	1496.679688	68.789574
803.843628	1045.067749	1697.074219	1491.924316	68.535606
804.152771	1054.429810	1693.656250	1501.286499	69.905853
804.461792	1057.550537	1699.154663	1495.193726	68.210785
804.770874	1053.761230	1708.293945	1504.630005	68.884071
805.079773	1054.727051	1711.414551	1499.428833	67.718933
805.388733	1049.600098	1710.299927	1514.735229	70.400368
805.697571	1051.160522	1714.683960	1515.998413	70.055984
806.006470	1040.386719	1728.801392	1529.893066	71.106323
806.315125	1043.953247	1741.061401	1526.697876	69.249603
806.623901	1046.405151	1738.535034	1532.716431	70.263008
806.932495	1057.550537	1731.401978	1530.041504	70.117973
807.241150	1056.213135	1715.649902	1520.902344	70.467590
807.549622	1057.847778	1712.677734	1512.357544	69.408821
807.858154	1058.739380	1699.897827	1503.069702	69.301170
808.166565	1054.207031	1699.080200	1505.744629	70.019600
808.474915	1054.504272	1689.346680	1494.079102	69.241570
808.783264	1046.702393	1678.795776	1491.478516	70.365570
809.091492	1050.046021	1667.278809	1484.271118	70.350296
809.399719	1047.816895	1659.848511	1479.590210	70.547554
809.707825	1056.361816	1659.848267	1476.320801	69.588799
810.015930	1060.968628	1656.504761	1474.240234	69.394882
810.323975	1058.070679	1646.473999	1477.658203	71.309509
810.632080	1050.789063	1642.981812	1473.051392	71.304878
810.939880	1047.742676	1628.418335	1477.509644	74.011536
811.247864	1048.262817	1629.310059	1467.478638	72.148323
811.555664	1047.668335	1618.461914	1463.912231	72.923714
811.863464	1042.318481	1625.892212	1444.667847	68.945763
812.171143	1040.535278	1616.381348	1441.546997	69.638702
812.478882	1044.919067	1613.483521	1437.609009	69.066917
812.786438	1055.098511	1602.783813	1442.735962	70.777405
813.094055	1056.807617	1610.734375	1440.284058	69.228729
813.401489	1051.011963	1609.396851	1433.448120	68.489700
813.708984	1050.714722	1613.186401	1426.315063	66.776756
814.016357	1052.795288	1602.115234	1430.921875	68.835403
814.323730	1049.897583	1594.759399	1428.841309	69.548592
814.630981	1048.857300	1589.038086	1433.596680	71.224190
814.938232	1042.318726	1586.585938	1425.720581	70.443680
815.245361	1048.857178	1591.415649	1427.355103	69.761681
815.552490	1047.742554	1597.434204	1423.714478	68.396881
815.859619	1054.429810	1601.372192	1421.336792	67.083298
816.166565	1056.510376	1608.802612	1424.234497	66.581436
816.473572	1051.234985	1607.762329	1421.188110	66.475281
816.780457	1049.971802	1615.043945	1426.835083	66.692947
817.087341	1046.182251	1615.712524	1428.098267	67.058067
817.394043	1048.039917	1619.279175	1439.838013	68.587387
817.700806	1049.005737	1615.861328	1431.293335	67.440033
818.007507	1050.789063	1610.065552	1435.082642	68.712631
818.314209	1053.686890	1618.610352	1437.980469	68.025780
818.620667	1051.234863	1629.978882	1456.407593	70.008972
818.927246	1052.572388	1648.331543	1463.020508	68.894974
819.233704	1053.686890	1669.136353	1478.327026	68.996750
819.540161	1054.578491	1702.275391	1501.212280	68.957222
819.846497	1056.881958	1744.999390	1534.276855	69.376953
820.152832	1053.241089	1792.776001	1561.991699	68.793320
820.458984	1054.504272	1856.007813	1604.270020	68.591805
820.765259	1043.358887	1932.911133	1643.873413	67.507507
821.071350	1049.005859	2027.275391	1721.073853	68.699677
821.377502	1048.188599	2185.986084	1836.986206	69.326714
821.683472	1047.668335	2497.388672	2051.869873	69.268639
821.989441	1038.974976	3045.296875	2410.306152	68.350510
822.295349	1040.758301	3810.169189	2919.874268	67.852554
822.601196	1045.662231	4659.152344	3500.624268	67.938797
822.907043	1046.405273	5368.966309	4004.916748	68.443489
823.212769	1047.148315	5766.782715	4278.796387	68.472420
823.518494	1051.829346	5791.599609	4317.210938	68.893242
823.824097	1054.950073	5505.533691	4126.772949	69.020676
824.129700	1049.228760	5080.447754	3841.227783	69.259422
824.435242	1045.290771	4628.613770	3538.221680	69.570366
824.740723	1046.628174	4252.865234	3285.072021	69.815292
825.046082	1046.553833	3897.029297	3061.643555	70.693108
825.351501	1047.817017	3569.800049	2817.930420	70.187370
825.656799	1047.296875	3240.193115	2575.332275	69.681152
825.962036	1052.200806	2952.567139	2366.838623	69.178123
826.267212	1052.126465	2748.234375	2236.586182	69.833984
826.572449	1047.445435	2657.733887	2185.242920	70.657990
826.877502	1038.157593	2701.052490	2210.802979	70.518311
827.182495	1031.619019	2847.280518	2303.310059	70.040092
827.487488	1030.058716	3026.126953	2404.510498	68.857956
827.792419	1038.380493	3164.255859	2482.750977	67.942383
828.097290	1051.829224	3186.249268	2495.456787	67.635590
828.402100	1060.671265	3105.630859	2443.445068	67.618637
828.706848	1063.866211	2954.721924	2339.346924	67.455208
829.011597	1054.950073	2770.897217	2209.837158	67.303185
829.316223	1044.399048	2586.403564	2092.141846	67.946808
829.620789	1040.015137	2425.018066	1996.365601	69.050430
829.925354	1043.284546	2276.041016	1906.682251	70.037979
830.229797	1053.761230	2155.224854	1824.726196	69.994591
830.534302	1060.151245	2025.863647	1730.881836	69.454483
830.838562	1054.058472	1920.725220	1642.981812	67.952690
831.142944	1047.296875	1821.902710	1569.347656	67.395668
831.447144	1040.609497	1747.674316	1523.057251	68.232468
831.751404	1045.810791	1699.228882	1504.481445	70.195587
832.055542	1047.445435	1672.405640	1481.670532	69.480438
832.359619	1040.163696	1664.381226	1477.583862	70.074959
832.663635	1043.804565	1674.857788	1477.212280	68.680054
832.967651	1044.919067	1707.253540	1502.995483	69.160889
833.271545	1051.680786	1779.773071	1548.988770	68.302879
833.575439	1044.993530	1887.140625	1623.588745	68.704765
833.879211	1042.987427	2021.925781	1719.216431	69.077789
834.183044	1041.501343	2150.023438	1810.831543	69.401428
834.486694	1047.519653	2241.118652	1877.035278	69.497009
834.790344	1049.228760	2280.945068	1901.703735	69.210335
835.093933	1052.869629	2261.031982	1884.614258	68.843781
835.397522	1044.027466	2204.264648	1841.295532	68.715958
835.700928	1044.176147	2117.999023	1782.299438	68.737900
836.004395	1041.426880	2041.392944	1729.470093	68.806656
836.307739	1045.662231	1965.752808	1689.346680	69.958817
836.611023	1042.244263	1899.771973	1641.718628	69.907288
836.914307	1045.067749	1824.651978	1591.341431	70.072441
837.217529	1044.770508	1746.411133	1537.026001	70.157784
837.520691	1050.937744	1670.473633	1487.911987	70.532516
837.823730	1055.321655	1607.316406	1449.274536	71.368958
838.126831	1059.408203	1563.998047	1407.665039	69.017807
838.429749	1052.275024	1539.700806	1386.265747	68.521347
838.732727	1043.433105	1518.301758	1359.442505	66.546700
839.035522	1036.299927	1502.772461	1350.823364	67.425926
839.338379	1041.575562	1488.729370	1342.650146	67.331322
839.641113	1048.188354	1485.757324	1353.349731	69.740181
839.943848	1059.333862	1500.840698	1368.358887	69.993256
840.246460	1055.098633	1534.202637	1389.832397	69.866615
840.549072	1051.457886	1572.617188	1407.070679	68.234947
840.851563	1050.491821	1587.328979	1414.277954	67.764709
841.154053	1059.110962	1588.592163	1415.243774	67.260712
841.456482	1063.494751	1570.982422	1401.275024	66.559303
841.758850	1055.098755	1555.453125	1381.807617	65.295494
842.061157	1057.847778	1523.874512	1355.207275	63.807392
842.363403	1053.092407	1504.333008	1342.575806	64.152779
842.665588	1054.281250	1477.807007	1330.315918	65.175415
842.967712	1047.965454	1470.525024	1322.514160	64.972778
843.269775	1052.498047	1449.051758	1307.133423	64.212074
843.571777	1056.956177	1430.698853	1291.083984	62.644119
843.873840	1060.522827	1402.686646	1274.663086	62.584133
844.175659	1063.197632	1385.671387	1255.641602	59.677406
844.477600	1061.117188	1377.646606	1258.093628	62.230057
844.779297	1055.470215	1363.603394	1253.041016	64.118637
845.081116	1053.389648	1354.538452	1268.198853	71.329918
845.382751	1051.532104	1341.609985	1257.796387	71.106522
845.684387	1049.525879	1329.052734	1253.709717	73.046234
845.985962	1051.532104	1313.597778	1234.242432	69.719292
846.287537	1056.807617	1309.511108	1226.589233	67.186096
846.588989	1060.299805	1305.498901	1226.366455	67.727272
846.890381	1061.340088	1306.762085	1215.072388	62.639984
847.191711	1059.705444	1304.755859	1218.787598	64.918129
847.493042	1066.987183	1301.486450	1210.465698	61.185059
847.794250	1059.333862	1304.681641	1217.672974	64.536598
848.095459	1059.333862	1296.211060	1208.459473	62.954819
848.396606	1050.714844	1292.570190	1208.088013	65.069130
848.697693	1053.686890	1285.139893	1211.654541	68.250420
848.998657	1053.538330	1284.025391	1214.106445	69.664696
849.299622	1051.234863	1292.941650	1214.403687	67.506927
849.600464	1046.628052	1287.740479	1202.886841	64.807442
849.901367	1044.250488	1290.563965	1197.982788	62.413273
850.202087	1047.965576	1283.282349	1202.738159	65.772018
850.502808	1050.194702	1276.000610	1204.670044	68.410675
850.803467	1048.485718	1270.130737	1205.190186	70.700645
851.104065	1045.216431	1268.644653	1207.047729	72.431000
851.404663	1044.101929	1274.737427	1204.967163	69.748688
851.705139	1043.581787	1278.081055	1206.750488	69.581757
852.005615	1037.934692	1270.130737	1189.512329	65.280022
852.306030	1035.482788	1266.266968	1188.620605	66.355423
852.606384	1034.516724	1262.849121	1185.351440	66.059273
852.906616	1046.405151	1264.409546	1189.512207	65.644112
853.206909	1049.526001	1261.140015	1188.620605	65.730339
853.506958	1056.213257	1266.712769	1186.020020	61.666065
853.807129	1051.309204	1267.530029	1188.397705	63.402081
854.107178	1050.714844	1272.211060	1191.221313	63.435154
854.407166	1047.817017	1256.979126	1190.552490	68.241554
854.707092	1052.052368	1262.626099	1188.397705	64.749451
855.007019	1050.640503	1255.864624	1180.075806	63.070221
855.306763	1051.977905	1255.567505	1181.784790	63.759094
855.606567	1052.200806	1252.075195	1181.859009	64.869843
855.906250	1048.114258	1258.093750	1187.654663	66.454300
856.205933	1038.454712	1261.957397	1188.249146	67.021309
856.505493	1035.482666	1258.613770	1198.279907	72.960350
856.805054	1045.290649	1257.647827	1202.515259	74.037811
857.104492	1063.866455	1264.929565	1198.354248	66.888351
857.403931	1063.420654	1271.245239	1187.283203	59.599564
857.703308	1063.049072	1275.777710	1183.345093	56.549049
858.002563	1051.234985	1262.180298	1179.109863	60.619919
858.301819	1052.498047	1253.412476	1179.184082	63.054722
858.601013	1047.742798	1244.050415	1177.623779	66.161964
858.900208	1047.222534	1254.378540	1177.846680	63.055931
859.199219	1039.494995	1261.362915	1179.481445	63.094498
859.498291	1041.203979	1266.489990	1176.286255	59.960346
859.797302	1039.940796	1269.610718	1173.239868	58.039413
860.096191	1045.959351	1263.443604	1167.815796	56.030010
860.395020	1047.073853	1257.350708	1165.735474	56.431137
860.693787	1050.937744	1248.954468	1166.404175	58.311455
860.992554	1054.801392	1256.161865	1168.484741	56.457630
861.291260	1053.241089	1258.911011	1168.856079	56.213856
861.589844	1058.516479	1265.746826	1174.577515	56.005810
861.888428	1058.293579	1253.486816	1177.772461	61.210564
862.186890	1054.652832	1245.685059	1183.122192	67.250099
862.485413	1046.256714	1229.189941	1179.852905	73.030029
862.783813	1046.553833	1237.586060	1187.654785	73.862381
863.082153	1050.343262	1244.124634	1194.416260	74.348221
863.380371	1054.355591	1256.607544	1197.685669	70.867096
863.678589	1056.510376	1250.143188	1183.493774	65.579483
863.976746	1061.339966	1256.087524	1174.651733	58.183922
864.274902	1061.562988	1254.006958	1176.806519	59.884201
864.572937	1061.934570	1256.087524	1182.527832	62.112503
864.870911	1055.098755	1253.189697	1179.332886	62.715706
865.168884	1059.036743	1251.406372	1173.314331	59.405212
865.466736	1053.761230	1245.090698	1164.472168	57.864029
865.764587	1063.197632	1239.740967	1174.577271	63.089123
866.062317	1058.219238	1231.567749	1176.434937	68.195396
866.360107	1063.123291	1239.518188	1189.883667	71.861702
866.657715	1055.172974	1242.341675	1190.701050	72.409584
866.955322	1052.646606	1258.985352	1193.747437	68.383102
867.252808	1045.587891	1257.499268	1187.654663	67.040657
867.550293	1049.228638	1259.876953	1180.818726	62.469090
867.847717	1053.018188	1252.149414	1179.778564	63.656704
868.145081	1055.990234	1255.715942	1175.692017	59.933086
868.442383	1053.984009	1254.601318	1178.441284	62.037155
868.739624	1054.652710	1256.904785	1180.521606	62.233673
869.036804	1046.925293	1265.523926	1186.465820	63.834126
869.333984	1046.925293	1262.477661	1191.444214	67.045853
869.631042	1046.999634	1254.229858	1188.620605	68.339920
869.928101	1058.442383	1240.261108	1187.431763	70.943947
870.224976	1051.829468	1248.582886	1181.190308	65.747696
870.521851	1052.052246	1257.647827	1186.911621	65.594490
870.818726	1045.142090	1266.712769	1194.267700	67.303856
871.115479	1053.092407	1264.632324	1204.967285	71.794907
871.412231	1053.018188	1268.570313	1203.035278	69.596664
871.708862	1051.457642	1267.009888	1195.233521	66.701172
872.005493	1042.392822	1264.632324	1188.620605	65.797386
872.302063	1040.906860	1258.390869	1190.255249	68.670975
872.598572	1043.878906	1255.121582	1191.889893	70.066803
872.895020	1048.559937	1267.604492	1190.106689	64.620071
873.191406	1039.866577	1278.006836	1185.276978	61.060822
873.487671	1039.495117	1282.539429	1186.911621	60.654167
873.783997	1040.238159	1278.675659	1192.038574	63.664658
874.080200	1050.417603	1277.932495	1193.673218	62.965378
874.376343	1052.943848	1281.053223	1201.549316	65.146584
874.672424	1054.207031	1273.622925	1202.589478	67.626114
874.968445	1055.395874	1275.777710	1215.146729	72.488213
875.264465	1055.990356	1271.096680	1207.493530	70.431763
875.560364	1052.795288	1272.805542	1204.224243	68.828133
875.856201	1044.844849	1277.115112	1195.456421	64.843246
876.152039	1046.405273	1277.115112	1201.252075	67.117554
876.447754	1050.863403	1283.951050	1195.753784	62.161331
876.743469	1058.070679	1267.084351	1199.914673	67.863503
877.039063	1056.510376	1270.799438	1200.509155	67.198380
877.334595	1062.751831	1266.564209	1207.121948	70.834816
877.630127	1067.061401	1271.170898	1202.366577	66.290482
877.925537	1067.655762	1274.143066	1196.496704	62.396545
878.221008	1056.361694	1280.755981	1192.855957	60.827869
878.516296	1045.290771	1287.889038	1203.703979	65.298576
878.811646	1039.940918	1292.644409	1215.221069	69.361984
879.106812	1045.142090	1303.864136	1229.412842	71.223442
879.401978	1044.770630	1317.387329	1226.217896	66.557648
879.697083	1044.250488	1336.185913	1232.310669	64.418419
879.992126	1044.176147	1351.566406	1245.016479	65.337250
880.287109	1042.244263	1387.380493	1269.610474	65.877235
880.582031	1042.541504	1459.008179	1316.718506	65.834076
880.876892	1040.758179	1583.539673	1399.937500	66.173836
881.171753	1046.182251	1810.757446	1547.205566	65.529633
881.466492	1049.377319	2133.454102	1769.073608	66.387947
881.761230	1051.086304	2538.255371	2031.510742	65.925552
882.055786	1047.519653	2911.254883	2278.270264	66.036774
882.350403	1045.290649	3161.655273	2436.089111	65.716385
882.644958	1041.055298	3239.969971	2490.255859	65.905266
882.939453	1039.569336	3172.428955	2461.871826	66.685234
883.233826	1036.745850	3035.860596	2376.126465	66.998688
883.528137	1036.597290	2876.258545	2270.691162	67.082672
883.822449	1035.854370	2726.315430	2168.375977	66.994835
884.116577	1038.900635	2593.313721	2082.110596	67.112785
884.410828	1042.615723	2460.980225	1999.932007	67.494377
884.704956	1040.163696	2303.458740	1889.666870	67.245033
884.999023	1036.522949	2122.903076	1761.717651	66.753311
885.292969	1029.761353	1935.511597	1638.077759	67.161606
885.586914	1040.981079	1791.884399	1533.979614	65.654060
885.880798	1048.411377	1675.674927	1456.407593	65.043823
886.174622	1053.984009	1604.270142	1396.519531	62.246803
886.468384	1054.207031	1543.564819	1358.402344	62.162148
886.762085	1054.281250	1501.509399	1325.263306	60.591457
887.055664	1061.265747	1464.283691	1303.343994	60.066368
887.349304	1057.402100	1430.327515	1291.901367	62.881008
887.642822	1051.903687	1409.151001	1277.858276	63.248787
887.936340	1042.244263	1394.364746	1274.737427	66.026596
888.229736	1042.838745	1381.138794	1254.229980	62.486317
888.523071	1044.399048	1360.482666	1251.852173	65.632355
888.816284	1052.943970	1339.529419	1237.586060	64.428284
889.109619	1053.835571	1327.789551	1230.378784	64.442650
889.402710	1060.299805	1319.913574	1222.205444	62.364040
889.695862	1055.395874	1310.551392	1211.654419	61.240513
889.988892	1059.408325	1295.096313	1206.081787	62.232048
890.281921	1064.386475	1274.142944	1191.221436	60.467724
>>>>>End Processed Spectral Data<<<<<
