Jaz Data File
++++++++++++++++++++++++++++++++++++
Date: Fri Jun 04 16:22:20 2021
User: jaz
Dark Spectrum Present: Yes
Reference Spectrum Present: Yes
Processed Spectrum Present: Yes
Spectrometers: JAZA3586
Integration Time (usec): 63200 (JAZA3586)
Spectra Averaged: 10 (JAZA3586)
Boxcar Smoothing: 1 (JAZA3586)
Correct for Electrical Dark: No (JAZA3586)
Strobe/Lamp Enabled: Yes (JAZA3586)
Correct for Detector Non-linearity: No (JAZA3586)
Correct for Stray Light: No (JAZA3586)
Number of Pixels in Processed Spectrum: 2048
>>>>>Begin Processed Spectral Data<<<<<
W	D	R	S	P
191.335022	0.000000	0.000000	0.000000	0.000000
191.713211	294.907501	299.365692	296.170685	28.333996
192.091385	595.536316	602.223572	591.078186	-66.666061
192.469528	903.743958	907.384827	893.564514	-279.588287
192.847641	913.849121	916.003967	901.589172	-568.947754
193.225739	927.520813	925.886230	913.997742	827.310425
193.603790	931.830383	930.715881	922.765564	813.351563
193.981842	939.557861	937.997559	931.013123	547.633362
194.359863	939.037659	936.957336	942.975891	-189.308762
194.737854	938.814758	947.062500	948.920105	122.522591
195.115829	942.381348	947.656921	951.743591	177.463989
195.493774	944.016113	948.325500	952.189392	189.662201
195.871704	935.768555	944.536194	950.257507	165.254898
196.249603	942.752930	949.217224	952.263672	147.127304
196.627457	936.808777	949.143005	944.387512	61.444744
197.005310	951.074890	950.554688	940.449524	2042.543701
197.383133	945.056335	939.780823	937.700378	139.435867
197.760910	951.966492	949.217285	935.396973	602.701843
198.138687	951.223450	946.988220	933.167969	426.316467
198.516449	948.325623	953.675476	931.236023	-319.440521
198.894180	941.266846	942.084167	937.477356	-463.647217
199.271866	937.031555	934.208069	936.437195	21.050583
199.649536	939.483643	929.898621	937.551758	20.155247
200.027191	942.009949	933.762390	928.709778	161.261917
200.404816	938.369080	947.211182	936.660156	-19.327116
200.782410	937.477356	960.734192	944.238953	29.073587
201.159988	935.322571	981.687561	955.755920	44.070644
201.537537	938.889160	989.563660	961.848694	45.307865
201.915070	927.446594	994.393372	955.458679	41.842319
202.292557	928.041016	987.185974	956.944763	48.869335
202.670029	927.446533	981.538879	955.607361	52.060650
203.047485	929.155579	980.721619	957.985046	55.907856
203.424911	916.152588	976.040527	958.133606	70.099289
203.802292	912.660339	973.662842	961.105774	79.415489
204.179688	913.997803	958.876648	961.031433	104.801338
204.557037	928.115295	957.762146	955.533020	92.481071
204.934357	929.824280	966.455505	948.771423	51.724022
205.311661	924.697327	972.251160	949.217285	51.562527
205.688934	922.022461	974.703125	953.081055	58.956345
206.066177	912.065857	969.278992	952.189453	70.130043
206.443390	918.381592	970.542175	943.718933	48.575649
206.820587	919.421875	966.826965	942.678650	49.059658
207.197769	927.892395	966.158386	944.387634	43.106789
207.574921	926.331970	966.158264	951.000488	61.940281
207.952042	925.217468	973.811462	948.102722	47.094818
208.329147	922.839783	976.709229	948.548523	47.724159
208.706223	937.105896	1005.835938	972.102539	50.918991
209.083267	942.827148	999.445862	972.919861	53.149765
209.460297	936.585754	997.142578	976.114929	65.276169
209.837280	921.873840	965.935364	951.372070	66.947823
210.214264	914.815125	960.288391	956.498840	91.666420
210.591217	918.827454	956.647644	948.697083	78.977997
210.968124	922.245422	967.272766	946.096619	52.970470
211.345016	928.783997	972.994141	945.502136	37.815166
211.721893	930.121521	971.210876	948.548584	44.846317
212.098724	931.013123	966.529785	948.548584	49.372494
212.475555	926.554932	967.347168	942.009949	37.887154
212.852356	926.703552	967.644348	940.672424	34.119690
213.229126	921.130859	962.666016	947.285400	62.969646
213.605865	909.985352	958.430847	950.183289	82.975594
213.982590	909.316650	962.145996	951.669250	80.168701
214.359283	912.065918	962.591797	948.697205	72.500046
214.735931	909.168152	960.065491	944.610535	69.635040
215.112579	910.282715	958.876648	947.879822	77.369957
215.489197	913.180420	964.820801	950.108887	71.510834
215.865799	922.616882	974.777405	952.263733	56.837719
216.242355	924.697449	976.635010	946.170898	41.344742
216.618896	918.976074	966.009766	944.238953	53.712303
216.995407	921.130859	958.653748	941.489746	54.257248
217.371902	916.598389	958.653748	940.078064	55.830402
217.748367	918.530273	962.368835	942.752930	55.254223
218.124802	920.387878	964.375000	943.793213	53.209515
218.501236	926.777832	959.099426	953.155334	81.609535
218.877609	919.942078	957.613464	953.972656	90.335350
219.253983	909.465332	955.384338	963.111816	116.828499
219.630295	911.768616	953.303894	953.452454	100.357674
220.006592	919.941895	948.622864	948.474182	99.481606
220.382889	929.229797	943.421631	941.564148	86.911606
220.759140	918.158691	952.040833	940.078125	64.693176
221.135391	910.728455	954.641418	941.638428	70.389175
221.511581	907.310547	964.820984	930.641602	40.568382
221.887772	911.917236	961.700195	932.870667	42.089565
222.263931	915.855286	968.238770	932.350586	31.489506
222.640060	917.118469	966.381165	942.529968	51.583656
223.016159	923.954346	965.563904	948.845764	59.821396
223.392212	923.880066	957.762024	950.108948	77.412529
223.768265	917.489990	959.768250	953.601135	85.413040
224.144302	911.099915	961.477234	947.954102	73.156311
224.520294	916.003906	972.696960	948.325500	57.011559
224.896286	922.765442	975.743347	944.907654	41.795181
225.272217	923.879944	975.817566	951.000488	52.217533
225.648148	925.143066	978.938293	955.904541	57.182533
226.024048	924.920227	982.802063	962.740417	65.340347
226.399902	923.136963	989.860840	963.706360	60.801918
226.775772	918.976074	982.504883	954.121277	55.321678
227.151581	920.462158	983.545105	945.947937	40.400425
227.527374	924.028625	981.241699	937.105896	22.857138
227.903137	918.753174	984.733948	943.570129	37.612404
228.278870	925.886230	977.526550	948.622803	44.028721
228.654572	925.886230	973.737122	953.081055	56.832432
229.030273	938.294739	966.306824	952.338074	50.133129
229.405930	929.749939	962.666016	952.709534	69.751915
229.781555	929.155579	957.910645	945.799316	57.881062
230.157181	924.697449	962.963318	943.273010	48.543419
230.532761	922.022461	962.740417	944.238953	54.561901
230.908325	915.706726	964.820801	949.514465	68.835136
231.283859	914.889343	968.387390	954.269775	73.610970
231.659332	920.239197	961.328613	952.337952	78.119278
232.034821	925.514648	959.471008	952.040771	78.118279
232.410263	920.090576	949.663086	946.393738	88.944641
232.785690	915.706726	956.573242	943.124451	67.090927
233.161087	908.425110	960.288391	949.663086	79.512856
233.536469	915.038025	960.734192	952.932434	82.926888
233.911804	914.666504	964.300781	955.904480	83.083664
234.287140	921.130859	960.882813	951.966492	77.570107
234.662430	928.338196	968.610352	950.183105	54.243210
235.037704	932.499207	972.399719	949.514465	42.644211
235.412933	928.486816	976.189148	952.635193	50.623055
235.788162	919.124573	974.554504	951.446289	58.310944
236.163345	916.747009	969.130371	949.588684	62.694859
236.538513	921.725281	970.542175	946.170715	50.075768
236.913635	917.415710	971.433777	946.765198	54.332726
237.288742	924.325928	970.764954	942.455750	39.040054
237.663834	930.047180	970.393494	938.740540	21.546850
238.038879	930.790222	971.730957	939.334961	20.870995
238.413910	920.536438	971.210754	944.684875	47.654194
238.788910	907.236267	969.799072	948.994385	66.745918
239.163879	911.397156	970.467773	952.709534	69.937271
239.538834	919.719055	966.083984	955.384460	76.923241
239.913757	926.629333	970.765076	955.607361	65.656601
240.288651	926.554993	976.709290	952.560974	51.851952
240.663528	922.394043	991.198303	952.040771	43.088509
241.038361	920.313538	985.476868	950.480469	46.294334
241.413177	922.914124	977.006409	954.715637	58.791218
241.787979	916.375488	972.548279	950.777649	61.243462
242.162735	918.976074	977.898132	951.149109	54.602699
242.537476	913.626282	983.396484	943.718811	43.130920
242.912170	923.360046	989.117859	944.164612	31.638165
243.286865	912.288879	996.771057	943.124451	36.499500
243.661514	915.855286	1001.154968	950.183289	40.243999
244.036148	912.363098	998.777161	955.755920	50.215000
244.410751	926.703552	992.164307	960.659851	51.872757
244.785339	928.709717	984.659668	959.396729	54.847252
245.159882	931.830383	984.362488	948.771484	32.249043
245.534378	928.635437	991.495422	947.062439	29.314360
245.908890	919.421875	990.306641	944.461914	35.324993
246.283356	913.774902	988.449036	954.269836	54.228863
246.657791	909.688171	989.786621	953.229675	54.359982
247.032196	915.929626	1002.640930	956.647644	46.958141
247.406586	918.827454	1004.275574	954.715637	41.999969
247.780960	924.920227	998.628601	953.229675	38.407372
248.155289	923.657043	996.845276	949.514465	35.330025
248.529602	926.109070	1001.674988	956.276062	39.921425
248.903870	921.502380	1001.377747	958.653625	46.511517
249.278122	929.601379	997.588379	958.133606	41.967178
249.652344	927.520935	1003.383972	955.384460	36.728725
250.026550	925.440430	1000.337463	950.480408	33.432537
250.400711	919.570496	1003.978333	951.372070	37.676094
250.774857	922.393982	998.257141	950.777649	37.414295
251.148987	920.907898	1003.681213	959.991211	47.217285
251.523071	916.895508	999.297302	957.687805	49.504139
251.897125	921.353760	997.662598	959.842590	50.438236
252.271164	919.273254	1001.229187	960.214050	49.954647
252.645187	919.273254	1001.972168	963.408997	53.369194
253.019165	916.524109	1004.795715	958.356445	47.390480
253.393112	929.601379	1009.848328	956.350342	33.333309
253.767044	925.143250	1011.111511	951.223450	30.337009
254.140930	918.381592	1011.260010	953.823975	38.159977
254.514801	912.140137	1000.783386	940.300964	31.768723
254.888657	915.409485	998.034180	940.003723	29.766209
255.262466	913.180420	994.839172	936.882996	29.026375
255.636276	914.963684	1000.263184	952.635071	44.163666
256.010010	921.650940	1007.247620	956.796082	41.059002
256.383759	929.304138	1010.739929	960.659851	38.503601
256.757446	927.149353	1008.808044	955.755859	35.031796
257.131134	920.685059	1006.207458	959.991150	45.959995
257.504791	912.363098	1009.551086	964.449280	53.593231
257.878418	907.979309	1010.888489	965.489563	55.884476
258.252014	908.276550	1013.712097	968.461670	57.082378
258.625580	914.517883	1020.622253	963.557678	46.218449
258.999115	915.112305	1032.139160	965.489563	43.047604
259.372650	917.118469	1051.606445	964.003479	34.861858
259.746124	912.214539	1058.219360	957.984924	31.348543
260.119598	911.545715	1068.696167	952.412292	26.004747
260.493042	912.957520	1069.810547	946.022217	21.080050
260.866425	915.929688	1073.674316	951.000488	22.232643
261.239838	918.010071	1076.274902	954.567078	23.098629
261.613159	918.455872	1070.925171	957.910645	25.877192
261.986511	923.136963	1064.089355	959.991150	26.146549
262.359802	927.000732	1051.755005	958.579346	25.312651
262.733063	926.257629	1049.600220	966.232605	32.409710
263.106293	920.684875	1044.547729	976.412109	44.991077
263.479523	920.759277	1039.643677	979.681396	49.562534
263.852692	922.393860	1038.454956	970.839355	41.741375
264.225861	923.582764	1040.981079	950.257507	22.721573
264.598969	923.137024	1043.284546	950.926270	23.129271
264.972076	915.855286	1044.324829	951.446350	27.703892
265.345154	913.403381	1043.953247	958.356445	34.433636
265.718201	910.728516	1044.027588	957.316223	34.949760
266.091217	914.592224	1046.033569	967.272766	40.079124
266.464203	918.604553	1044.993408	974.108643	43.915337
266.837158	923.731445	1050.046021	971.210876	37.588245
267.210114	922.691223	1049.228638	958.133606	28.009409
267.583038	920.982239	1058.368042	950.406067	21.416935
267.955902	920.685059	1067.581421	953.006653	22.002991
268.328766	925.366028	1071.073730	955.978821	21.009729
268.701569	922.914063	1073.971558	959.768250	24.397457
269.074371	915.632385	1073.377075	959.916809	28.073481
269.447144	911.917297	1083.779541	961.402893	28.793756
269.819885	918.010071	1097.228271	963.483398	25.373163
270.192596	922.393982	1098.119995	961.551575	22.283321
270.565277	918.827454	1105.252930	965.266602	24.910301
270.937927	914.443604	1103.098267	958.430847	23.316277
271.310577	917.861511	1107.407837	963.408997	24.029737
271.683136	927.223633	1109.413940	956.127441	15.864625
272.055725	924.325867	1120.707886	958.282227	17.290972
272.428284	927.520813	1138.986450	953.303894	12.192563
272.800812	915.483826	1149.388794	962.963318	20.298624
273.173279	923.137024	1144.336304	962.666016	17.870308
273.545776	913.477600	1138.837891	960.808533	21.002338
273.918152	922.616882	1124.794556	959.248108	18.118334
274.290558	918.753113	1122.565552	963.854980	22.129105
274.662964	920.907959	1127.692383	969.650574	23.571705
275.035278	916.375488	1125.834717	974.926086	27.953220
275.407593	914.443604	1134.602417	970.765137	25.582230
275.779907	916.747009	1131.036011	968.684631	24.237185
276.152161	913.329102	1150.503296	967.941589	23.026320
276.524384	914.963684	1155.927368	967.718689	21.893343
276.896606	906.418945	1154.515747	966.752686	24.318628
277.268799	911.991638	1154.812866	951.669250	16.340258
277.640930	904.412781	1153.921265	958.207947	21.560455
278.013031	917.118469	1164.546631	959.396729	17.087084
278.385162	920.685059	1157.785156	967.421387	19.711645
278.757233	932.201904	1160.162720	963.929199	13.917872
279.129272	932.944885	1162.986206	966.752686	14.696404
279.501282	928.561035	1173.611450	968.387390	16.252312
279.873230	917.415710	1175.171753	967.867371	19.573416
280.245178	914.740784	1183.196533	960.065430	16.883471
280.617126	917.935852	1190.849731	953.601074	13.068307
280.988983	922.765442	1201.252075	951.372070	10.272173
281.360870	919.050293	1207.270630	961.923035	14.874989
281.732697	915.706726	1211.357300	963.483398	16.159843
282.104492	921.799561	1225.920654	965.192322	14.268251
282.476288	918.307312	1232.310669	961.254211	13.677210
282.848053	919.347595	1243.678833	969.130371	15.349362
283.219757	918.455994	1244.644897	965.415100	14.396292
283.591461	920.982239	1249.028809	958.950867	11.574158
283.963135	921.353699	1251.332275	955.607239	10.380534
284.334747	916.969788	1251.109375	956.647522	11.874599
284.706360	917.341370	1263.220581	962.071594	12.932325
285.077942	918.976013	1273.920166	959.099548	11.304183
285.449524	924.920227	1276.297852	964.300781	11.207474
285.821014	926.257751	1281.721924	956.870544	8.612062
286.192535	922.839844	1295.467896	957.167664	9.212356
286.563995	925.514648	1322.514038	967.347168	10.537175
286.935425	930.195618	1333.362305	978.789734	12.053108
287.306824	934.133728	1326.452148	977.452332	11.041695
287.678223	929.229797	1323.108521	967.792969	9.790621
288.049561	920.462097	1325.114746	963.780579	10.705103
288.420898	919.867676	1326.898071	962.517517	10.478294
288.792145	918.455994	1329.052734	969.056091	12.323551
289.163452	920.239197	1319.170410	972.919739	13.205420
289.534668	917.564270	1326.154907	973.291321	13.638846
289.905914	913.031921	1327.120850	974.554504	14.857336
290.277039	916.969910	1343.021606	976.189148	13.899543
290.648193	913.329102	1352.309448	981.910400	15.622863
291.019318	923.657166	1375.269043	973.588562	11.056263
291.390381	922.245422	1384.185547	974.554504	11.323780
291.761475	931.533203	1389.981079	976.635010	9.837935
292.132507	927.446533	1380.544556	980.870300	11.790774
292.503510	930.270020	1378.018188	975.669128	10.139429
292.874481	929.824219	1379.355835	980.944519	11.371903
293.245422	926.852051	1376.012085	973.885742	10.471478
293.616364	924.623047	1384.928345	975.594727	11.073451
293.987213	916.895569	1402.166626	960.362732	8.957295
294.358093	921.799622	1429.287109	968.387390	9.180082
294.728943	916.003906	1442.290039	970.616516	10.376981
295.099731	922.914063	1456.704712	974.554504	9.674288
295.470490	916.746887	1479.441406	974.405945	10.246956
295.841248	919.050293	1507.379272	975.668945	9.623638
296.211975	916.301208	1521.571289	979.384216	10.422291
296.582642	916.821228	1531.824829	979.235535	10.148608
296.953308	918.158691	1545.645142	972.919861	8.727068
297.323883	917.489929	1557.533569	978.195313	9.484570
297.694519	917.787170	1564.889648	966.975586	7.601333
298.065063	917.489990	1567.787476	973.068359	8.546607
298.435608	920.090576	1563.700806	967.718567	7.400129
298.806122	924.771667	1552.406738	975.223206	8.038356
299.176575	931.236023	1521.571289	966.529785	5.978596
299.547028	928.263916	1508.568237	958.802246	5.262468
299.917450	925.737610	1490.066772	959.619629	6.003946
300.287872	920.164856	1496.308228	961.774414	7.222084
300.658234	922.839783	1491.255737	961.700012	6.836583
301.028564	920.016357	1489.620972	959.471008	6.926673
301.398865	924.400208	1488.877930	958.579407	6.055013
301.769135	924.846008	1482.859375	968.907471	7.896130
302.139374	924.771667	1492.072876	974.257263	8.722984
302.509583	922.022461	1484.345581	975.743347	9.553384
302.879791	921.056458	1492.964478	976.189148	9.640132
303.249939	924.251526	1488.506348	973.811523	8.783265
303.620087	920.833679	1493.558960	972.994141	9.107414
303.990173	915.112366	1483.750977	968.461670	9.381935
304.360260	913.923523	1484.568359	966.975586	9.296862
304.730286	919.941956	1484.939819	970.021973	8.863753
305.100281	922.393860	1490.735352	974.628723	9.190753
305.470276	925.737610	1493.038940	977.229492	9.076637
305.840179	920.907898	1499.726074	972.399719	8.896027
306.210144	926.926453	1514.586548	968.907532	7.143769
306.579987	921.725281	1520.456543	970.021973	8.066505
306.949890	920.907959	1529.967407	974.703125	8.832499
307.319702	919.273254	1530.338867	980.275696	9.982961
307.689484	922.319641	1532.122070	976.263428	8.846108
308.059265	921.502258	1535.911499	976.114807	8.888627
308.429016	918.233093	1553.818481	969.130432	8.007947
308.798737	920.239197	1580.716187	974.851746	8.268653
309.168396	920.313538	1611.774780	979.235535	8.521374
309.538055	922.245361	1639.638062	981.910400	8.316929
309.907684	919.124695	1655.241699	978.418213	8.054904
310.277313	927.520813	1662.894897	980.127197	7.153690
310.646851	929.824219	1666.312866	982.504883	7.152950
311.016388	931.533203	1681.321899	985.328308	7.174702
311.385895	923.211243	1682.510742	981.836121	7.720916
311.755371	919.867676	1677.161133	987.631653	8.948179
312.124817	921.799561	1680.058960	977.600891	7.359135
312.494232	923.954346	1688.677856	980.350098	7.374659
312.863617	921.725281	1686.151489	972.176819	6.599923
313.232971	919.124695	1677.161011	978.121033	7.782785
313.602295	919.198914	1671.216797	973.365662	7.202854
313.971619	922.245361	1685.334351	974.703064	6.874389
314.340820	923.731445	1685.854492	973.365540	6.512609
314.710083	918.753113	1694.919312	982.430481	8.204089
315.079285	915.929688	1698.411621	981.315979	8.356269
315.448486	915.038025	1711.563110	987.111572	9.048497
315.817596	924.028625	1707.253784	978.789734	6.991745
316.186707	925.811829	1702.944214	987.928955	7.993120
316.555786	922.468262	1688.232056	988.523376	8.626043
316.924866	912.511719	1680.207397	992.461426	10.414245
317.293884	906.121643	1662.300415	987.706055	10.789038
317.662872	904.932861	1663.340820	989.043457	11.090416
318.031830	907.682068	1669.953613	990.232239	10.829496
318.400757	908.796570	1679.835938	987.557434	10.214895
318.769684	914.517883	1680.875977	992.461426	10.170643
319.138550	925.589050	1686.746094	1000.040283	9.781323
319.507416	924.697327	1695.885254	1013.489075	11.513633
319.876190	921.725281	1703.390015	1008.362244	11.083648
320.244995	915.483826	1710.077148	1009.996887	11.894520
320.613770	922.022461	1708.591187	1008.213623	10.957868
320.982483	926.109131	1700.714844	1023.594238	12.585126
321.351166	923.434265	1684.516968	1024.634399	13.296865
321.719818	926.629211	1675.526367	1025.674683	13.225511
322.088440	928.338196	1688.826538	1015.569519	11.470435
322.457062	926.852112	1705.693237	1012.002991	10.933022
322.825623	921.725281	1726.795288	1019.879089	12.191959
323.194183	908.870911	1749.457520	1032.733521	14.735258
323.562653	911.545837	1773.680298	1052.572388	16.357838
323.931183	913.106140	1797.234375	1062.751831	16.925791
324.299591	923.731384	1831.041992	1079.767212	17.197620
324.668060	924.697327	1853.258423	1079.247070	16.644003
325.036407	924.771667	1882.905273	1076.720703	15.858857
325.404755	921.650940	1890.186890	1076.274902	15.964710
325.773102	918.158691	1908.390991	1083.259277	16.672915
326.141388	919.347595	1917.381714	1098.491333	17.949661
326.509674	913.997742	1906.310547	1103.246826	19.071514
326.877899	923.508484	1895.759399	1107.556274	18.930071
327.246124	922.468262	1899.400391	1122.714233	20.497429
327.614288	924.771667	1914.186523	1135.791382	21.327728
327.982422	910.431335	1921.542603	1154.515625	24.140202
328.350525	906.195984	1906.310547	1160.311157	25.408606
328.718628	904.561279	1898.434570	1163.952026	26.098976
329.086700	910.728455	1894.273560	1173.908569	26.758316
329.454712	910.951355	1908.985352	1184.533936	27.412151
329.822693	917.861511	1921.765625	1194.564819	27.562723
330.190674	922.542664	1931.722168	1216.335571	29.112057
330.558563	925.663330	1944.799316	1230.155884	29.877520
330.926483	923.434265	1958.842773	1242.564453	30.821671
331.294312	922.691223	1970.731079	1244.124756	30.669973
331.662231	917.712891	1990.941406	1256.830566	31.597900
332.029999	922.542542	2017.393188	1276.000610	32.283680
332.397766	918.530273	2050.829346	1301.189331	33.794876
332.765503	928.263916	2076.835205	1322.959961	34.364086
333.133240	922.691223	2084.488525	1343.467651	36.217712
333.500916	929.898499	2114.655273	1364.569458	36.688622
333.868561	925.514648	2120.971436	1381.733398	38.162712
334.236176	926.926453	2144.599365	1410.637085	39.724186
334.603790	909.985413	2142.964844	1423.045776	41.611427
334.971344	914.294983	2148.314697	1436.420044	42.310917
335.338867	910.728455	2150.097900	1444.370483	43.057545
335.706360	927.818054	2145.788086	1453.435547	43.155209
336.073853	922.691162	2152.104004	1474.463257	44.880943
336.441284	928.041016	2160.203125	1490.066895	45.612984
336.808655	923.285583	2171.422852	1507.453735	46.803200
337.176086	920.462097	2152.104004	1508.419556	47.737698
337.543396	918.678772	2124.983643	1507.750977	48.832779
337.910706	911.842957	2086.494873	1505.447388	50.534500
338.277954	917.787170	2090.952881	1522.982910	51.586548
338.645264	913.849182	2126.841064	1553.669922	52.747318
339.012421	918.307312	2192.375977	1600.480591	53.542900
339.379669	915.781067	2266.604492	1644.839355	53.971397
339.746796	915.186584	2308.957275	1683.030884	55.091148
340.113953	915.781067	2350.492432	1713.569336	55.606182
340.481018	910.877014	2356.436523	1732.739380	56.854271
340.848114	908.127869	2358.294189	1760.826050	58.800030
341.215118	903.669678	2357.253906	1786.088867	60.706436
341.582153	907.533447	2379.618896	1816.032837	61.715126
341.949066	916.895569	2400.126221	1833.791382	61.817478
342.316010	918.233093	2421.079834	1848.057251	61.870861
342.682922	922.245422	2432.225342	1873.171509	62.976074
343.049835	918.455872	2464.621338	1904.675903	63.784893
343.416656	924.251526	2491.296143	1940.787109	64.869598
343.783478	924.920349	2534.391602	1983.065430	65.744888
344.150269	924.623108	2573.400635	2031.064819	67.106789
344.516998	921.650940	2627.715820	2094.445068	68.742645
344.883728	916.969910	2667.542236	2141.924561	69.974525
345.250427	919.050293	2710.266357	2178.332764	70.303215
345.617065	912.288757	2730.402344	2202.778564	70.979599
345.983704	912.140137	2735.454834	2219.496582	71.702187
346.350281	910.059753	2721.560303	2246.394043	73.769463
346.716827	910.505554	2706.922607	2245.056641	74.289604
347.083405	908.945313	2694.662354	2251.892578	75.204933
347.449860	912.660339	2689.238281	2241.192871	74.780426
347.816376	918.381653	2669.399414	2251.223633	76.118134
348.182770	923.508484	2658.179688	2251.594971	76.561279
348.549194	916.895508	2645.919678	2254.790283	77.378601
348.915558	915.781006	2661.895020	2279.830322	78.119141
349.281921	912.808899	2668.582275	2306.356445	79.369446
349.648193	918.976013	2690.798828	2346.554443	80.571175
350.014526	917.192688	2712.940674	2378.058838	81.351402
350.380737	919.347656	2750.092529	2416.324463	81.768730
350.746948	916.747009	2786.723633	2455.482178	82.286331
351.113159	918.604675	2818.599365	2474.503662	81.889648
351.479309	921.576660	2839.849854	2501.549805	82.364342
351.845428	920.313477	2858.871338	2534.986084	83.292465
352.211517	925.886230	2874.103516	2569.908203	84.385963
352.577576	921.576660	2902.338623	2602.898682	84.882591
352.943604	920.016296	2926.561279	2634.179932	85.428619
353.309601	918.307312	2959.403076	2696.520020	87.120491
353.675537	914.443542	3009.928711	2755.293701	87.848396
354.041473	916.449707	3074.794922	2833.682861	88.828850
354.407379	912.288757	3137.878174	2880.865234	88.451912
354.773254	921.353699	3205.047852	2947.589111	88.726219
355.139038	924.771667	3251.264404	3003.390381	89.345589
355.504913	924.474426	3312.489502	3079.178955	90.229942
355.870636	922.839783	3362.495361	3151.624268	91.356522
356.236389	912.288818	3426.098389	3233.134521	92.323845
356.602081	910.356934	3498.543701	3322.743408	93.207588
356.967804	903.743958	3572.697998	3409.083008	93.869698
357.333405	912.660400	3663.718506	3492.004639	93.758263
357.699036	913.849182	3736.609375	3580.647705	94.474854
358.064606	911.991699	3811.877930	3674.640869	95.267502
358.430176	910.282715	3871.468750	3744.188477	95.701714
358.795654	909.242371	3929.202148	3804.596436	95.873924
359.161163	916.152527	3968.880127	3824.509766	95.270775
359.526581	917.341370	3983.889404	3852.892822	95.728210
359.892029	917.341309	4009.672119	3890.638916	96.150696
360.257416	919.941895	4057.523438	3969.325439	97.188980
360.622772	923.582825	4153.224609	4073.572266	97.533707
360.988098	925.514709	4274.635254	4199.144043	97.745941
361.353394	918.084473	4417.073730	4361.718262	98.417961
361.718658	912.586121	4565.976563	4522.955566	98.822433
362.083893	910.059753	4676.167480	4656.031738	99.465340
362.449097	916.969910	4764.661621	4735.015137	99.229500
362.814209	917.267029	4787.472656	4758.643555	99.255104
363.179382	920.536316	4732.562988	4668.439941	98.317879
363.544434	915.483826	4562.930176	4502.521973	98.343819
363.909546	921.205139	4359.637695	4291.576660	98.020576
364.274536	920.536438	4181.459961	4135.764160	98.598686
364.639587	927.075134	4061.386719	4014.204834	98.494667
365.004517	927.669434	3985.375000	3946.738037	98.736404
365.369507	928.858337	3938.935547	3900.224365	98.713943
365.734344	921.353760	3917.462158	3885.140625	98.921219
366.099274	919.347595	3894.502686	3873.177734	99.283234
366.464081	917.415710	3893.462158	3879.047607	99.515648
366.828918	920.833679	3893.387939	3884.323242	99.695053
367.193665	921.873840	3898.738281	3891.456299	99.755379
367.558411	925.143127	3893.314209	3910.849609	100.590782
367.923126	918.827454	3887.667236	3921.549072	101.141251
368.287781	918.530273	3882.762939	3916.645264	101.143036
368.652435	916.152527	3875.704102	3897.103516	100.723061
369.017059	918.158691	3872.806396	3884.323242	100.389786
369.381653	916.895691	3875.852783	3895.245850	100.655403
369.746185	925.291809	3876.670166	3908.322998	101.072479
370.110687	926.183411	3900.447266	3915.902100	100.519615
370.475220	919.496155	3938.935791	3918.205322	99.313431
370.839661	917.192810	3981.660156	3939.678955	98.630066
371.204041	917.341370	4016.731201	3991.170654	99.175301
371.568451	924.177246	4043.256836	4052.916016	100.309677
371.932770	918.604553	4082.711914	4090.810547	100.255951
372.297150	923.434265	4111.020996	4112.209961	100.037300
372.661377	917.415710	4134.203613	4115.627930	99.422539
373.025696	920.610657	4154.413574	4127.516113	99.168243
373.389862	917.415710	4158.054688	4121.943359	98.885674
373.754059	926.926514	4172.172363	4142.673828	99.091026
374.118225	921.948181	4182.945801	4161.620605	99.346054
374.482361	926.554932	4223.218262	4211.106445	99.632607
374.846436	920.164856	4268.097168	4252.790527	99.542801
375.210510	921.279480	4327.613281	4306.065918	99.367432
375.574524	921.725281	4390.919434	4377.099121	99.601631
375.938538	926.852112	4476.292969	4458.757324	99.505959
376.302460	926.034729	4560.032715	4550.075684	99.726006
376.666412	926.257629	4660.638184	4645.034668	99.582169
377.030304	917.787170	4742.668457	4753.145020	100.273903
377.394196	917.192810	4839.039063	4838.964844	99.998108
377.757996	919.570496	4924.933105	4889.564941	99.116982
378.121796	920.387756	4984.375000	4899.744141	97.917542
378.485565	919.124695	4995.743164	4898.927246	97.625092
378.849304	915.112305	4960.375488	4863.410645	97.603004
379.212982	916.821289	4911.409668	4802.185059	97.265686
379.576630	930.195740	4831.905762	4711.164063	96.905418
379.940277	923.657166	4754.333984	4643.325684	97.102119
380.303864	928.783997	4687.387207	4587.970215	97.354950
380.667450	924.103027	4683.151855	4589.084473	97.497574
381.030945	926.554993	4668.588379	4589.753418	97.893257
381.394501	919.793396	4698.309082	4609.517578	97.650093
381.757935	917.787170	4718.371094	4625.715332	97.562065
382.121399	921.799561	4762.581543	4651.647461	97.111679
382.484741	927.000793	4783.460449	4698.978516	97.809341
382.848145	920.462097	4807.014160	4729.665527	98.009842
383.211487	913.254822	4848.995605	4771.943848	98.042252
383.574768	901.886414	4903.310547	4832.128418	98.221077
383.938019	907.161926	4957.180176	4903.459473	98.673569
384.301270	908.499329	5023.012695	4992.994629	99.270439
384.664459	915.632507	5065.216309	5051.247559	99.663368
385.027649	914.517883	5107.420410	5101.773438	99.865318
385.390778	921.353821	5154.453613	5145.686523	99.792892
385.753876	920.387878	5201.858887	5191.531250	99.758781
386.116943	930.418701	5247.629883	5236.335449	99.738396
386.479980	925.960510	5261.598633	5274.898438	100.306755
386.842987	927.966736	5291.171387	5326.390625	100.807190
387.205994	917.118469	5330.923340	5379.070801	101.090836
387.568909	917.861511	5361.980957	5434.277832	101.626801
387.931793	917.489929	5391.256348	5483.169434	102.054489
388.294678	918.604492	5422.018066	5536.146973	102.534279
388.657471	915.929626	5458.277832	5562.599121	102.296638
389.020294	918.233093	5479.380371	5571.886719	102.028137
389.383057	917.192810	5492.531738	5581.546387	101.945534
389.745819	917.415710	5492.977051	5612.753418	102.617744
390.108521	915.558105	5520.320801	5661.272949	103.061005
390.471191	921.130859	5570.400879	5732.083496	103.477592
390.833801	917.192810	5668.926270	5825.407715	103.293144
391.196442	917.415710	5772.132324	5943.623535	103.532463
391.558960	919.421875	5867.982910	6062.136230	103.923431
391.921509	922.542664	5986.792969	6177.677246	103.769249
392.284027	922.022461	6110.210449	6304.660156	103.747932
392.646484	917.787170	6206.580566	6398.281250	103.624657
393.008911	918.084473	6207.472168	6434.689941	104.295731
393.371307	919.198975	6180.945801	6431.271973	104.757469
393.733673	916.598389	6127.745605	6388.770996	105.008980
394.096008	922.542480	6112.587402	6367.371582	104.909096
394.458344	923.582825	6129.677246	6368.783691	104.592819
394.820587	924.771667	6181.169434	6412.696777	104.404678
395.182831	918.455872	6236.821777	6444.201172	103.899307
395.545013	919.644775	6243.285645	6430.306152	103.513016
395.907196	923.434265	6201.007813	6373.316406	103.264923
396.269287	923.211365	6129.825684	6301.316895	103.293716
396.631409	925.068909	6040.216309	6220.549316	103.525467
396.993469	919.644775	5962.124512	6148.847656	103.703011
397.355530	925.960510	5898.595703	6105.975098	104.170410
397.717499	914.740784	5878.533691	6083.312500	104.125450
398.079468	919.198975	5877.270996	6081.975098	104.128700
398.441376	914.517883	5888.564941	6078.928223	103.827133
398.803284	924.325867	5905.877441	6100.253906	103.901924
399.165131	922.245361	5917.320313	6140.153809	104.461052
399.526978	924.548645	5935.450684	6157.540527	104.432137
399.888763	919.198914	5932.105957	6175.596191	104.857269
400.250519	921.205078	5962.718750	6176.636719	104.243134
400.612244	923.880066	5987.164551	6210.072754	104.402443
400.973938	922.468262	6013.467285	6215.570801	103.969818
401.335602	917.415710	6021.789063	6242.840332	104.330627
401.697205	921.056458	6032.415527	6278.580078	104.816032
402.058807	917.267090	6087.473145	6346.790527	105.015610
402.420349	918.530273	6176.785156	6433.724121	104.886391
402.781860	905.973083	6273.898438	6504.905762	104.303474
403.143341	918.381653	6361.056152	6608.037598	104.537872
403.504822	913.403381	6454.603027	6704.482910	104.509491
403.866241	918.901855	6555.580078	6853.459473	105.284660
404.227631	915.781067	6657.152344	6970.263672	105.453598
404.588959	923.211365	6792.755371	7116.789063	105.520592
404.950287	927.223694	6910.821777	7215.462891	105.091270
405.311554	928.189636	6999.687500	7283.449707	104.673676
405.672821	926.629211	7012.541504	7306.261230	104.826225
406.034027	916.969910	7017.742676	7307.746582	104.753563
406.395203	911.620117	6988.244629	7255.363281	104.395836
406.756348	907.682068	6957.335449	7204.169434	104.080132
407.117493	912.363098	6899.453125	7155.648926	104.279137
407.478516	917.118469	6864.457031	7160.998535	104.986122
407.839600	920.462097	6874.339844	7166.497559	104.907013
408.200592	920.833557	6913.645996	7174.150879	104.346954
408.561554	922.245422	6949.311035	7167.760254	103.624474
408.922485	923.285645	6959.490234	7192.354980	103.857803
409.283417	924.102966	6973.682129	7200.453613	103.748550
409.644257	923.805664	7032.455566	7279.585938	104.045578
410.005096	928.561035	7113.668457	7353.591797	103.879051
410.365906	928.932617	7198.967285	7462.890625	104.209282
410.726715	923.062683	7264.279785	7543.583496	104.404579
411.087433	918.084473	7315.920410	7621.081543	104.769753
411.448120	915.483826	7381.752441	7686.096191	104.706635
411.808807	917.712891	7414.296875	7704.449219	104.466232
412.169434	915.558105	7392.971191	7651.990723	103.998810
412.530029	917.044189	7380.935059	7610.455566	103.550812
412.890564	914.517883	7361.988281	7604.288574	103.758064
413.251099	911.322937	7400.625000	7625.836426	103.470505
413.611572	903.818359	7435.695801	7673.539063	103.641266
413.972076	907.087646	7489.342285	7714.925781	103.427139
414.332489	913.700623	7528.054688	7761.662598	103.531830
414.692871	914.220703	7620.933105	7840.052246	103.267159
415.053223	914.889465	7744.349609	7950.837402	103.023483
415.413574	918.084473	7886.861816	8136.964844	103.588905
415.773834	924.771667	7996.458984	8250.796875	103.596565
416.134094	922.542664	8077.671875	8368.195313	104.060349
416.494263	916.449707	8205.621094	8476.007813	103.709427
416.854462	920.684998	8388.925781	8718.235352	104.409470
417.214630	930.641602	8614.731445	8929.551758	104.097038
417.574738	925.960632	8828.351563	9147.110352	104.033691
417.934784	923.731445	9020.721680	9340.520508	103.949600
418.294861	916.226868	9285.090820	9610.165039	103.884331
418.654846	916.003906	9572.568359	9932.416016	104.156937
419.014832	911.025635	9902.992188	10270.865234	104.091133
419.374756	908.202148	10256.301758	10629.301758	103.990112
419.734680	917.638611	10658.205078	11034.325195	103.861382
420.094543	918.604492	11036.778320	11445.145508	104.035980
420.454376	919.941956	11364.750000	11789.242188	104.064148
420.814148	918.753113	11676.002930	12136.012695	104.276276
421.173920	925.811951	12017.127930	12486.422852	104.231194
421.533691	927.075012	12371.625000	12883.795898	104.475235
421.893341	923.731445	12654.718750	13146.975586	104.196213
422.253021	917.935852	12875.622070	13337.487305	103.862495
422.612640	917.044189	12936.030273	13412.309570	103.962723
422.972260	916.746887	12921.465820	13392.323242	103.922272
423.331757	918.827454	12819.895508	13311.332031	104.129349
423.691315	919.273254	12784.452148	13276.039063	104.143105
424.050781	923.508545	12862.320313	13352.049805	104.101997
424.410248	927.298035	12975.557617	13466.996094	104.078918
424.769653	928.189636	13120.448242	13572.208008	103.705299
425.128998	928.561035	13172.757813	13608.840820	103.561539
425.488373	920.536377	13148.832031	13578.600586	103.514542
425.847656	917.712891	13030.988281	13457.114258	103.517845
426.206940	909.688232	12882.160156	13336.297852	103.793182
426.566193	912.808899	12673.071289	13070.739258	103.381454
426.925385	913.329102	12466.139648	12804.885742	102.932152
427.284576	918.827454	12139.578125	12423.191406	102.527580
427.643677	910.133972	11884.125000	12172.940430	102.631821
428.002777	914.963684	11623.545898	11927.444336	102.837898
428.361847	909.613953	11380.352539	11686.257813	102.921524
428.720856	919.719055	11152.764648	11438.979492	102.796967
429.079865	918.976074	10971.984375	11275.660156	103.020744
429.438812	921.576721	10887.354492	11172.752930	102.863785
429.797760	927.743835	10831.850586	11095.773438	102.664780
430.156616	925.589050	10714.971680	10960.617188	102.509308
430.515503	929.378418	10643.715820	10904.147461	102.680901
430.874268	923.657166	10623.951172	10889.137695	102.733795
431.233093	915.706726	10666.229492	10905.782227	102.456818
431.591827	906.121643	10709.845703	10953.855469	102.488953
431.950562	903.223877	10716.607422	10979.639648	102.680344
432.309204	911.471497	10748.631836	11061.148438	103.176895
432.667877	920.090637	10853.250000	11144.515625	102.932259
433.026459	917.935852	10954.969727	11278.781250	103.226166
433.385010	918.084473	11100.379883	11403.015625	102.972183
433.743561	913.477600	11221.493164	11538.692383	103.077209
434.102051	919.570496	11358.062500	11645.168945	102.750458
434.460510	914.294922	11478.953125	11776.832031	102.819580
434.818939	918.530273	11558.085938	11820.299805	102.464516
435.177338	914.146301	11624.512695	11850.541992	102.110382
435.535675	919.347473	11586.543945	11797.414063	101.976807
435.894012	918.010071	11546.643555	11768.882813	102.090950
436.252289	920.016296	11530.890625	11778.467773	102.333237
436.610535	919.719055	11547.980469	11794.145508	102.316139
436.968719	927.743835	11653.118164	11909.538086	102.390778
437.326935	922.171082	11742.429688	12014.453125	102.514023
437.685028	915.112305	11881.672852	12122.934570	102.199974
438.043152	912.660339	11957.612305	12233.497070	102.497833
438.401215	918.604492	12132.445313	12437.234375	102.717972
438.759277	928.561096	12304.084961	12626.113281	102.830887
439.117249	928.561096	12597.803711	12929.342773	102.841133
439.475250	930.790222	12828.588867	13120.523438	102.453682
439.833130	924.994568	13122.604492	13453.101563	102.709526
440.191071	920.313538	13308.731445	13623.180664	102.538254
440.548889	916.226868	13508.829102	13883.389648	102.974449
440.906708	916.226868	13763.390625	14122.346680	102.794052
441.264496	912.883118	13999.524414	14335.223633	102.565208
441.622223	913.180420	14221.243164	14468.225586	101.855888
441.979950	908.796570	14298.370117	14547.358398	101.859566
442.337616	915.929688	14328.239258	14619.952148	102.174965
442.695251	910.579895	14254.976563	14554.789063	102.246727
443.052887	920.833679	14119.003906	14404.698242	102.164650
443.410461	913.403381	13999.971680	14229.714844	101.755562
443.768005	919.719055	13882.497070	14105.183594	101.717896
444.125458	916.672668	13812.950195	14042.768555	101.782051
444.482941	924.846008	13811.315430	14089.356445	102.157623
444.840393	927.149414	13867.711914	14209.058594	102.637802
445.197754	927.075012	14077.617188	14433.600586	102.706985
445.555084	921.576660	14275.040039	14650.045898	102.808304
445.912415	914.815125	14584.807617	14960.184570	102.745995
446.269714	913.180420	14814.476563	15190.522461	102.705116
446.626953	914.815125	15144.008789	15475.695313	102.331032
446.984161	908.870850	15416.997070	15764.437500	102.394798
447.341309	907.830566	15677.799805	15992.620117	102.131493
447.698456	912.957520	15807.309570	16109.573242	102.029381
448.055542	920.313477	15896.472656	16189.820313	101.958763
448.412598	920.090576	15838.367188	16140.781250	102.027138
448.769653	911.471497	15739.543945	16036.831055	102.004890
449.126617	911.248535	15523.769531	15760.945313	101.623100
449.483582	914.889343	15343.808594	15555.422852	101.466599
449.840515	914.443542	15128.554688	15320.031250	101.347084
450.197388	913.700500	14971.551758	15153.148438	101.291779
450.554230	908.350769	14836.172852	15015.762695	101.289429
450.911041	906.716125	14676.199219	14906.463867	101.672279
451.267822	907.161926	14519.867188	14787.208008	101.963905
451.624573	910.951355	14376.312500	14616.831055	101.786201
451.981262	910.208313	14268.127930	14492.745117	101.681526
452.337921	913.774902	14197.094727	14386.046875	101.422470
452.694580	914.963684	14131.782227	14359.149414	101.720284
453.051147	923.508484	14172.426758	14401.206055	101.726776
453.407715	922.096680	14149.541992	14367.992188	101.651489
453.764221	923.136963	14168.117188	14430.480469	101.980850
454.120728	924.177246	14003.907227	14224.215820	101.684349
454.477142	923.211243	13921.282227	14155.858398	101.804703
454.833557	925.068848	13778.473633	13989.567383	101.642319
455.189911	921.576660	13683.664063	13901.221680	101.704712
455.546265	921.130859	13540.854492	13760.640625	101.741608
455.902557	919.867676	13459.343750	13646.140625	101.489670
456.258820	919.496277	13433.188477	13622.363281	101.511742
456.615051	917.044189	13506.674805	13731.959961	101.789452
456.971252	910.356934	13514.475586	13749.570313	101.865211
457.327393	913.551941	13692.356445	13942.682617	101.958916
457.683502	921.873840	13900.329102	14120.860352	101.699211
458.039612	918.530273	14223.323242	14505.823242	102.123299
458.395630	919.124695	14525.735352	14836.915039	102.286972
458.751648	917.044250	14809.795898	15201.667969	102.820694
459.107605	919.867737	15325.901367	15715.545898	102.704735
459.463562	908.425110	15864.522461	16313.014648	102.998726
459.819458	906.493164	16430.486328	16859.212891	102.761703
460.175323	908.276428	16918.505859	17359.197266	102.752556
460.531158	909.168030	17432.234375	17799.662109	102.223724
460.886932	909.688171	17812.962891	18123.101563	101.834785
461.242676	909.093750	18038.470703	18238.123047	101.165558
461.598419	915.706726	17893.359375	18039.736328	100.862175
461.954102	913.849121	17520.656250	17622.673828	100.614311
462.309723	916.226868	16938.865234	17034.123047	100.594521
462.665344	917.861511	16372.160156	16475.958984	100.671654
463.020905	922.691223	15927.976563	16065.289063	100.915092
463.376373	918.604553	15574.370117	15760.350586	101.268990
463.731873	917.415710	15324.342773	15505.864258	101.259956
464.087341	915.260925	15114.511719	15260.070313	101.025116
464.442749	921.873840	15004.765625	15132.121094	100.904327
464.798126	924.474548	14899.924805	15074.833008	101.251541
465.153503	925.737610	14929.422852	15146.536133	101.550400
465.508820	922.393982	14950.375977	15187.921875	101.693375
465.864105	919.124695	15079.663086	15265.715820	101.313881
466.219330	914.517883	15291.276367	15444.043945	101.062599
466.574524	909.911133	15457.640625	15599.781250	100.977066
466.929657	904.041199	15628.016602	15783.086914	101.053185
467.284790	910.579834	15817.191406	15991.504883	101.169373
467.639893	911.025635	16047.233398	16179.937500	100.876732
467.994934	921.130798	16294.958008	16391.625000	100.628777
468.349945	918.455994	16435.017578	16460.652344	100.165207
468.704926	925.886230	16443.562500	16472.318359	100.185310
469.059875	924.103027	16206.389648	16284.704102	100.512451
469.414764	923.880066	15929.833008	16048.645508	100.791771
469.769653	927.298035	15709.971680	15834.727539	100.843933
470.124451	934.208191	15653.799805	15752.772461	100.672386
470.479248	928.932617	15557.207031	15637.898438	100.551613
470.834015	919.198975	15528.526367	15588.635742	100.411446
471.188721	906.270325	15573.256836	15656.176758	100.565353
471.543365	913.774902	15631.210938	15779.296875	101.006195
471.898010	919.050293	15695.260742	15889.933594	101.317467
472.252625	922.988464	15807.903320	15983.926758	101.182564
472.607178	923.508545	16048.125000	16172.656250	100.823364
472.961700	924.845947	16268.804688	16373.792969	100.684235
473.316193	922.393982	16526.931641	16615.425781	100.567108
473.670654	915.186584	16699.908203	16787.287109	100.553566
474.025055	916.449707	16968.214844	17047.419922	100.493439
474.379456	913.477600	17178.341797	17226.341797	100.295113
474.733795	912.511719	17303.468750	17364.322266	100.371262
475.088104	909.836853	17344.113281	17441.150391	100.590454
475.442383	918.010071	17286.306641	17444.048828	100.963707
475.796570	917.415710	17326.427734	17524.595703	101.207680
476.150787	919.867676	17465.298828	17643.181641	101.075119
476.504944	912.437439	17698.611328	17857.099609	100.944160
476.859070	919.719055	17945.816406	18095.537109	100.879356
477.213135	912.808899	18169.912109	18339.693359	100.983833
477.567200	913.774719	18534.591797	18758.763672	101.272202
477.921173	913.106140	18912.716797	19117.644531	101.138512
478.275146	915.781006	19363.585938	19556.328125	101.044800
478.629089	917.861511	19615.025391	19766.380859	100.809509
478.983002	915.558105	19996.570313	20190.576172	101.016747
479.336823	914.740784	20318.451172	20525.382813	101.066452
479.690643	914.146301	20725.628906	20917.701172	100.969498
480.044403	914.443604	21145.736328	21309.574219	100.809822
480.398163	917.489929	21721.507813	21932.083984	101.012192
480.751862	914.740723	22475.382813	22770.812500	101.370224
481.105499	915.855408	23415.537109	23783.259766	101.634346
481.459137	920.239258	24596.429688	25028.203125	101.823662
481.812744	928.784119	25987.822266	26563.148438	102.295883
482.166290	925.291809	27614.306641	28379.849609	102.868385
482.519806	919.050476	29533.250000	30564.724609	103.604767
482.873291	919.719177	31875.568359	33119.472656	104.018318
483.226715	922.245422	34760.152344	36119.816406	104.018166
483.580139	916.301086	37865.113281	39191.710938	103.590363
483.933502	913.180420	41261.042969	42486.144531	103.036346
484.286804	913.997803	44530.656250	45567.332031	102.376785
484.640106	925.291809	47548.238281	48293.871094	101.599281
484.993347	922.988464	49763.800781	50095.488281	100.679123
485.346558	924.177246	50724.906250	50754.550781	100.059525
485.699738	921.725281	50323.453125	50129.296875	99.606987
486.052887	920.833679	48576.593750	48448.718750	99.731667
486.405975	924.028625	46130.996094	46193.031250	100.137222
486.759064	926.926453	43550.605469	43935.269531	100.902466
487.112061	928.561035	41638.203125	42296.226563	101.616379
487.464996	925.589050	40771.164063	41506.835938	101.846306
487.817963	917.489929	40831.425781	41560.558594	101.826759
488.170868	916.226868	41343.816406	41908.890625	101.397743
488.523743	904.709961	41873.968750	42312.875000	101.071304
488.876587	905.675842	42240.425781	42448.921875	100.504410
489.229401	906.344727	42083.796875	42223.488281	100.339241
489.582153	916.747070	41383.566406	41433.277344	100.122841
489.934845	911.545837	40135.503906	40295.410156	100.407677
490.287537	912.957520	38756.667969	38970.515625	100.565079
490.640198	911.694336	37571.542969	37963.789063	101.069962
490.992798	920.685059	36705.246094	37231.312500	101.470093
491.345337	917.044128	36484.718750	37050.085938	101.589554
491.697876	916.226868	36640.308594	37198.691406	101.563042
492.050354	917.118469	37347.894531	37750.089844	101.103996
492.402832	924.548828	38055.402344	38303.199219	100.667358
492.755219	923.434265	38513.328125	38511.996094	99.996460
493.107605	923.285645	38356.996094	38147.910156	99.441452
493.459930	913.403381	37430.066406	37133.902344	99.188965
493.812225	922.542664	35823.792969	35481.851563	99.020264
494.164490	925.217468	33741.164063	33503.917969	99.277046
494.516724	932.127625	31664.773438	31456.501953	99.322311
494.868896	921.130859	29814.486328	29694.931641	99.586220
495.221039	912.437439	28423.318359	28315.056641	99.606476
495.573120	908.870911	27339.462891	27328.392578	99.958115
495.925201	916.598328	26799.429688	26835.021484	100.137512
496.277222	921.056458	26515.148438	26616.869141	100.397438
496.629211	921.353699	26509.056641	26581.947266	100.284866
496.981140	912.437439	26532.015625	26615.531250	100.325981
497.333069	912.140198	26686.787109	26710.119141	100.090523
497.684967	910.802734	26844.306641	26831.603516	99.951019
498.036804	914.740784	26973.000000	26900.259766	99.720856
498.388580	914.517883	26972.556641	26861.845703	99.575134
498.740326	920.016296	26891.716797	26753.736328	99.468727
499.092072	917.118469	26638.937500	26496.945313	99.447968
499.443756	907.533447	26346.333984	26213.333984	99.477173
499.795410	906.641785	26039.982422	25852.740234	99.255005
500.147003	920.239197	25727.093750	25527.443359	99.195183
500.498566	938.517639	25398.005859	25183.943359	99.124832
500.850098	931.384583	25065.427734	24840.140625	99.066521
501.201599	924.920227	24800.166016	24576.515625	99.063255
501.553009	917.415710	24524.578125	24318.388672	99.126579
501.904449	921.428040	24313.187500	24161.685547	99.352325
502.255859	925.366028	24153.658203	23972.062500	99.218216
502.607178	918.604492	24112.867188	23868.708984	98.947342
502.958405	916.969910	24043.693359	23773.380859	98.831169
503.309692	908.722229	23958.541016	23718.468750	98.958466
503.660919	916.821289	23935.283203	23753.093750	99.208519
504.012115	914.740784	24006.093750	23846.046875	99.306900
504.363251	918.901794	24145.708984	23968.126953	99.235443
504.714294	919.421875	24250.773438	24050.603516	99.142059
505.065369	929.155518	24305.384766	24114.724609	99.184387
505.416443	920.685059	24352.271484	24182.490234	99.275414
505.767395	919.496155	24392.171875	24202.255859	99.190903
506.118317	910.505554	24412.976563	24182.416016	99.018997
506.469238	914.963684	24427.314453	24159.677734	98.861717
506.820160	911.694336	24389.791016	24145.562500	98.959755
507.170929	919.719055	24350.562500	24164.287109	99.205002
507.521729	917.638611	24401.384766	24218.451172	99.221024
507.872498	916.672668	24514.771484	24297.064453	99.077438
508.223236	915.929688	24721.630859	24489.359375	99.024300
508.573883	919.942078	24860.500000	24688.640625	99.282143
508.924500	917.118469	25022.037109	24915.115234	99.556435
509.275116	917.638489	25169.601563	25100.796875	99.716293
509.625702	913.700500	25421.859375	25314.712891	99.562813
509.976196	916.895508	25709.408203	25573.287109	99.450958
510.326660	910.951355	25992.505859	25790.845703	99.195984
510.677124	913.403320	26254.125000	26022.595703	99.086327
511.027557	915.558105	26447.904297	26210.507813	99.070213
511.377869	919.050293	26630.318359	26428.662109	99.215691
511.728180	924.697327	26733.005859	26555.867188	99.313637
512.078430	930.270020	26846.021484	26628.830078	99.161934
512.428650	932.721985	26970.552734	26728.771484	99.071426
512.778931	925.217468	27094.117188	26834.353516	99.007355
513.129028	921.799561	27173.619141	26947.294922	99.137871
513.479126	918.232910	27259.515625	26965.349609	98.883247
513.829285	922.691162	27184.914063	26927.007813	99.017960
514.179382	923.880066	27146.947266	26874.773438	98.962082
514.529297	924.548767	27054.068359	26815.853516	99.088333
514.879272	924.697449	27096.791016	26842.156250	99.027077
515.229187	922.839844	26980.283203	26728.992188	99.035629
515.579163	918.307373	26973.892578	26746.750000	99.128235
515.928955	911.174316	26982.140625	26722.228516	99.003059
516.278748	912.065918	27189.593750	26899.367188	98.895531
516.628540	911.991699	27395.265625	27119.525391	98.958817
516.978333	921.279480	27744.935547	27520.611328	99.163704
517.327942	916.672668	28164.375000	28039.320313	99.541046
517.677612	924.028625	28673.123047	28547.179688	99.546135
518.027222	927.743713	29207.656250	29118.123047	99.683403
518.376831	931.013000	29903.724609	29798.587891	99.637115
518.726379	927.743835	30617.474609	30520.437500	99.673164
519.075867	923.954346	31257.445313	31087.294922	99.439064
519.425293	924.474426	31757.353516	31527.609375	99.254875
519.774658	921.948181	32094.021484	31790.343750	99.025803
520.124084	917.712891	32304.296875	31919.703125	98.774658
520.473389	915.632324	32164.904297	31695.384766	98.497505
520.822693	916.523987	31859.818359	31351.437500	98.357056
521.171997	915.632385	31325.880859	30830.056641	98.369553
521.521240	909.539612	30827.085938	30367.148438	98.462646
521.870361	913.329102	30337.281250	29952.021484	98.690651
522.219482	912.140198	29948.900391	29632.962891	98.911942
522.568604	920.239258	29691.515625	29444.906250	99.142860
522.917664	928.338196	29537.486328	29298.306641	99.163979
523.266724	930.790222	29596.630859	29328.029297	99.062988
523.615662	930.790222	29788.037109	29515.640625	99.056053
523.964600	921.650879	30152.564453	29875.414063	99.051857
524.313538	925.589050	30594.962891	30363.437500	99.219650
524.662354	922.542664	31170.734375	30953.994141	99.283463
525.011169	928.709778	31918.443359	31747.546875	99.448540
525.359985	922.245361	32865.949219	32705.085938	99.496414
525.708740	925.217468	33997.062500	33883.449219	99.656464
526.057434	916.226868	35280.941406	35162.796875	99.656204
526.406067	924.103027	36692.097656	36647.289063	99.874725
526.754700	921.502380	38162.175781	38152.738281	99.974655
527.103333	921.650879	39770.675781	39876.636719	100.272751
527.451782	916.226868	41565.980469	41712.281250	100.359909
527.800293	913.477722	43502.457031	43711.324219	100.490425
528.148743	911.248535	45532.925781	45741.425781	100.467262
528.497131	910.431213	47571.871094	47729.324219	100.337440
528.845642	913.997742	49605.464844	49617.355469	100.024422
529.193909	917.415710	51481.531250	51325.277344	99.690979
529.542175	918.530273	53022.125000	52665.996094	99.316498
529.890503	924.251465	53979.066406	53451.222656	99.005096
530.238770	924.177246	54201.605469	53419.277344	98.531593
530.586914	926.257629	53640.621094	52700.468750	98.216515
530.934998	923.731445	52130.343750	51143.308594	98.072449
531.283142	922.765442	50026.761719	49144.187500	98.202644
531.631226	918.381653	47433.593750	46718.425781	98.462509
531.979248	914.443542	45033.765625	44444.546875	98.664490
532.327148	914.072083	43016.371094	42559.187500	98.914116
532.675110	912.437439	41722.316406	41452.003906	99.337631
533.023071	909.242432	41255.472656	41010.718750	99.393364
533.370850	910.728516	41362.019531	41093.417969	99.335991
533.718689	912.511719	41934.523438	41495.621094	98.930084
534.066467	913.626282	42528.050781	42021.011719	98.781578
534.414246	917.415771	43002.847656	42355.523438	98.461884
534.761963	925.291809	43264.839844	42446.617188	98.067474
535.109619	924.697327	43151.527344	42207.511719	97.764420
535.457153	919.941956	42463.410156	41512.632813	97.711365
535.804749	914.517883	41388.027344	40491.042969	97.783775
536.152344	917.192810	40088.398438	39339.128906	98.087196
536.499817	914.740784	38923.332031	38301.191406	98.363159
536.847229	910.877014	37891.859375	37429.773438	98.750473
537.194641	914.517822	37267.421875	36742.917969	98.557190
537.542114	925.217468	36977.792969	36340.941406	98.233551
537.889404	926.109070	36708.890625	35953.675781	97.889442
538.236694	926.480652	36421.785156	35609.730469	97.712219
538.583984	926.554993	36018.691406	35268.234375	97.861465
538.931213	926.777832	35713.082031	35025.410156	98.023155
539.278381	919.793396	35321.730469	34790.539063	98.455925
539.625488	915.335266	35066.500000	34598.242188	98.628868
539.972595	916.821289	35078.312500	34655.457031	98.762184
540.319641	923.359863	35469.738281	35136.937500	99.036652
540.666687	924.548645	36289.968750	36045.066406	99.307510
541.013611	920.387756	37519.824219	37304.050781	99.410446
541.360596	915.706726	39041.250000	38763.058594	99.270325
541.707458	910.134033	40698.425781	40326.613281	99.065521
542.054260	918.753174	42255.140625	41764.593750	98.813278
542.401062	917.564270	43674.546875	43006.859375	98.438416
542.747864	918.307312	44689.000000	43785.480469	97.935791
543.094666	909.836731	45076.785156	43908.156250	97.354065
543.441284	914.294983	44650.437500	43340.183594	97.004189
543.787903	913.997742	43585.605469	42271.855469	96.921257
544.134460	919.273254	42033.792969	40865.230469	97.157784
544.481079	922.616882	40348.085938	39314.460938	97.378281
544.827637	925.143127	38587.261719	37645.324219	97.498978
545.174072	925.663269	36960.847656	36095.296875	97.598038
545.520508	918.158691	35547.683594	34762.453125	97.732483
545.866943	914.220703	34381.429688	33672.656250	97.882179
546.213318	912.288818	33529.402344	32843.882813	97.898285
546.559631	919.942078	32833.406250	32124.708984	97.779312
546.905823	926.406433	32316.484375	31587.724609	97.678375
547.252136	928.635437	31902.468750	31216.060547	97.783913
547.598389	926.852112	31611.943359	30881.992188	97.621155
547.944458	927.520813	31379.599609	30617.921875	97.498764
548.290588	923.359863	31070.349609	30185.478516	97.064812
548.636658	921.353699	30612.201172	29671.009766	96.830025
548.982727	918.604553	29989.544922	29033.044922	96.709770
549.328735	920.313477	29261.007813	28353.322266	96.797226
549.674622	919.347656	28442.041016	27570.619141	96.833809
550.020569	911.620117	27688.314453	26805.154297	96.701759
550.366455	913.552002	26905.312500	26015.759766	96.577560
550.712280	914.740784	26264.898438	25420.373047	96.668556
551.058044	919.050354	25725.978516	24951.744141	96.878960
551.403748	923.211243	25353.130859	24616.193359	96.983467
551.749512	922.468262	25139.287109	24368.171875	96.815788
552.095154	927.520813	24914.595703	24203.070313	97.033714
552.440735	922.616882	24858.867188	24189.025391	97.201561
552.786316	919.421875	24794.150391	24206.787109	97.539810
553.131897	916.003906	24892.599609	24277.076172	97.432816
553.477417	914.666504	24986.443359	24297.359375	97.137375
553.822815	920.685059	25091.283203	24341.421875	96.897629
554.168213	915.186584	25147.458984	24320.619141	96.587860
554.513672	921.948059	25147.384766	24276.333984	96.404396
554.859009	915.706726	24999.968750	24134.787109	96.407692
555.204285	926.257629	24825.728516	23941.078125	96.298454
555.549500	915.260925	24523.984375	23678.343750	96.418098
555.894714	910.802795	24248.099609	23410.484375	96.410828
556.239990	906.493225	23940.708984	23086.896484	96.293289
556.585022	918.233093	23686.890625	22824.310547	96.211548
556.930115	924.474426	23400.826172	22568.039063	96.294830
557.275146	924.325867	23126.203125	22345.429688	96.483299
557.620178	920.536377	22925.361328	22168.515625	96.560547
557.965149	924.548767	22813.908203	22016.712891	96.358070
558.310059	922.616882	22696.138672	21852.357422	96.124741
558.654968	923.657043	22565.513672	21731.912109	96.148201
558.999756	918.827454	22443.287109	21616.964844	96.161011
559.344604	921.576660	22417.281250	21609.312500	96.241257
559.689331	921.948181	22368.017578	21515.169922	96.023293
560.033997	926.852051	22324.921875	21458.923828	95.952919
560.378723	933.167786	22273.951172	21423.779297	96.016212
560.723389	933.465088	22279.224609	21460.632813	96.165085
561.067932	927.520935	22339.632813	21517.250000	96.159264
561.412476	914.666504	22369.427734	21527.429688	96.075470
561.757019	912.660339	22364.750000	21512.271484	96.026131
562.101501	914.517883	22388.078125	21511.675781	95.918694
562.445862	920.536438	22373.888672	21526.759766	96.051300
562.790222	914.666504	22382.357422	21544.220703	96.095825
563.134644	916.672668	22373.884766	21534.115234	96.086304
563.478943	919.867676	22370.171875	21491.093750	95.901794
563.823181	924.697327	22343.421875	21459.666016	95.873909
564.167358	922.914063	22327.671875	21447.851563	95.889603
564.511536	922.914063	22342.900391	21524.679688	96.180107
564.855774	918.604553	22357.984375	21547.044922	96.217522
565.199768	918.455994	22418.468750	21654.414063	96.446259
565.543823	913.849182	22528.806641	21758.585938	96.436630
565.887817	919.050354	22783.296875	21965.148438	96.258057
566.231812	924.325867	23002.859375	22218.818359	96.448853
566.575745	925.440430	23250.806641	22410.443359	96.235840
566.919617	925.663330	23489.021484	22641.970703	96.245903
567.263428	919.199036	23697.068359	22774.898438	95.951462
567.607239	918.158875	23828.064453	22910.947266	95.996857
567.950989	918.753235	23867.669922	22959.093750	96.040878
568.294678	924.697449	23871.681641	22948.023438	95.974815
568.638367	925.366028	23798.046875	22859.156250	95.895142
568.981995	911.620117	23626.406250	22687.296875	95.865646
569.325623	908.276550	23430.990234	22498.271484	95.858765
569.669128	905.007141	23244.564453	22328.265625	95.898315
570.012573	916.078308	23130.287109	22201.578125	95.819305
570.356140	919.793396	23072.853516	22137.531250	95.777908
570.699524	920.387878	23046.328125	22103.130859	95.737144
571.042908	922.839783	23105.396484	22157.443359	95.726585
571.386230	919.644714	23193.000000	22253.294922	95.781036
571.729492	923.434265	23369.320313	22409.626953	95.724411
572.072815	927.446533	23505.515625	22598.650391	95.983421
572.416016	932.201965	23655.087891	22751.716797	96.024399
572.759094	936.214294	23782.072266	22901.138672	96.144012
573.102234	936.214294	23905.265625	23000.333984	96.060211
573.445374	931.235901	23934.765625	23065.867188	96.222763
573.788391	920.833557	23973.849609	23063.861328	96.052628
574.131409	914.294922	23972.958984	23014.599609	95.843819
574.474365	908.276428	23972.583984	22949.732422	95.565216
574.817261	916.672668	23831.556641	22826.091797	95.612175
575.160156	917.564270	23654.568359	22674.068359	95.687645
575.502930	921.130859	23456.921875	22454.431641	95.551567
575.845703	918.604492	23269.458984	22283.087891	95.586876
576.188477	921.948181	23083.998047	22035.882813	95.270676
576.531250	918.307312	22897.500000	21822.931641	95.110977
576.873901	912.734619	22668.718750	21591.701172	95.049561
577.216431	909.465332	22415.125000	21378.601563	95.180229
577.559082	917.861511	22148.822266	21117.353516	95.141678
577.901611	923.211243	21877.023438	20826.904297	94.988411
578.244080	922.394043	21592.593750	20533.482422	94.876144
578.586487	920.313477	21285.798828	20238.648438	94.858223
578.928955	938.071838	20960.945313	19914.019531	94.771347
579.271301	934.653870	20610.462891	19605.292969	94.891342
579.613647	932.053284	20254.181641	19286.013672	94.989334
579.955872	921.725281	19965.513672	18973.050781	94.788521
580.298157	920.685059	19692.822266	18678.884766	94.598709
580.640320	927.892334	19437.591797	18463.927734	94.739708
580.982483	924.697449	19201.607422	18287.904297	95.000778
581.324524	930.344421	18981.224609	18118.123047	95.218506
581.666626	928.486877	18861.968750	17961.269531	94.977554
582.008728	925.811951	18765.671875	17821.134766	94.705467
582.350647	924.548828	18717.822266	17718.078125	94.381340
582.692566	924.623047	18631.556641	17620.966797	94.292686
583.034424	922.393982	18546.849609	17563.232422	94.419022
583.376343	929.601379	18459.693359	17501.412109	94.533508
583.718201	929.452820	18389.849609	17437.732422	94.546989
584.059937	928.709717	18322.976563	17349.087891	94.401093
584.401611	924.920227	18240.054688	17287.345703	94.497826
584.743347	922.096741	18186.556641	17228.646484	94.451553
585.085022	917.638611	18102.818359	17156.349609	94.492531
585.426514	911.768738	18023.685547	17057.673828	94.354752
585.768127	906.790344	17952.056641	16979.953125	94.296936
586.109619	916.672668	17846.546875	16929.501953	94.583267
586.451172	921.725281	17826.857422	16889.601563	94.455788
586.792542	931.013123	17766.970703	16827.783203	94.421547
587.133850	929.007019	17742.525391	16783.425781	94.295670
587.475220	926.183411	17696.009766	16769.677734	94.476196
587.816589	925.217529	17717.111328	16804.080078	94.562660
588.157776	922.022461	17792.529297	16840.414063	94.356331
588.498962	923.137024	17862.521484	16860.697266	94.085831
588.840210	923.954346	17908.367188	16908.029297	94.110268
589.181335	927.966614	17959.115234	16973.712891	94.214119
589.522400	925.366150	17989.876953	17049.429688	94.488869
589.863403	918.901794	18029.037109	17099.210938	94.565643
590.204407	910.877136	18066.259766	17066.814453	94.174156
590.545410	908.499329	18124.958984	17099.136719	94.041626
590.886353	912.437439	18158.619141	17102.183594	93.874382
591.227112	918.976013	18172.736328	17110.060547	93.840912
591.567932	921.427979	18134.173828	17056.859375	93.741180
591.908752	922.914063	18058.382813	16966.728516	93.629272
592.249512	923.434265	18027.771484	16956.773438	93.738434
592.590149	923.062683	17979.474609	16902.009766	93.682930
592.930786	922.245422	17936.453125	16886.554688	93.829292
593.271423	922.319641	17849.076172	16821.318359	93.928215
593.612000	922.616882	17754.708984	16729.779297	93.910858
593.952576	916.301208	17686.947266	16677.767578	93.982468
594.292969	907.533447	17693.632813	16676.578125	93.941093
594.633484	906.790466	17750.994141	16727.845703	93.925819
594.973877	909.688232	17857.320313	16798.357422	93.751556
595.314209	913.626282	17925.457031	16861.218750	93.744133
595.654480	915.409485	18039.660156	16989.986328	93.870255
595.994812	919.050293	18163.375000	17148.845703	94.116737
596.335022	924.400085	18364.585938	17379.109375	94.349388
596.675171	924.400146	18558.517578	17583.666016	94.471786
597.015320	915.335205	18797.548828	17771.798828	94.263855
597.355408	912.660339	18969.560547	17927.091797	94.226753
597.695496	914.666504	19170.771484	18028.291016	93.741928
598.035461	923.582825	19202.423828	18052.365234	93.708252
598.375366	929.229797	19210.224609	18020.267578	93.490746
598.715271	928.412415	19103.082031	17978.285156	93.811188
599.055176	933.093506	18925.794922	17799.958984	93.742821
599.395081	920.387756	18651.097656	17536.037109	93.711136
599.734802	919.347473	18291.025391	17167.865234	93.534531
600.074524	911.174255	17962.830078	16811.287109	93.246735
600.414246	920.387756	17584.853516	16461.544922	93.259262
600.753906	921.353699	17216.533203	16137.436523	93.377815
601.093506	921.799622	16852.152344	15829.598633	93.581100
601.433044	922.468262	16612.080078	15606.542969	93.591064
601.772583	926.109131	16478.857422	15491.151367	93.649315
602.112122	932.796387	16455.302734	15495.609375	93.817406
602.451538	931.310303	16487.326172	15526.444336	93.823082
602.790894	925.960449	16606.435547	15594.432617	93.546104
603.130310	914.815125	16763.064453	15717.997070	93.405785
603.469604	909.762512	16955.507813	15916.385742	93.524002
603.808838	910.951355	17175.593750	16167.083008	93.799370
604.148010	916.449768	17448.656250	16452.925781	93.977020
604.487305	919.198975	17739.552734	16738.769531	94.050163
604.826416	920.685059	18029.630859	17001.130859	93.988525
605.165527	921.873840	18283.447266	17240.238281	93.991272
605.504456	928.040955	18487.482422	17423.765625	93.942192
605.843445	928.561035	18646.417969	17510.701172	93.589989
606.182434	927.075012	18702.589844	17531.353516	93.410957
606.521423	921.650879	18611.791016	17386.539063	93.073814
606.860229	922.171082	18426.333984	17236.298828	93.201424
607.199036	923.359863	18177.789063	16985.601563	93.090546
607.537903	928.709717	17901.533203	16777.554688	93.377769
607.876648	932.350586	17565.685547	16461.767578	93.363213
608.215271	928.932617	17216.166016	16151.480469	93.463066
608.553955	915.632385	16945.480469	15853.452148	93.187531
608.892578	907.161926	16691.291016	15628.463867	93.266479
609.231140	910.579834	16557.990234	15517.752930	93.352013
609.569641	922.839844	16471.501953	15463.436523	93.516708
609.908081	922.394043	16521.283203	15495.460938	93.423744
610.246521	914.815125	16589.640625	15529.567383	93.237099
610.584961	914.815125	16690.025391	15548.143555	92.761543
610.923340	911.991638	16735.572266	15567.089844	92.615562
611.261597	920.982239	16694.113281	15500.885742	92.435059
611.599854	917.267090	16561.187500	15437.877930	92.819519
611.938110	924.623047	16418.822266	15304.131836	92.805756
612.276245	923.434143	16220.432617	15116.145508	92.781021
612.614319	920.610657	15977.090820	14839.368164	92.443634
612.952393	914.815125	15642.356445	14527.519531	92.430260
613.290466	913.254822	15334.223633	14217.454102	92.255936
613.628479	916.969971	15006.028320	13961.333008	92.585060
613.966370	925.291809	14750.502930	13744.295898	92.721939
614.304260	921.725281	14507.829102	13570.203125	93.098640
614.642151	915.038025	14325.862305	13366.614258	92.847214
614.979980	914.294983	14173.765625	13208.573242	92.720734
615.317749	916.969910	14033.778320	13044.140625	92.455193
615.655396	920.907959	13955.536133	12943.309570	92.234329
615.993164	917.118469	13870.164063	12864.030273	92.232452
616.330811	921.205139	13832.640625	12835.793945	92.279350
616.668396	920.685059	13807.081055	12835.573242	92.460983
617.005859	925.291809	13783.453125	12799.015625	92.343872
617.343445	924.623047	13778.401367	12779.028320	92.225067
617.680908	928.189514	13766.139648	12760.601563	92.167458
618.018311	922.691162	13770.151367	12779.325195	92.287766
618.355652	923.062683	13789.321289	12780.514648	92.159286
618.692993	919.719055	13816.293945	12772.042969	91.902878
619.030273	917.564270	13831.377930	12780.885742	91.865364
619.367554	914.220703	13802.399414	12777.020508	92.044037
619.704712	912.734680	13801.433594	12790.766602	92.158501
620.041870	917.415710	13794.523438	12762.754883	91.987572
620.379028	917.415710	13776.319336	12746.780273	91.993568
620.716064	923.359863	13701.421875	12678.644531	91.995834
621.053040	917.787170	13643.987305	12600.403320	91.799721
621.389954	924.325867	13590.117188	12525.878906	91.597534
621.726929	916.226868	13522.948242	12479.141602	91.720238
622.063843	905.378662	13450.129883	12431.811523	91.882515
622.400635	898.542786	13379.393555	12383.663086	92.021935
622.737427	899.805969	13333.698242	12336.406250	91.979248
623.074219	916.375488	13305.018555	12281.049805	91.734619
623.410889	916.152588	13261.327148	12231.192383	91.655571
623.747559	925.514648	13248.769531	12201.621094	91.502663
624.084167	921.799622	13198.020508	12184.753906	91.746101
624.420715	926.034851	13210.131836	12200.284180	91.779228
624.757324	923.880066	13200.471680	12210.760742	91.938225
625.093750	928.561035	13227.221680	12248.877930	92.045120
625.430176	927.520813	13263.184570	12278.078125	92.014160
625.766602	925.737610	13255.977539	12317.534180	92.389091
626.102905	928.189636	13331.171875	12408.034180	92.557129
626.439209	930.864502	13402.129883	12475.278320	92.568100
626.775452	932.424805	13570.797852	12574.992188	92.120773
627.111694	925.514648	13671.773438	12636.143555	91.875031
627.447876	924.177246	13769.854492	12729.467773	91.900879
627.783997	922.022461	13849.356445	12773.530273	91.677895
628.120056	929.081238	13925.518555	12847.535156	91.705544
628.456055	927.892334	13944.539063	12858.679688	91.657921
628.792053	929.972839	13967.053711	12879.781250	91.660156
629.128052	929.378418	13935.252930	12800.203125	91.272781
629.463928	921.651062	13889.704102	12734.148438	91.089211
629.799744	916.226868	13747.265625	12622.768555	91.236122
630.135559	912.437439	13592.643555	12520.305664	91.543213
630.471375	925.366028	13436.012695	12361.670898	91.412582
630.807068	926.629211	13262.664063	12187.207031	91.281990
631.142700	921.428040	13125.649414	12050.934570	91.193909
631.478333	905.527283	12944.127930	11919.866211	91.491852
631.813965	904.338379	12846.643555	11806.254883	91.288208
632.149475	909.762512	12717.281250	11680.239258	91.217102
632.484924	921.428040	12649.666992	11611.879883	91.151382
632.820435	922.691162	12515.698242	11543.448242	91.613480
633.155884	922.616882	12472.231445	11475.832031	91.372879
633.491150	924.548767	12418.362305	11405.022461	91.183609
633.826477	924.845947	12386.709961	11343.351563	90.897133
634.161804	924.325867	12311.218750	11287.102539	91.006180
634.497009	916.226807	12242.190430	11223.500000	91.005707
634.832153	917.787292	12160.903320	11153.581055	91.040543
635.167297	919.719055	12063.195313	11088.195313	91.250488
635.502380	920.239258	11972.768555	11057.656250	91.720337
635.837463	920.536438	11900.917969	11010.547852	91.891266
636.172424	911.768738	11855.742188	10934.981445	91.586594
636.507324	916.301086	11801.128906	10826.872070	91.049408
636.842224	918.678894	11741.389648	10752.717773	90.864838
637.177124	925.217468	11629.415039	10650.774414	90.857414
637.511963	916.969910	11520.562500	10545.265625	90.802200
637.846741	910.951355	11387.264648	10392.573242	90.505333
638.181396	914.294922	11274.026367	10285.428711	90.457306
638.516113	922.468262	11182.114258	10201.986328	90.446754
638.850769	923.285645	11082.473633	10131.473633	90.639015
639.185303	918.604492	10981.645508	10068.463867	90.925392
639.519836	919.719055	10856.742188	9971.424805	91.090721
639.854370	918.976013	10776.198242	9875.649414	90.864075
640.188843	920.907898	10694.614258	9760.479492	90.442368
640.523254	913.774902	10626.180664	9665.000977	90.103592
640.857605	914.369202	10527.284180	9589.657227	90.246178
641.191895	917.267090	10453.351563	9535.789063	90.377998
641.526184	924.251526	10385.216797	9484.519531	90.479858
641.860413	924.102966	10322.504883	9414.526367	90.339012
642.194580	922.542542	10260.314453	9357.090820	90.327202
642.528748	917.118469	10176.425781	9284.793945	90.370430
642.862793	921.502380	10111.559570	9224.237305	90.344757
643.196838	920.759338	10048.476563	9143.395508	90.084259
643.530823	921.948181	10017.194336	9096.065430	89.872414
643.864746	922.765442	9960.427734	9078.083984	90.237038
644.198669	919.644775	9913.022461	9052.375977	90.430222
644.532532	919.793396	9855.215820	9002.741211	90.459602
644.866333	911.917297	9827.649414	8960.758789	90.276840
645.200073	918.604553	9795.773438	8944.413086	90.409554
645.533813	922.616943	9775.043945	8945.750000	90.632019
645.867554	930.195801	9766.944336	8925.836914	90.481712
646.201172	929.898621	9756.244141	8898.568359	90.282776
646.534729	928.561035	9789.680664	8887.422852	89.817795
646.868225	924.474426	9800.305664	8918.852539	90.069061
647.201782	913.849121	9790.943359	8934.604492	90.353394
647.535217	914.517883	9760.702148	8943.669922	90.764008
647.868591	915.781006	9807.290039	8928.438477	90.115829
648.201965	917.712891	9823.190430	8937.428711	90.053741
648.535278	920.759277	9842.583008	8946.196289	89.952873
648.868591	928.263916	9818.583984	8930.370117	90.009201
649.201782	929.972900	9812.565430	8894.481445	89.664238
649.534912	920.090637	9764.863281	8871.448242	89.898949
649.868103	914.963684	9705.347656	8840.834961	90.165245
650.201172	916.152588	9663.292969	8833.627930	90.515015
650.534180	927.000732	9646.277344	8787.485352	90.150650
650.867188	919.421875	9648.431641	8759.250000	89.813484
651.200134	918.753113	9635.206055	8724.031250	89.546494
651.533020	916.301086	9588.542969	8691.411133	89.655128
651.865845	933.167786	9510.301758	8666.371094	90.160690
652.198608	941.192566	9457.844727	8633.827148	90.324631
652.531433	937.774658	9426.191406	8615.325195	90.447380
652.864136	927.892395	9403.901367	8574.087891	90.209854
653.196777	1185.202759	9667.452148	8822.036133	90.033119
653.529358	1196.868286	9653.409180	8783.250977	89.710236
653.861938	1190.478149	9599.911133	8736.737305	89.735657
654.194519	931.681824	9252.174805	8389.149414	89.627716
654.526978	924.623047	9192.955078	8329.631836	89.558678
654.859375	930.641602	9146.367188	8281.410156	89.471931
655.191833	929.229797	9085.366211	8247.229492	89.723854
655.524170	925.440369	9030.530273	8191.354980	89.646317
655.856445	922.616882	8974.729492	8140.011719	89.633553
656.188660	924.623047	8960.090820	8103.975098	89.345787
656.520874	922.765442	8906.444336	8084.433594	89.703857
656.853088	922.765564	8922.493164	8081.089844	89.482101
657.185181	920.090637	8893.589844	8070.315918	89.674873
657.517212	923.508484	8897.600586	8067.641113	89.591797
657.849243	929.081238	8904.808594	8086.736816	89.742981
658.181274	926.777832	8962.245117	8133.474121	89.686089
658.513123	919.719055	9036.473633	8197.819336	89.667618
658.844971	911.025696	9117.092773	8294.709961	89.978348
659.176819	910.059753	9202.168945	8388.109375	90.182724
659.508667	917.861572	9318.006836	8476.974609	89.987885
659.840393	920.833679	9416.161133	8557.815430	89.896263
660.172058	921.502380	9508.816406	8622.311523	89.676567
660.503662	919.050354	9566.995117	8661.022461	89.523842
660.835266	918.530273	9606.821289	8677.444336	89.303108
661.166931	923.359924	9568.184570	8652.625977	89.409180
661.498413	922.542664	9530.809570	8645.493164	89.715515
661.829773	927.892395	9437.262695	8557.295898	89.658852
662.161194	930.047119	9335.764648	8438.708008	89.328018
662.492615	921.948181	9186.491211	8284.531250	89.086388
662.823975	920.610657	9022.282227	8132.210938	89.013733
663.155212	913.329041	8856.141602	7988.509277	89.076508
663.486450	920.907898	8691.784180	7834.627441	88.969627
663.817627	922.096741	8539.240234	7715.445801	89.184998
664.148743	922.096863	8409.581055	7607.187012	89.283531
664.479858	921.725281	8298.945313	7521.589844	89.462761
664.810913	920.833679	8211.639648	7430.643066	89.287926
665.141907	920.610840	8158.958984	7361.468262	88.982422
665.472778	925.291809	8078.637207	7288.354004	88.952255
665.803711	924.474548	8049.584473	7257.220703	88.879280
666.134583	923.137024	7989.177246	7205.580566	88.910385
666.465454	919.496094	7986.650391	7174.447754	88.507362
666.796143	916.524109	7931.666504	7111.811035	88.313057
667.126831	919.719055	7911.976563	7096.058594	88.331123
667.457458	920.684998	7883.666504	7081.420410	88.478409
667.788147	919.124695	7868.063965	7082.757813	88.698906
668.118774	924.177246	7825.191406	7074.957031	89.128639
668.449219	921.725281	7797.104004	7077.185547	89.529037
668.779663	925.068848	7789.005859	7070.498535	89.532143
669.110107	919.941956	7789.600098	7051.476563	89.255310
669.440552	926.703552	7747.990723	7009.718750	89.176941
669.770874	927.297913	7716.783691	6980.666504	89.157982
670.101135	927.297913	7701.253906	6948.864746	88.892914
670.431396	921.428040	7688.399902	6941.211426	88.958305
670.761597	922.022461	7644.858887	6891.874512	88.799606
671.091797	927.297913	7601.763184	6871.812500	89.063530
671.421875	920.090576	7557.106934	6818.611816	88.873085
671.751892	919.941956	7541.355469	6794.909668	88.726791
672.081909	914.815186	7510.073730	6760.655762	88.637016
672.411865	918.233093	7493.429688	6716.668457	88.186493
672.741821	920.982239	7433.095703	6672.606934	88.321938
673.071716	917.935852	7395.275391	6626.316406	88.128471
673.401550	922.542664	7346.532715	6602.763184	88.422005
673.731262	917.044189	7327.808594	6573.784668	88.238152
674.060974	913.254700	7281.666504	6537.079590	88.308121
674.390625	914.220703	7250.236816	6510.255859	88.321037
674.720276	916.152588	7205.283691	6502.677246	88.828239
675.049927	917.935852	7169.915527	6472.212891	88.840294
675.379395	909.762512	7110.993652	6433.872559	89.080856
675.708923	906.567566	7059.130371	6359.421875	88.627365
676.038330	909.836914	7020.270020	6317.886230	88.505173
676.367737	913.031921	7004.592285	6289.279297	88.257309
676.697083	915.855408	6986.759277	6279.916504	88.356880
677.026428	917.341370	6966.771973	6246.555176	88.094467
677.355652	912.140198	6953.992188	6216.165527	87.788071
677.684875	914.443604	6948.122559	6195.955566	87.533859
678.013977	909.093750	6942.326172	6194.692871	87.608078
678.343079	915.260986	6930.808594	6194.395020	87.758156
678.672180	915.483887	6924.121094	6193.875000	87.846725
679.001221	919.867676	6930.734375	6209.924316	88.008217
679.330139	923.285645	6929.694824	6234.890137	88.432281
679.659058	923.211243	6948.938965	6279.396973	88.888611
679.987976	926.034851	6982.598145	6319.000488	89.043327
680.316772	922.096741	7041.074219	6368.337402	89.005730
680.645630	916.895569	7102.746094	6410.689941	88.812271
680.974304	908.350769	7159.364746	6461.067871	88.829063
681.302979	909.836853	7211.970703	6474.888184	88.304237
681.631653	909.242432	7244.068848	6485.513184	88.025627
681.960266	917.267090	7288.650879	6510.032715	87.779449
682.288757	916.821289	7321.566895	6524.150391	87.549599
682.617249	921.725281	7330.929199	6522.144531	87.380890
682.945679	915.781006	7286.050293	6484.918457	87.423897
683.274109	919.273254	7215.239746	6447.099121	87.799477
683.602478	921.205078	7148.144531	6418.863281	88.288284
683.930725	930.047058	7091.451660	6337.576660	87.764557
684.259033	927.372253	7020.714844	6278.208496	87.814468
684.587280	924.474365	6959.786621	6200.190918	87.414146
684.915344	919.198975	6875.676270	6144.463379	87.724075
685.243469	913.254700	6817.497559	6061.541504	87.196396
685.571533	911.620117	6732.569824	5989.542480	87.235291
685.899536	911.174316	6651.951172	5946.000488	87.702873
686.227539	917.341492	6572.224121	5907.140625	88.238777
686.555420	920.833679	6520.732422	5869.394531	88.368759
686.883301	919.347656	6499.185059	5835.810059	88.111214
687.211121	922.319641	6505.723145	5811.438965	87.565216
687.538940	926.554993	6507.134766	5800.292969	87.333900
687.866638	922.245422	6526.304688	5812.106934	87.255707
688.194336	917.712952	6507.803223	5814.261719	87.593376
688.521973	908.276428	6517.908691	5812.478516	87.424660
688.849609	911.322937	6513.673340	5783.872559	86.973312
689.177063	915.112305	6519.320313	5778.225098	86.776093
689.504578	921.725281	6494.949219	5746.646484	86.573250
689.832031	919.941956	6445.463379	5714.027832	86.762596
690.159485	920.090637	6364.919922	5661.050293	87.072693
690.486816	923.731445	6280.065918	5619.515137	87.667854
690.814087	931.161804	6200.265137	5553.236816	87.720337
691.141296	927.149353	6135.621582	5472.618652	87.270683
691.468506	917.787170	6038.507813	5385.758301	87.252777
691.795715	915.483826	5929.208496	5330.180176	88.052231
692.122803	915.409485	5836.404297	5274.304688	88.577522
692.449829	909.613953	5786.770020	5211.890137	88.212807
692.776855	913.997803	5738.324707	5113.662109	87.051811
693.103821	914.963684	5690.474121	5039.210449	86.362427
693.430664	917.267090	5606.511719	4975.161621	86.536209
693.757568	917.192688	5548.630371	4944.920410	86.964958
694.084351	914.666443	5486.066895	4914.679199	87.500816
694.411133	917.638489	5462.958984	4882.431641	87.228027
694.737854	911.768738	5411.913086	4848.252441	87.474602
695.064575	909.168152	5373.943848	4831.014160	87.839706
695.391174	914.889343	5333.598145	4816.376465	88.294731
695.717773	914.592224	5332.854980	4804.859375	88.049698
696.044250	919.198975	5329.362793	4777.516113	87.486931
696.370789	918.233093	5322.377441	4783.980957	87.775223
696.697205	919.050354	5324.234863	4795.794922	88.004135
697.023621	921.725281	5347.640625	4836.066895	88.441399
697.349915	920.016296	5398.092773	4868.313965	88.169495
697.676208	915.335205	5461.918457	4926.345215	88.220322
698.002380	913.180420	5545.286621	4990.319824	88.019119
698.328674	914.294983	5662.089844	5067.892090	87.484764
698.654724	919.496155	5774.807129	5169.760742	87.538460
698.980896	923.211243	5890.125488	5265.908691	87.432503
699.306946	923.359863	5983.895996	5367.703125	87.823563
699.632935	920.833557	6064.439941	5423.132324	87.531944
699.958862	914.592102	6127.522949	5463.627441	87.264450
700.284729	909.019470	6158.878418	5470.091797	86.879906
700.610596	915.260925	6158.061035	5453.671387	86.564629
700.936340	915.855286	6092.302734	5405.894531	86.739784
701.262146	919.347473	5987.685059	5316.954590	86.766266
701.587830	916.301086	5843.611816	5207.432129	87.088707
701.913513	924.102966	5701.768066	5075.619141	86.894249
702.239075	918.976074	5542.760254	4935.409668	86.864639
702.564697	918.604492	5397.943848	4802.630859	86.709801
702.890137	919.867737	5259.369629	4677.133301	86.582878
703.215698	927.298035	5138.107422	4583.363281	86.825706
703.541016	922.394043	5026.728027	4479.562500	86.668594
703.866455	921.799561	4926.270508	4402.510254	86.920616
704.191711	924.920227	4851.150391	4328.653809	86.692154
704.517029	925.366028	4792.748047	4270.623535	86.499275
704.842163	923.508545	4746.605957	4212.964355	86.041641
705.167419	917.118469	4710.940918	4179.528320	85.992683
705.492493	921.873779	4681.962891	4152.110840	85.908524
705.817566	924.771667	4636.712402	4133.460449	86.442352
706.142578	932.350525	4596.068848	4105.597168	86.612732
706.467590	932.424805	4561.741699	4089.547119	86.989433
706.792480	920.536377	4559.734863	4065.547607	86.420441
707.117371	911.843018	4550.744629	4054.104736	86.351929
707.442200	914.146423	4549.927246	4056.780029	86.436279
707.766907	916.003906	4549.406738	4061.163330	86.562363
708.091675	912.437439	4558.323242	4061.684326	86.378098
708.416321	913.551941	4563.895996	4040.656250	85.666016
708.741028	917.712891	4579.425293	4059.975342	85.814018
709.065552	927.818054	4609.146484	4073.200928	85.441521
709.390137	927.669434	4610.929688	4089.175781	85.834457
709.714600	927.520813	4615.981934	4091.999268	85.794006
710.039063	920.907898	4615.313477	4105.745605	86.207039
710.363403	918.901794	4648.601074	4136.952637	86.281776
710.687744	915.483887	4688.204590	4165.633301	86.148689
711.012085	915.706726	4733.603516	4206.500000	86.193878
711.336304	916.747009	4773.727051	4255.391113	86.561096
711.660461	918.901794	4819.125488	4295.589355	86.576767
711.984619	923.062683	4848.846680	4305.842773	86.168266
712.308716	917.638611	4869.354492	4317.285645	86.029640
712.632751	915.706726	4870.246094	4312.604004	85.898682
712.956726	916.152588	4862.369629	4312.976074	86.077972
713.280701	915.409607	4860.289551	4305.991699	85.948929
713.604553	914.220703	4822.915527	4274.264160	85.963310
713.928467	916.152588	4790.147949	4238.375488	85.757019
714.252258	913.329102	4739.250488	4174.772949	85.245972
714.575989	916.078308	4682.334473	4129.894043	85.331841
714.899719	911.099915	4608.403320	4067.925537	85.381836
715.223267	920.759277	4542.051270	4021.486084	85.624878
715.546936	922.691223	4503.934082	3985.895264	85.534660
715.870422	917.341309	4481.345703	3962.637939	85.445930
716.193970	904.932800	4461.135254	3940.496094	85.359688
716.517395	903.075195	4426.212891	3923.406250	85.728439
716.840820	910.059753	4390.547852	3908.174561	86.140640
717.164124	913.254700	4348.492676	3872.434814	86.141922
717.487488	911.694336	4320.034668	3839.221680	85.893044
717.810730	907.236267	4272.480469	3809.203369	86.233475
718.133972	915.706787	4235.031738	3777.921875	86.228828
718.457092	924.920227	4189.559082	3721.897461	85.674934
718.780212	933.910828	4137.992676	3666.021729	85.269699
719.103210	931.681824	4071.640381	3612.969971	85.392471
719.426208	924.251465	4005.139404	3581.019531	86.233841
719.749207	919.124573	3964.941650	3536.660889	85.938721
720.072083	922.245361	3923.035156	3505.750732	86.094177
720.394958	915.558167	3880.385498	3465.107422	85.993179
720.717773	915.260925	3818.936768	3417.479248	86.174164
721.040527	915.260925	3786.689453	3377.058594	85.734245
721.363281	925.960449	3758.454346	3342.879150	85.328293
721.685913	927.818054	3734.083008	3322.446289	85.331512
722.008545	924.994568	3703.470459	3308.328857	85.778473
722.331055	921.576660	3681.699463	3282.248291	85.527779
722.653503	917.415710	3659.780273	3253.864502	85.198326
722.976013	921.651062	3638.306885	3224.143555	84.754662
723.298401	925.514709	3632.585693	3209.803467	84.382301
723.620789	926.703430	3625.824219	3214.781494	84.771240
723.943115	920.833496	3608.883057	3207.871338	85.081688
724.265381	916.895508	3581.168701	3196.503174	85.562080
724.587585	916.598328	3570.543213	3178.893555	85.242737
724.909790	905.824524	3569.205811	3168.714111	84.963036
725.231873	907.459167	3565.267578	3164.924561	84.937103
725.553894	912.660400	3578.270508	3173.617920	84.819511
725.875916	991.049622	3649.898193	3236.552002	84.453941
726.197937	994.839050	3661.786865	3236.849365	84.066521
726.519775	995.879333	3653.687744	3225.629639	83.894318
726.841675	923.805725	3600.784180	3185.060547	84.470413
727.163513	919.050293	3600.338135	3197.840576	84.988647
727.485291	911.991516	3608.140381	3222.955078	85.713501
727.806946	919.793396	3619.434326	3229.344971	85.550323
728.128662	914.592285	3645.885986	3254.979248	85.687851
728.450256	912.511780	3681.031250	3265.456055	84.989265
728.771790	907.830627	3701.687500	3274.298096	84.702530
729.093323	915.335205	3714.690186	3288.935547	84.790970
729.414795	923.136963	3723.903564	3297.628906	84.780075
729.736145	923.285645	3722.120361	3301.492920	84.971336
730.057495	919.421875	3726.355713	3284.923584	84.273514
730.378845	916.969910	3714.169922	3273.109375	84.232071
730.700134	917.192688	3708.300049	3270.954346	84.330750
731.021301	921.725281	3696.188721	3261.592529	84.335846
731.342468	920.685059	3699.309326	3256.911377	84.078529
731.663574	929.229797	3702.653076	3248.812500	83.636086
731.984680	928.412598	3710.083252	3263.301514	83.938370
732.305664	931.384583	3716.101807	3280.465088	84.356163
732.626648	926.257751	3737.129639	3294.954102	84.269096
732.947571	923.508545	3753.550781	3312.638428	84.420288
733.268433	920.982239	3755.111084	3339.313232	85.328903
733.589233	919.644775	3739.582031	3341.690674	85.890060
733.909973	918.901794	3727.321533	3323.263672	85.612625
734.230713	922.468262	3713.947266	3281.208252	84.497856
734.551331	916.524109	3691.210938	3246.731689	83.980919
734.871948	917.044189	3643.433838	3213.518311	84.231323
735.192505	910.579895	3594.096924	3167.227539	84.092911
735.513062	917.118469	3561.626709	3139.512939	84.038101
735.833435	917.861511	3517.936523	3101.544189	83.985374
736.153931	917.415710	3469.713867	3073.383545	84.471626
736.474304	914.963684	3399.944092	3018.028076	84.631027
736.794617	917.341370	3361.975342	2976.121094	84.216278
737.114807	921.799500	3347.931885	2948.629150	83.541595
737.434998	919.198914	3348.377930	2943.651123	83.338943
737.755188	914.666504	3343.994141	2936.963623	83.245140
738.075256	910.802734	3335.671875	2947.291748	83.983459
738.395325	912.734680	3334.334717	2955.167969	84.342308
738.715271	909.985413	3351.349854	2983.403076	84.928642
739.035278	917.192688	3365.095703	2983.625732	84.416458
739.355164	918.678772	3383.522705	2995.514404	84.258301
739.675049	923.731445	3396.451904	2999.972412	83.965858
739.994873	917.341309	3410.940674	3021.668701	84.389153
740.314636	909.613831	3403.584961	3009.408936	84.194847
740.634277	908.127869	3377.875977	2996.405518	84.554276
740.953979	906.344543	3337.232422	2966.090088	84.732231
741.273499	911.099915	3312.266602	2938.226563	84.422569
741.593140	918.827454	3294.508545	2897.063232	83.270256
741.912598	923.582825	3263.301514	2859.540283	82.743172
742.232117	930.864502	3230.162109	2830.041992	82.598160
742.551453	928.189636	3189.964600	2805.745117	83.012482
742.870850	932.499207	3155.933594	2791.479248	83.608498
743.190063	929.007019	3112.318115	2763.838623	84.038940
743.509338	920.610657	3074.944092	2728.247314	83.907005
743.828552	915.558167	3041.061768	2681.436768	83.080482
744.147705	904.858582	3018.919678	2656.545166	82.858841
744.466797	908.870850	2992.393799	2640.198486	83.096161
744.785828	912.734558	2986.375000	2616.570068	82.166389
745.104858	925.886230	2964.827148	2598.960205	82.056030
745.423706	922.765442	2934.734375	2589.747070	82.853249
745.742615	919.867676	2903.304443	2574.663330	83.430725
746.061401	921.428040	2879.899170	2571.914307	84.274223
746.380249	925.068848	2869.496826	2540.929932	83.102135
746.698975	928.635437	2859.911377	2531.939453	83.017860
747.017639	928.115295	2860.803467	2502.738525	81.473221
747.336304	928.189514	2852.555664	2509.500000	82.173058
747.654907	920.090576	2838.066650	2502.738525	82.516563
747.973389	916.746887	2823.726318	2513.437988	83.728806
748.291931	917.564270	2815.924561	2500.881104	83.404442
748.610352	921.873840	2828.630127	2503.555908	82.951454
748.928711	929.452698	2835.020264	2514.181152	83.163071
749.247070	926.852112	2842.004883	2525.400879	83.468475
749.565308	927.892395	2836.729492	2527.258545	83.787460
749.883545	917.564270	2832.568359	2505.488037	82.920128
750.201782	917.341492	2823.949219	2496.942871	82.848785
750.519836	915.260925	2823.726318	2487.506592	82.382721
750.837952	920.462097	2822.537354	2490.701416	82.554008
751.155884	917.044189	2818.896729	2476.732666	82.008904
751.473877	920.759277	2794.971436	2462.689453	82.270844
751.791809	924.325867	2769.114014	2445.154053	82.439178
752.109619	929.675598	2752.024414	2439.804199	82.867157
752.427490	924.623047	2752.024170	2429.104736	82.329033
752.745300	915.409485	2755.516357	2431.927979	82.414696
753.062988	919.793396	2742.141846	2429.030518	82.818253
753.380615	918.753113	2723.046143	2433.116943	83.931145
753.698303	924.325867	2705.956299	2423.234619	84.131294
754.015808	917.267090	2715.690186	2417.958984	83.444878
754.333374	916.152588	2728.469971	2405.104736	82.157364
754.650757	915.855286	2722.080322	2390.467041	81.640533
754.968262	921.205078	2708.556885	2388.386719	82.086899
755.285583	925.068848	2697.114258	2389.872803	82.661758
755.602905	915.558105	2695.925537	2383.482666	82.450653
755.920105	910.282532	2682.328369	2371.817139	82.477249
756.237305	914.517883	2676.235596	2364.312744	82.294388
756.554443	915.706726	2661.672119	2365.427246	83.032600
756.871582	918.976013	2654.316162	2354.058838	82.697495
757.188599	910.951355	2640.570068	2358.591064	83.697044
757.505615	921.948181	2636.632080	2352.647217	83.438065
757.822510	924.474548	2660.334717	2368.919434	83.212051
758.139465	927.075012	2671.628662	2369.439697	82.678154
758.456238	925.589050	2697.337158	2384.671631	82.352707
758.773010	918.158752	2700.606689	2385.042969	82.296051
759.089783	916.895569	2711.974854	2396.485596	82.424774
759.406433	911.174255	2707.071045	2399.532227	82.875473
759.723145	916.969910	2721.782959	2413.947021	82.943611
760.039673	922.245361	2747.045898	2433.339844	82.808746
760.356201	919.942078	2773.274658	2443.221924	82.191391
760.672668	917.341370	2767.999023	2440.918701	82.326263
760.989136	916.449768	2748.680420	2425.389404	82.355331
761.305481	919.793396	2736.420654	2420.708252	82.620956
761.621826	923.434265	2748.085938	2418.925049	81.960342
761.938049	926.257629	2760.940674	2427.469971	81.824074
762.254333	925.886169	2782.190674	2446.194092	81.899704
762.570496	919.644714	2805.744873	2473.834717	82.402306
762.886597	913.254700	2856.939453	2505.859375	81.937393
763.202637	913.329102	2924.257813	2563.518066	82.061035
763.518677	922.616943	3018.622314	2651.641113	82.491402
763.834656	923.879944	3127.178711	2770.822998	83.826263
764.150574	918.530212	3277.270264	2894.387939	83.767509
764.466370	916.746887	3415.027344	2990.907471	83.023529
764.782288	918.678772	3513.478516	3060.380127	82.538216
765.097961	930.567200	3557.539795	3097.383057	82.483383
765.413696	925.440369	3548.549072	3090.918945	82.553902
765.729309	918.233093	3500.252686	3030.510742	81.807190
766.044861	919.793396	3383.968750	2923.589111	81.317093
766.360474	921.799622	3235.437744	2806.562500	81.463165
766.675903	926.703613	3086.832275	2684.408447	81.370377
766.991394	930.195801	2953.087158	2581.647705	81.638191
767.306763	933.613708	2848.765869	2487.729492	81.148422
767.622131	932.722107	2751.355469	2413.352295	81.414444
767.937378	924.028625	2670.662598	2342.690430	81.222618
768.252625	917.267090	2613.301025	2295.433838	81.258209
768.567810	916.449707	2556.533936	2253.898682	81.547577
768.882996	923.359863	2515.593018	2219.422119	81.399025
769.197998	928.040955	2466.479248	2184.202881	81.651756
769.513062	934.579590	2434.528564	2161.094971	81.770477
769.828064	926.109131	2385.191650	2131.893799	82.639923
770.142944	927.892395	2356.139404	2102.023926	82.207878
770.457825	919.719055	2327.086914	2075.274658	82.107574
770.772705	920.833679	2306.653564	2052.612549	81.668541
771.087402	917.861511	2288.077881	2039.312500	81.844810
771.402100	925.514648	2266.158691	2017.170288	81.427704
771.716736	921.873840	2248.771973	2006.767944	81.761665
772.031372	922.914063	2220.462646	1978.904297	81.383484
772.345947	919.496155	2200.252197	1967.833130	81.852974
772.660461	923.359863	2197.502930	1952.304077	80.755783
772.974854	920.090576	2182.568115	1943.164673	81.037010
773.289246	915.558105	2162.060547	1927.115356	81.151649
773.603638	911.174255	2144.079346	1910.620117	81.064301
773.917908	917.489990	2126.023682	1892.564453	80.682442
774.232178	925.886230	2120.005127	1876.515137	79.609238
774.546265	931.384583	2099.646484	1858.459595	79.355064
774.860474	923.805847	2096.897217	1861.283203	79.915123
775.174561	917.564392	2085.900146	1860.540039	80.711021
775.488586	911.248535	2074.754883	1855.413208	81.148216
775.802551	914.369202	2047.040039	1841.072876	81.815796
776.116516	910.877136	2030.173340	1822.868652	81.479019
776.430359	910.654114	2019.399414	1813.283569	81.409988
776.744202	908.127869	2020.216675	1798.422974	80.056114
777.057922	913.997742	2008.625366	1791.735840	80.185997
777.371704	919.719055	1998.668945	1789.209595	80.586739
777.685303	921.948181	1987.003418	1793.816406	81.861320
777.998962	923.211243	1975.635132	1794.633667	82.801476
778.312500	919.793274	1967.090454	1800.503540	84.093643
778.626038	918.307312	1970.656860	1800.577759	83.838150
778.939453	914.666504	1976.898071	1786.534668	82.078918
779.252869	914.889404	1974.223267	1768.181763	80.549896
779.566223	916.078186	1959.362793	1747.674316	79.709419
779.879578	922.691162	1954.013062	1746.411255	79.870316
780.192749	924.474426	1945.468140	1740.541382	79.928696
780.505920	926.331970	1943.610474	1747.228516	80.695358
780.819031	920.239075	1932.316406	1751.389282	82.123192
781.132141	930.567200	1943.833374	1755.996094	81.462196
781.445190	932.053284	1934.322754	1738.757813	80.487785
781.758118	939.706543	1933.505371	1720.107910	78.527100
782.071045	932.350586	1918.199097	1707.104980	78.587570
782.383911	925.737610	1919.462280	1711.191528	79.041405
782.696838	923.880066	1905.939087	1709.333984	79.980316
783.009583	926.183411	1897.542969	1698.783081	79.537971
783.322266	930.641602	1872.057007	1685.037109	80.134178
783.634888	923.731445	1854.893066	1672.776978	80.442055
783.947510	923.508545	1832.230835	1659.402710	80.981194
784.260132	924.251526	1829.481567	1656.727905	80.916046
784.572571	923.359924	1820.342407	1651.675293	81.196167
784.885010	914.369324	1817.221680	1648.628784	81.326637
785.197449	911.248596	1807.042114	1636.963257	81.013611
785.509766	917.415771	1805.704712	1634.511230	80.727722
785.822083	922.022461	1793.667847	1642.238770	82.627213
786.134277	925.068848	1789.358276	1634.808594	82.118294
786.446533	923.954285	1786.832031	1625.372070	81.288200
786.758606	918.604492	1778.658569	1606.944946	80.034554
787.070740	915.632507	1783.711060	1610.808716	80.082176
787.382690	911.025635	1791.512817	1611.625977	79.569626
787.694641	914.740723	1813.877930	1630.201660	79.571945
788.006653	919.570496	1825.469238	1634.436890	78.912392
788.318481	924.771667	1841.592896	1655.687500	79.722832
788.630310	925.960449	1856.527710	1667.575806	79.694977
788.942017	922.914063	1872.948608	1685.408569	80.259659
789.253784	922.022461	1888.998047	1698.262817	80.275070
789.565430	923.954346	1900.292114	1702.126587	79.703178
789.877014	926.629211	1901.852417	1700.194824	79.321907
790.188538	926.703552	1891.375610	1689.866699	79.111145
790.500061	924.028625	1871.685547	1680.430298	79.818092
790.811462	922.171143	1857.567993	1681.619141	81.189926
791.122925	916.226868	1833.345337	1664.083618	81.544182
791.434204	916.078308	1812.020508	1641.272827	80.942108
791.745483	916.524109	1783.116699	1611.774780	80.228088
792.056702	922.839844	1754.807251	1601.595215	81.584373
792.367920	930.047180	1742.770386	1602.041016	82.684219
792.678955	927.595215	1730.064575	1589.038086	82.425934
792.990112	926.703430	1718.101929	1574.474609	81.851456
793.301086	914.220520	1700.863647	1552.703979	81.165581
793.612122	912.511658	1687.711914	1551.366577	82.411598
793.922974	914.666504	1693.210327	1543.861938	80.816956
794.233826	927.297913	1687.860352	1544.976440	81.213387
794.544556	934.876770	1688.380737	1535.168579	79.666710
794.855286	933.242188	1684.442749	1532.345093	79.752724
795.166016	929.675598	1681.396362	1528.407104	79.648125
795.476624	923.731445	1684.665649	1535.465820	80.392548
795.787292	927.372314	1683.253906	1545.273804	81.745804
796.097778	923.211243	1701.978149	1557.607910	81.461685
796.408264	927.892395	1716.244141	1558.871094	80.037712
796.718689	925.068848	1735.562988	1569.124878	79.464615
797.029053	919.198975	1745.148071	1573.731812	79.246147
797.339355	909.465332	1749.829102	1581.904907	80.017677
797.649658	909.242371	1751.835327	1576.035156	79.135811
797.959839	912.437317	1744.999390	1569.570679	78.929054
798.270020	924.400146	1739.723999	1560.208496	77.982307
798.580078	924.697449	1726.869507	1556.864868	78.806961
798.890137	926.777832	1718.101929	1553.001099	79.136131
799.200195	922.171082	1695.811035	1542.375977	80.167122
799.510071	917.787109	1684.145508	1525.880737	79.348465
799.820007	919.421875	1665.866821	1502.103882	78.060951
800.129883	918.010071	1667.278687	1505.967407	78.470833
800.439575	921.873840	1653.161133	1505.150269	79.760231
800.749329	917.564270	1654.795898	1505.298828	79.721832
801.058960	917.192810	1642.907593	1484.865601	78.222572
801.368591	917.044250	1639.118042	1474.463257	77.196960
801.678162	922.394043	1630.573120	1466.661499	76.854492
801.987671	923.359863	1614.969604	1470.153687	79.061035
802.297119	915.260925	1608.876587	1462.500366	78.896637
802.606506	919.719055	1603.155396	1465.398071	79.843430
802.915894	923.211243	1610.882813	1456.556274	77.558105
803.225159	930.270020	1605.087280	1464.135132	79.112549
803.534424	926.406311	1593.273315	1464.358032	80.668518
803.843628	924.994568	1582.276489	1469.336304	82.817085
804.152771	929.155518	1584.356934	1471.713867	82.807869
804.461792	932.722107	1587.849243	1471.416626	82.227478
804.770874	931.310303	1587.849121	1468.964844	81.892273
805.079773	927.446594	1589.038086	1465.175415	81.278076
805.388733	925.589050	1588.220703	1465.398071	81.464417
805.697571	927.446533	1593.793457	1466.141235	80.842979
806.006470	926.629211	1596.393921	1458.785156	79.454163
806.315125	922.245422	1599.886230	1460.494141	79.429794
806.623901	913.403320	1601.743774	1464.580933	80.073402
806.932495	907.533447	1604.938599	1473.794556	81.195427
807.241150	912.883240	1608.728149	1470.079468	80.074776
807.549622	922.542542	1609.768433	1458.042358	77.921951
807.858154	924.325867	1605.161621	1443.553223	76.263229
808.166565	918.678894	1599.663208	1439.540894	76.486633
808.474915	920.462158	1590.003906	1442.141479	77.915878
808.783264	929.527039	1579.898804	1441.249878	78.681587
809.091492	932.053223	1570.165039	1424.457397	77.165817
809.399719	923.285583	1554.190063	1415.169556	77.964890
809.707825	912.957520	1541.261230	1417.398804	80.286217
810.015930	916.746887	1529.744507	1416.061157	81.454521
810.323975	920.090637	1535.688599	1406.253296	78.974052
810.632080	931.533203	1535.242798	1396.519531	77.021523
810.939880	930.418762	1537.694702	1399.194458	77.193192
811.247864	926.926514	1525.955078	1401.869507	79.285530
811.555664	918.084473	1520.456665	1395.330688	79.227798
811.863464	918.530273	1509.459839	1387.826172	79.416557
812.171143	920.090637	1513.769531	1375.640625	76.733398
812.478882	924.548828	1505.373169	1377.126587	77.919899
812.786438	914.815125	1504.778687	1377.795410	78.476082
813.094055	920.685059	1500.023315	1382.104980	79.646027
813.401489	923.508545	1502.475220	1376.680786	78.272598
813.708984	930.047180	1497.051147	1370.439453	77.670052
814.016357	926.332031	1480.258789	1362.340454	78.712288
814.323730	924.771667	1476.097778	1353.572754	77.776306
814.630981	924.994568	1467.404419	1350.080444	78.369865
814.938232	925.737610	1473.645874	1352.086548	77.813927
815.245361	921.873840	1473.200073	1346.736694	77.061966
815.552490	920.016296	1484.048218	1349.560181	76.155952
815.859619	924.474426	1484.048218	1355.133057	76.961899
816.166565	926.109070	1488.580688	1367.095703	78.401581
816.473572	924.474426	1494.450684	1365.609741	77.395386
816.780457	921.799500	1505.521851	1364.494995	75.840080
817.087341	920.833679	1501.806641	1358.030762	75.252571
817.394043	921.799500	1500.840698	1358.030762	75.336823
817.700806	920.907898	1499.577515	1356.619141	75.295341
818.007507	922.022461	1504.035767	1361.968872	75.590439
818.314209	921.353699	1513.249146	1380.841797	77.629944
818.620667	916.301086	1516.667114	1398.154297	80.259903
818.927246	917.118469	1523.428711	1408.333618	81.017128
819.233704	922.839783	1532.122070	1407.813599	79.597557
819.540161	924.548767	1549.954712	1418.216187	78.935516
819.846497	921.948181	1586.288696	1446.748413	78.995667
820.152832	916.672668	1614.821167	1486.574585	81.630470
820.458984	915.409485	1670.696777	1521.273926	80.216423
820.765259	916.078308	1734.522827	1564.221069	79.192024
821.071350	923.434265	1843.227539	1632.282227	77.066010
821.377502	923.731445	1996.439819	1746.708496	76.719551
821.683472	926.406250	2232.425049	1948.440430	78.255699
821.989441	915.483826	2570.279541	2223.806396	79.062485
822.295349	916.598328	2991.055908	2582.539795	80.307327
822.601196	917.341309	3471.274414	2970.845947	80.405579
822.907043	922.914063	3991.690674	3396.600342	80.608223
823.212769	923.211243	4509.431641	3776.733154	79.569061
823.518494	922.988342	4911.707031	4066.142334	78.801094
823.824097	923.879944	5092.856934	4163.404785	77.705513
824.129700	923.285583	5018.108887	4095.268799	77.463249
824.435242	920.239258	4818.977539	3921.029053	76.968231
824.740723	920.239258	4555.277344	3719.148438	76.998070
825.046082	923.508545	4298.857910	3504.339111	76.461136
825.351501	918.010071	3964.421875	3249.332031	76.526817
825.656799	914.666504	3600.338135	2963.341064	76.281647
825.962036	913.700623	3223.474854	2678.315918	76.397736
826.267212	919.050293	2918.164795	2449.983643	76.580574
826.572449	922.171082	2703.281494	2292.759033	76.951317
826.877502	921.502380	2602.527100	2224.028809	77.484070
827.182495	927.075012	2602.081299	2219.199463	77.141472
827.487488	927.818115	2650.675537	2262.666260	77.478737
827.792419	930.270020	2710.711670	2328.052979	78.507652
828.097290	920.982178	2779.144531	2379.173096	78.474892
828.402100	921.948059	2819.639648	2403.618408	78.077515
828.706848	922.691162	2819.268311	2378.727295	76.771782
829.011597	924.102844	2728.990479	2311.483154	76.867958
829.316223	924.846008	2614.861572	2220.016602	76.636612
829.620789	919.719055	2482.751221	2128.698486	77.348343
829.925354	922.914063	2355.098877	2035.002930	77.649818
830.229797	916.152527	2218.902100	1928.824341	77.733421
830.534302	923.062683	2075.943604	1812.094727	77.113953
830.838562	927.743713	1938.409302	1697.742798	76.187325
831.142944	933.985168	1805.333130	1598.102905	76.217285
831.447144	931.756042	1704.950195	1518.673340	75.908142
831.751404	921.205078	1646.028198	1468.964844	75.571510
832.055542	920.982178	1618.090210	1435.825806	73.854210
832.359619	913.849121	1593.719116	1419.256348	74.338806
832.663635	929.081238	1576.183594	1421.708374	76.128166
832.967651	927.223633	1582.573608	1442.735962	78.662140
833.271545	935.174072	1614.300903	1478.847046	80.054703
833.575439	922.691223	1682.064941	1521.125366	78.806274
833.879211	923.657166	1760.380005	1577.966919	78.199104
834.183044	920.090637	1856.304810	1646.473999	77.587303
834.486694	926.332031	1941.158569	1712.528931	77.471062
834.790344	935.174072	2011.746094	1776.132202	78.114433
835.093933	934.653870	2046.445679	1805.704590	78.346573
835.397522	932.647766	2057.219482	1806.744995	77.727119
835.700928	917.861511	2043.845093	1783.116821	76.844391
836.004395	916.821289	2016.947388	1752.801270	75.989471
836.307739	913.031921	1971.176880	1712.157593	75.521378
836.611023	920.387878	1911.437500	1661.260254	74.756332
836.914307	921.948181	1844.490723	1610.511353	74.637550
837.217529	922.988342	1754.881714	1559.688477	76.536270
837.520691	919.867676	1667.947388	1494.970703	76.877235
837.823730	919.793396	1574.548828	1430.475952	77.995926
838.126831	924.548767	1509.905640	1374.377441	76.846909
838.429749	917.415710	1463.614868	1339.975220	77.363632
838.732727	916.226868	1433.745239	1309.659790	76.022987
839.035522	913.180420	1418.215942	1294.427734	75.489204
839.338379	919.421814	1402.092163	1290.935547	76.970490
839.641113	914.294922	1386.117188	1289.746704	79.574837
839.943848	911.620117	1387.083130	1296.731079	80.997040
840.246460	908.870911	1391.987183	1296.210938	80.175323
840.549072	916.969910	1411.677368	1303.641235	78.161613
840.851563	925.811829	1412.791992	1319.244751	80.790337
841.154053	933.985168	1429.287109	1327.269409	79.402931
841.456482	933.836609	1434.191040	1332.619263	79.700035
841.758850	930.121521	1436.494629	1322.737061	77.534836
842.061157	922.765442	1417.101563	1313.820679	79.107155
842.363403	921.353699	1404.247070	1297.845581	77.965843
842.665588	916.821289	1383.888306	1275.554810	76.805580
842.967712	922.616882	1376.755249	1261.734497	74.672752
843.269775	923.062683	1356.619141	1245.685059	74.413002
843.571777	928.189514	1338.786377	1226.069214	72.547974
843.873840	923.211365	1302.898071	1210.391357	75.636040
844.175659	920.164856	1276.372192	1197.908569	77.972488
844.477600	920.982239	1258.762329	1194.267578	80.906288
844.779297	923.582825	1249.697388	1173.611450	76.668953
845.081116	926.926453	1244.347656	1169.822021	76.521530
845.382751	923.880066	1235.654297	1161.351440	76.167740
845.684387	918.604553	1227.778198	1157.636353	77.313126
845.985962	920.313477	1212.248901	1145.822266	77.246117
846.287537	918.976074	1206.230591	1141.958496	77.625381
846.588989	922.022461	1200.212036	1136.608765	77.136719
846.890381	915.038086	1198.280029	1124.868896	74.081825
847.191711	913.106140	1192.558716	1117.290039	73.065674
847.493042	916.821289	1192.707397	1112.906250	71.074608
847.794250	927.149353	1189.289429	1117.290039	72.534004
848.095459	930.195801	1184.088257	1108.522339	70.237038
848.396606	925.811951	1181.784790	1108.447876	71.349731
848.697693	922.319763	1172.051147	1110.156860	75.215652
848.998657	919.421875	1166.329834	1111.642944	77.851303
849.299622	921.205261	1160.534180	1114.838013	80.906540
849.600464	925.068848	1172.868530	1113.203247	75.921967
849.901367	928.858398	1172.125366	1106.887573	73.182632
850.202087	928.783997	1166.701416	1100.274780	72.079964
850.502808	923.508484	1166.552734	1101.686401	73.310898
850.803467	923.211243	1168.113159	1103.321167	73.543701
851.104065	928.783997	1170.044922	1105.550171	73.267632
851.404663	934.059570	1163.060547	1092.770142	69.305634
851.705139	932.796387	1161.574585	1090.541016	68.950897
852.005615	927.149353	1158.453735	1082.516235	67.169884
852.306030	919.198914	1154.664429	1081.699097	69.012306
852.606384	918.084412	1154.069824	1087.866089	71.945839
852.906616	917.787170	1152.286499	1088.980591	73.003799
853.206909	917.044189	1156.298950	1100.126099	76.521744
853.506958	916.375488	1157.636353	1097.153931	74.930695
853.807129	916.003967	1155.704590	1102.355225	77.743332
854.107178	918.010071	1149.537354	1101.314941	79.172035
854.407166	917.415710	1144.410522	1110.008301	84.844490
854.707092	917.341370	1145.376465	1108.670898	83.903542
855.007019	916.969910	1148.125610	1098.417114	78.495667
855.306763	916.598389	1151.617798	1090.986938	74.201767
855.606567	919.570496	1147.754150	1089.575073	74.503395
855.906250	921.725281	1153.326782	1094.330566	74.526840
856.205933	932.573486	1144.261841	1092.770142	75.675705
856.505493	933.985291	1141.289673	1090.318115	75.412216
856.805054	930.492981	1131.853394	1084.745483	76.605179
857.104492	922.839844	1136.980225	1082.219116	74.427475
857.403931	920.239258	1140.621094	1082.442017	73.600784
857.703308	921.353760	1140.546753	1079.915771	72.338997
858.002563	926.332031	1142.330078	1075.086060	68.868225
858.301819	924.400146	1135.940063	1079.246948	73.199806
858.601013	926.480652	1133.042236	1079.989990	74.316498
858.900208	919.050354	1130.813110	1088.460571	80.000008
859.199219	921.353699	1131.927612	1088.683472	79.463676
859.498291	922.765442	1132.373535	1089.426514	79.510803
859.797302	922.914063	1131.110229	1086.603027	78.622467
860.096191	921.873840	1144.559082	1088.237671	74.708061
860.395020	913.700500	1145.896606	1087.420410	74.816032
860.693787	916.152588	1135.494141	1082.516479	75.846954
860.992554	919.496277	1122.416870	1070.182129	74.258530
861.291260	924.771667	1120.559326	1070.553711	74.459259
861.589844	924.771667	1128.881226	1073.822876	73.025101
861.888428	924.251526	1135.642700	1078.429688	72.935005
862.186890	924.102966	1136.980225	1086.454346	76.265251
862.485413	921.502380	1137.203247	1088.460571	77.402649
862.783813	922.245361	1133.265015	1090.541016	79.753548
863.082153	920.313477	1137.723267	1088.163452	77.204422
863.380371	924.994568	1139.060669	1082.516235	73.585526
863.678589	919.273254	1146.119507	1084.373901	72.780861
863.976746	922.988342	1144.187622	1082.219116	71.985214
864.274902	915.855408	1139.283569	1081.253174	74.027267
864.572937	914.666504	1138.317627	1079.544312	73.720985
864.870911	913.997803	1134.231079	1087.346069	78.711205
865.168884	915.706726	1137.351685	1091.581299	79.349686
865.466736	918.901672	1132.522095	1098.640015	84.139122
865.764587	913.626160	1143.147339	1091.135376	77.338928
866.062317	908.870789	1147.605591	1097.822632	79.147171
866.360107	911.025635	1149.834595	1088.609131	74.362160
866.657715	913.700500	1138.540527	1085.488525	76.404556
866.955322	911.248535	1137.351685	1080.658813	74.926102
867.252808	907.607727	1140.992554	1086.008545	76.440620
867.550293	908.127869	1147.234009	1089.426392	75.823448
867.847717	915.706726	1147.531372	1089.129272	74.807640
868.145081	916.152527	1133.413696	1087.717651	78.967232
868.442383	912.808899	1129.252808	1090.243774	81.977303
868.739624	912.437317	1128.138306	1093.067383	83.740952
869.036804	920.982178	1133.413696	1093.290161	81.112251
869.333984	931.830383	1137.574585	1095.444946	79.523293
869.631042	934.505310	1133.190796	1091.581299	79.057610
869.928101	929.081238	1137.648926	1089.426514	76.879250
870.224976	920.759277	1138.837769	1079.544312	72.810959
870.521851	921.205078	1147.308228	1084.299683	72.132835
870.818726	920.090576	1143.296021	1085.785767	74.234383
871.115479	921.576660	1135.791382	1086.825806	77.141823
871.412231	920.090576	1125.166138	1075.011841	75.543503
871.708862	920.759277	1125.166138	1074.194458	75.063614
872.005493	922.393982	1134.973999	1072.559692	70.639618
872.302063	929.527039	1146.268066	1080.064331	69.454910
872.598572	926.554871	1153.103882	1080.064331	67.759933
872.895020	916.523987	1156.298950	1093.661743	73.876671
873.191406	914.963684	1160.905640	1102.503784	76.253807
873.487671	917.192688	1162.763306	1103.469727	75.854774
873.783997	924.920227	1157.710693	1101.760864	75.965584
874.080200	923.136963	1153.029663	1095.519409	74.983871
874.376343	919.198914	1153.698364	1104.658569	79.087456
874.672424	922.542542	1162.688965	1107.184937	76.887421
874.968445	923.136963	1162.986206	1111.865967	78.686516
875.264465	925.886230	1173.611450	1111.048706	74.745102
875.560364	919.496155	1180.818848	1105.698853	71.253937
875.856201	911.471497	1182.082031	1102.503784	70.593071
876.152039	907.682068	1178.812866	1098.862915	70.512405
876.447754	909.762512	1170.936646	1094.553345	70.753883
876.743469	915.855286	1173.165771	1096.856812	70.343628
877.039063	918.604492	1166.924316	1096.411011	71.603836
877.334595	923.359863	1164.992310	1100.051758	73.124245
877.630127	928.783997	1166.626953	1097.599731	70.977814
877.925537	935.991394	1171.902466	1103.989746	71.212578
878.221008	940.226563	1176.657837	1102.800903	68.761772
878.516296	933.465088	1180.224487	1111.420044	72.116791
878.811646	934.505371	1193.375977	1105.401489	66.016037
879.106812	929.155518	1205.264404	1127.246460	71.743774
879.401978	926.183411	1217.227173	1133.710815	71.304535
879.697083	925.143250	1221.685425	1148.720093	75.394623
879.992126	922.468262	1239.592285	1155.704468	73.547318
880.287109	916.821289	1271.468262	1184.311157	75.424263
880.582031	906.938965	1335.219849	1230.675903	75.589867
880.876892	910.877014	1429.435669	1308.842407	76.744530
881.171753	919.570496	1593.050293	1412.420288	73.179596
881.466492	927.149353	1823.314453	1585.991577	73.517952
881.761230	929.527039	2116.141602	1795.153931	72.949295
882.055786	925.886230	2437.054932	2048.600342	74.294426
882.350403	922.988464	2727.429932	2263.558350	74.292786
882.644958	918.381653	2975.155273	2439.655518	73.964088
882.939453	917.489990	3112.763916	2519.456787	72.973434
883.233826	917.415710	3159.351563	2537.289307	72.253342
883.528137	918.307373	3109.494385	2511.803467	72.722961
883.822449	917.118469	3049.011963	2475.989746	73.121445
884.116577	911.397217	2969.508057	2415.432861	73.078461
884.410828	911.843018	2856.493408	2325.823975	72.711319
884.704956	921.353699	2671.108643	2192.747803	72.661263
884.999023	926.332031	2431.407959	2037.083496	73.800362
885.292969	917.935791	2188.958252	1853.630005	73.617439
885.586914	907.013367	1955.722046	1691.575806	74.812233
885.880798	904.487061	1785.717407	1555.007324	73.819550
886.174622	912.140198	1655.316040	1455.590210	73.125359
886.468384	923.508545	1566.301392	1376.755005	70.512054
886.762085	927.446594	1494.302124	1328.012573	70.664566
887.055664	926.406433	1437.088867	1291.752808	71.540817
887.349304	924.028625	1396.519653	1268.941772	72.998878
887.642822	917.341370	1366.947266	1247.245361	73.376259
887.936340	913.774902	1344.210571	1229.710083	73.398933
888.229736	906.493164	1324.520264	1213.214844	73.373634
888.523071	918.976013	1302.378052	1202.589722	73.972923
888.816284	922.468262	1278.675415	1192.707275	75.865692
889.109619	931.087402	1261.511597	1172.496948	73.060493
889.402710	929.675598	1240.483887	1156.076172	72.842514
889.695862	928.783997	1222.056763	1141.141235	72.409462
889.988892	921.205139	1214.775269	1138.614868	74.057167
890.281921	910.356934	1222.205444	1124.794678	68.763435
>>>>>End Processed Spectral Data<<<<<
