Jaz Data File
++++++++++++++++++++++++++++++++++++
Date: Fri Jun 04 14:54:46 2021
User: jaz
Dark Spectrum Present: Yes
Reference Spectrum Present: Yes
Processed Spectrum Present: Yes
Spectrometers: JAZA3586
Integration Time (usec): 138000 (JAZA3586)
Spectra Averaged: 10 (JAZA3586)
Boxcar Smoothing: 1 (JAZA3586)
Correct for Electrical Dark: No (JAZA3586)
Strobe/Lamp Enabled: Yes (JAZA3586)
Correct for Detector Non-linearity: No (JAZA3586)
Correct for Stray Light: No (JAZA3586)
Number of Pixels in Processed Spectrum: 2048
>>>>>Begin Processed Spectral Data<<<<<
W	D	R	S	P
191.335022	0.000000	0.000000	0.000000	0.000000
191.713211	291.266663	290.003540	287.180054	323.532257
192.091385	583.202087	588.403259	579.709900	-67.142319
192.469528	880.412903	884.796875	880.412903	0.000000
192.847641	890.889648	889.106384	890.963867	-4.161961
193.225739	901.886475	892.004150	900.177429	17.293962
193.603790	917.267090	903.149597	901.812195	109.473373
193.981842	927.595215	919.124695	916.449768	131.579254
194.359863	942.975830	928.115234	925.514709	117.499466
194.737854	944.461914	937.625977	934.653992	143.475891
195.115829	942.901550	937.328796	929.452820	241.330063
195.493774	940.598145	937.848938	933.687988	251.350937
195.871704	941.489746	940.598145	932.424805	1016.703186
196.249603	942.158447	941.564026	940.449463	287.503845
196.627457	938.443359	944.907715	934.208069	-65.517601
197.005310	929.304138	944.313293	934.579590	35.148224
197.383133	935.917053	952.412354	929.601318	-38.288086
197.760910	939.409241	955.310059	938.220459	-7.476230
198.138687	946.988220	953.749695	936.882996	-149.452972
198.516449	940.003723	943.347351	935.025391	-148.890152
198.894180	931.681824	932.499207	920.462097	-1372.640381
199.271866	929.601318	921.279480	922.691223	83.035683
199.649536	929.304138	920.313538	921.205139	90.082962
200.027191	931.087402	921.353760	937.328796	-64.121872
200.404816	932.350586	929.378479	937.700256	-179.995895
200.782410	934.133850	941.564148	944.684753	141.998383
201.159988	935.917053	955.533020	936.585754	3.408964
201.537537	929.972839	965.192383	931.458923	4.219487
201.915070	923.211365	965.861084	930.492981	17.073069
202.292557	916.003906	964.820801	930.418701	29.528292
202.670029	920.907898	957.762146	942.678711	59.072739
203.047485	923.805725	955.087219	937.180237	42.755348
203.424911	924.920227	958.505066	937.031555	36.061890
203.802292	917.341370	966.604187	927.520813	20.663544
204.179688	918.307373	962.740417	935.694153	39.130291
204.557037	923.285645	961.551514	939.632263	42.718536
204.934357	921.799561	959.248108	948.325684	70.833519
205.311661	923.880066	972.845459	931.384583	15.326164
205.688934	921.948181	965.117981	929.229919	16.867668
206.066177	919.421875	964.523621	918.381653	-2.306390
206.443390	912.734680	961.031311	930.047119	35.846058
206.820587	901.886414	966.158203	924.994629	35.953899
207.197769	901.812195	970.616455	927.149414	36.825073
207.574921	906.567566	967.347107	930.715820	39.730892
207.952042	912.437317	968.610291	928.858337	29.232956
208.329147	917.118469	967.049866	925.143250	16.071611
208.706223	956.498840	1006.653259	964.077820	15.111290
209.083267	966.826965	1006.355957	972.622559	14.661627
209.460297	968.313049	1004.498474	974.554443	17.248365
209.837280	922.022522	965.712402	927.520813	12.584816
210.214264	918.307312	962.814636	924.474426	13.856403
210.591217	914.220642	966.455566	929.006836	28.307102
210.968124	922.245361	970.690735	932.276184	20.705429
211.345016	918.084290	974.034363	933.390808	27.357460
211.721893	918.678772	973.514221	927.966614	16.937660
212.098724	908.499329	970.244934	934.505371	42.118046
212.475555	910.951355	970.764954	933.910950	38.385242
212.852356	913.403381	961.700134	937.403137	49.692276
213.229126	920.536438	954.938477	937.774597	50.107960
213.605865	920.536438	950.183167	936.585754	54.135201
213.982590	916.821289	951.446350	931.087402	41.201698
214.359283	914.443604	957.762024	918.604675	9.605779
214.735931	913.923523	960.214050	915.186707	2.728817
215.112579	916.598328	963.334717	918.010071	3.020651
215.489197	911.619934	963.334778	924.400085	24.712732
215.865799	908.647949	964.003479	927.075012	33.288567
216.242355	908.425049	963.483398	926.034851	31.983891
216.618896	907.533447	961.031433	927.075134	36.527893
216.995407	907.756348	962.888977	926.034851	33.153694
217.371902	907.979248	962.443115	924.474426	30.286461
217.748367	911.620056	973.514221	921.502380	15.966488
218.124802	902.852295	981.539001	921.725281	23.984974
218.501236	903.223877	984.288147	922.245361	23.464695
218.877609	902.480896	975.074524	920.610657	24.974314
219.253983	910.579834	970.690735	923.805664	22.002382
219.630295	911.099854	975.520325	927.223633	25.028969
220.006592	907.236145	981.613281	926.257629	25.574371
220.382889	897.948303	985.848450	919.496155	24.514011
220.759140	895.050598	989.266418	916.821289	23.107256
221.135391	899.805908	990.158020	922.319641	24.917772
221.511581	903.743958	989.935120	924.400208	23.965624
221.887772	907.533386	994.616211	937.551758	34.471058
222.263931	914.443542	1013.414856	951.149109	37.087074
222.640060	922.765442	1020.102051	965.861023	44.274792
223.016159	920.164856	1024.857422	963.186218	41.093044
223.392212	923.434265	1020.845032	951.892151	29.214312
223.768265	919.273254	1023.445618	942.901550	22.681923
224.144302	916.449768	1022.702637	939.334961	21.538424
224.520294	902.555176	1032.584839	942.455750	30.685747
224.896286	905.601563	1048.039917	952.635254	33.020386
225.272217	908.499451	1058.888062	961.997314	35.573082
225.648148	918.158691	1062.306030	964.152161	31.907263
226.024048	911.174316	1065.649658	962.740417	33.381443
226.399902	909.688171	1089.129272	961.105652	28.654238
226.775772	906.047363	1105.475952	968.684570	31.408339
227.151581	906.418884	1133.562378	971.805237	28.786364
227.527374	906.047363	1150.206177	984.362488	32.075485
227.903137	906.716125	1181.859009	992.981628	31.352983
228.278870	909.168152	1231.195923	1008.956726	30.987568
228.654572	904.115479	1311.071533	1021.959656	28.957470
229.030273	894.307556	1406.699219	1047.519775	29.901388
229.405930	892.747131	1498.091431	1077.092163	30.452923
229.781555	903.743896	1561.397339	1096.039429	29.239645
230.157181	908.870850	1578.264038	1099.680298	28.504839
230.532761	914.963623	1545.496460	1084.745361	26.926708
230.908325	911.099915	1484.716919	1070.330688	27.759075
231.283859	919.347473	1439.095093	1055.098633	26.118670
231.659332	913.254639	1408.556641	1038.380493	25.262537
232.034821	918.084412	1396.593872	1036.448730	24.736046
232.410263	915.186584	1369.176270	1033.179321	25.990181
232.785690	911.471497	1345.027832	1038.008911	29.185923
233.161087	903.446777	1312.557495	1032.139160	31.456615
233.536469	904.487061	1300.891968	1025.303223	30.477968
233.911804	912.214539	1306.167603	1022.108215	27.895119
234.287140	915.558105	1326.600830	1018.393066	25.018070
234.662430	910.059753	1350.674927	1032.287720	27.740299
235.037704	917.564392	1361.374390	1031.396118	25.648752
235.412933	915.632507	1367.169922	1040.238037	27.595837
235.788162	912.808899	1367.764526	1031.321655	26.049299
236.163345	905.230164	1370.365112	1039.940796	28.961624
236.538513	902.852356	1381.807617	1039.717896	28.575851
236.913635	906.047363	1385.448364	1037.563110	27.433348
237.288742	912.511719	1400.829102	1035.482788	25.182611
237.663834	915.038025	1395.033691	1037.488892	25.510828
238.038879	912.065918	1398.228516	1042.987305	26.929546
238.413910	904.932861	1387.826172	1046.033691	29.219877
238.788910	898.468567	1398.823242	1042.764282	28.838686
239.163879	891.929932	1415.838501	1051.086304	30.378654
239.538834	887.991882	1443.850586	1059.854126	30.918333
239.913757	902.629456	1477.658203	1073.599976	29.732517
240.288651	907.236145	1518.450317	1086.974487	29.406769
240.663528	911.842957	1580.195923	1105.847290	29.027227
241.038361	905.081482	1651.452271	1125.537598	29.537077
241.413177	908.945129	1750.349243	1154.515625	29.185797
241.787979	908.870850	1853.184204	1178.069580	28.507351
242.162735	910.802734	1980.539063	1212.991821	28.248932
242.537476	913.031799	2100.760986	1233.722290	27.000303
242.912170	913.031799	2234.580322	1262.328857	26.430891
243.286865	916.078186	2302.195557	1283.133667	26.480835
243.661514	913.329041	2309.848877	1291.752808	27.097630
244.036148	907.459167	2226.852783	1275.406250	27.887590
244.410751	906.270264	2145.342529	1249.251587	27.680494
244.785339	905.229980	2046.519897	1218.044434	27.408852
245.159882	908.870911	2004.464355	1212.843262	27.744993
245.534378	906.716125	2011.374634	1219.010376	28.270662
245.908890	903.372498	2116.884521	1264.483643	29.757526
246.283356	906.344543	2283.471191	1309.808350	29.297508
246.657791	907.756348	2500.137939	1365.609741	28.752743
247.032196	922.394043	2763.541016	1425.571899	27.329586
247.406586	923.434265	3024.789795	1483.156616	26.636253
247.780960	920.090637	3206.682617	1540.518188	27.133286
248.155289	912.288818	3247.400391	1550.326294	27.323639
248.529602	911.174316	3139.661377	1529.372925	27.740732
248.903870	908.127930	2940.753174	1474.537476	27.865911
249.278122	904.264099	2705.733643	1414.426392	28.319231
249.652344	899.731628	2504.075928	1360.185669	28.700451
250.026550	902.926575	2352.275635	1315.232544	28.447664
250.400711	906.790344	2250.258057	1283.431030	28.034962
250.774857	906.121765	2172.314453	1264.335083	28.290586
251.148987	903.149597	2138.135010	1249.994629	28.084951
251.523071	900.549011	2143.930664	1252.149414	28.277756
251.897125	904.115540	2196.091064	1269.759277	28.301134
252.271164	910.356934	2263.186523	1286.848755	27.829952
252.645187	922.765564	2312.895264	1309.659790	27.831522
253.019165	929.824219	2334.888672	1309.882690	27.049185
253.393112	929.378418	2316.535889	1305.944702	27.146614
253.767044	918.976074	2260.511719	1280.533203	26.950989
254.140930	920.164856	2173.651611	1256.459106	26.828703
254.514801	921.725281	2086.643311	1232.905151	26.712599
254.888657	920.684998	2017.839233	1229.412842	28.138964
255.262466	912.585938	1986.780396	1228.001099	29.362947
255.636276	922.171082	1994.285034	1238.552124	29.510019
256.010010	922.022400	2020.662476	1238.849243	28.838091
256.383759	922.914063	2071.931396	1245.016235	28.032839
256.757446	904.561340	2120.822510	1256.161865	28.908306
257.131134	908.276550	2198.989014	1271.691162	28.156126
257.504791	912.065918	2287.186279	1304.978760	28.572979
257.878418	919.273254	2408.968506	1338.786499	28.161011
258.252014	920.684998	2560.100342	1393.473145	28.838827
258.625580	925.143127	2757.968506	1457.001953	29.018520
258.999115	921.353699	2991.799072	1518.747559	28.853399
259.372650	919.644775	3289.307373	1594.684937	28.486763
259.746124	909.316711	3606.430908	1676.046387	28.427778
260.119598	909.762512	3924.594971	1753.098511	27.972897
260.493042	906.716064	4129.001953	1792.998901	27.504786
260.866425	909.390930	4170.686035	1791.587280	27.050491
261.239838	917.118469	4022.823486	1759.934204	27.137661
261.613159	913.106201	3749.538330	1687.340454	27.296061
261.986511	911.620117	3436.426514	1599.143066	27.230719
262.359802	903.595398	3174.806641	1526.251953	27.415176
262.733063	911.620117	2994.919922	1483.453735	27.448456
263.106293	911.768738	2894.016602	1459.825562	27.648251
263.479523	917.489990	2830.562256	1446.153931	27.634291
263.852692	918.827454	2794.970947	1434.934082	27.508909
264.225861	920.833679	2752.321289	1416.507202	27.063986
264.598969	917.490051	2727.207031	1406.253418	27.007723
264.972076	911.694397	2718.587891	1405.510254	27.329550
265.345154	910.059753	2747.417236	1423.120117	27.923819
265.718201	914.517883	2796.234375	1434.191040	27.616974
266.091217	918.753113	2883.391357	1463.243530	27.714539
266.464203	912.437500	2996.703125	1493.558960	27.881353
266.837158	907.607727	3112.169189	1521.942505	27.866529
267.210114	900.474670	3210.843750	1546.685425	27.970022
267.583038	906.418945	3274.595459	1551.886597	27.255894
267.955902	902.852356	3308.997314	1562.883423	27.431059
268.328766	909.019470	3307.214111	1553.001343	26.852777
268.701569	912.363098	3300.824219	1563.180664	27.248405
269.074371	916.524109	3292.725342	1565.261108	27.301434
269.447144	915.632385	3323.040771	1577.743774	27.503077
269.819885	912.734680	3373.120850	1585.025513	27.324606
270.192596	911.545837	3476.327393	1615.712769	27.455240
270.565277	916.895691	3616.611084	1657.916626	27.448114
270.937927	909.019531	3820.423096	1716.095703	27.721207
271.310577	903.669678	4052.247803	1765.358398	27.367552
271.683136	893.787415	4273.966797	1819.302124	27.380638
272.055725	897.725403	4425.767090	1849.989136	26.991283
272.428284	904.932800	4501.332520	1876.292358	27.009222
272.800812	907.236267	4432.231445	1860.168579	27.033579
273.173279	909.465332	4301.606934	1836.391724	27.325699
273.545776	910.654236	4151.070313	1800.355103	27.456377
273.918152	909.242432	4054.922607	1771.822754	27.421106
274.290558	909.242371	3982.477295	1749.234741	27.332514
274.662964	906.195984	3915.827881	1729.544434	27.357115
275.035278	905.007080	3885.364014	1715.426880	27.192038
275.407593	907.384766	3881.500000	1717.210327	27.229126
275.779907	904.115479	3928.756592	1730.807617	27.331909
276.152161	909.093750	4013.684570	1739.129517	26.735754
276.524384	908.499329	4117.708496	1753.915649	26.343447
276.896606	905.898743	4197.509277	1760.380005	25.959366
277.268799	903.743958	4226.933105	1783.785522	26.481838
277.640930	898.988586	4239.490234	1787.500488	26.598158
278.013031	901.663513	4238.524902	1784.602905	26.460176
278.385162	905.675842	4231.540039	1781.482056	26.333191
278.757233	912.511719	4210.363770	1785.197144	26.462236
279.129272	913.106140	4214.227539	1785.494507	26.427031
279.501282	914.146301	4222.697754	1792.553101	26.549587
279.873230	910.208313	4284.889160	1796.862671	26.273724
280.245178	917.267090	4385.123535	1844.044922	26.724804
280.617126	914.443542	4545.840332	1879.338867	26.570915
280.988983	910.579773	4718.223145	1933.505371	26.865059
281.360870	912.214539	4892.313965	1967.684570	26.518684
281.732697	923.285645	5068.336914	2012.860718	26.286167
282.104492	930.641602	5202.676270	2043.696289	26.054440
282.476288	925.143250	5301.275879	2065.244141	26.052702
282.848053	911.025696	5351.133301	2070.742432	26.119116
283.219757	910.059753	5349.721680	2073.714600	26.210436
283.591461	909.836914	5289.536621	2054.916016	26.145151
283.963135	911.620117	5220.732422	2047.188599	26.352724
284.334747	915.260925	5208.620605	2048.302979	26.390566
284.706360	916.449768	5279.951172	2080.327393	26.673021
285.077942	921.205139	5423.281738	2109.677246	26.398310
285.449524	911.025696	5586.673340	2146.159912	26.416327
285.821014	901.291992	5683.860840	2163.472412	26.391266
286.192535	899.731628	5805.717285	2186.431885	26.227148
286.563995	901.589172	5880.763184	2196.908447	26.014744
286.935425	909.465271	5946.372559	2194.753906	25.517416
287.306824	909.465271	5879.648438	2179.150391	25.546041
287.678223	916.226807	5741.742676	2151.509766	25.598984
288.049561	916.895569	5607.700684	2126.172363	25.779728
288.420898	912.511719	5480.048340	2095.559326	25.901218
288.792145	904.412781	5455.156738	2078.915771	25.809031
289.163452	908.202209	5483.764160	2089.615479	25.820070
289.534668	907.607727	5606.437988	2119.262207	25.786303
289.905914	910.356934	5751.922363	2160.054443	25.811848
290.277039	907.830566	5917.320313	2209.019775	25.974485
290.648193	915.929688	6094.309082	2260.140137	25.958130
291.019318	913.849121	6237.861816	2286.889160	25.789572
291.390381	911.545837	6273.155762	2276.189453	25.452124
291.761475	905.898743	6193.800781	2242.456055	25.275761
292.132507	906.790466	6076.847656	2200.029053	25.014008
292.503510	910.877136	5968.960938	2177.961182	25.050671
292.874481	923.508545	5918.286621	2171.199707	24.979910
293.245422	921.279480	5931.809082	2194.084961	25.402611
293.616364	913.626282	6057.083496	2235.471680	25.699553
293.987213	902.183594	6231.769531	2284.883057	25.943844
294.358093	906.047363	6451.705566	2349.749268	26.033012
294.728943	901.960754	6667.703613	2396.782959	25.925928
295.099731	897.576843	6882.289551	2449.017822	25.923397
295.470490	900.251770	7033.421387	2471.010986	25.610889
295.841248	905.898743	7162.856934	2504.150391	25.543591
296.211975	905.973083	7264.800293	2536.174805	25.636829
296.582642	911.768738	7425.145996	2580.830811	25.625139
296.953308	915.706726	7585.267578	2616.941895	25.507452
297.323883	915.855286	7717.897949	2635.368896	25.279373
297.694519	912.288757	7727.631348	2624.520752	25.123196
298.065063	906.641785	7624.425293	2600.669434	25.217060
298.435608	901.812195	7408.056152	2550.738037	25.343742
298.806122	900.994812	7093.755371	2486.466309	25.602013
299.176575	899.954590	6753.522949	2394.553955	25.533133
299.547028	894.901917	6503.122559	2326.343750	25.523994
299.917450	891.038269	6358.455078	2282.876953	25.456968
300.287872	893.564514	6283.855469	2268.090576	25.500036
300.658234	910.728455	6198.184082	2246.617188	25.265245
301.028564	914.592285	6121.949707	2225.514893	25.174431
301.398865	910.654114	6059.757813	2219.867920	25.426054
301.769135	898.171326	6019.857910	2209.837158	25.610037
302.139374	893.490234	6000.835938	2216.078857	25.895811
302.509583	900.251770	5968.365723	2192.822021	25.503971
302.879791	908.499329	5888.268066	2185.020264	25.634144
303.249939	909.539612	5768.937500	2151.063721	25.548929
303.620087	908.202148	5660.678223	2133.677002	25.786030
303.990173	913.923523	5595.664063	2115.398682	25.663000
304.360260	916.672668	5544.766113	2107.819580	25.737316
304.730286	920.759277	5528.122559	2098.085938	25.553154
305.100281	911.322937	5510.661621	2095.039307	25.736662
305.470276	904.041199	5525.076172	2099.423340	25.868275
305.840179	898.319824	5518.834473	2108.116943	26.183168
306.210144	903.669617	5542.240234	2107.447998	25.951492
306.579987	917.192688	5563.267578	2112.649170	25.730463
306.949890	924.771667	5629.471191	2107.596436	25.141344
307.319702	925.291748	5700.281738	2124.612061	25.116707
307.689484	918.381653	5818.200684	2137.169189	24.874136
308.059265	915.855408	5913.753906	2170.605469	25.105553
308.429016	911.471497	6054.111816	2196.760010	24.992777
308.798737	907.161926	6158.878418	2232.351074	25.233450
309.168396	901.440613	6299.459473	2271.285889	25.376814
309.538055	905.155762	6377.031250	2286.146240	25.237974
309.907684	913.849121	6430.454590	2286.814941	24.887875
310.277313	908.722351	6445.463379	2292.610352	24.994629
310.646851	904.858459	6442.789063	2301.303711	25.216013
311.016388	899.583008	6442.045410	2308.214111	25.415258
311.385895	916.078186	6364.622559	2287.632080	25.172852
311.755371	913.106140	6309.712402	2284.808838	25.417873
312.124817	905.824463	6235.632813	2277.081299	25.728069
312.494232	905.973145	6194.989746	2261.997803	25.638502
312.863617	911.397217	6105.231934	2229.527100	25.378740
313.232971	916.078186	6059.164063	2208.945557	25.137970
313.602295	907.236145	6051.361816	2204.561768	25.219557
313.971619	911.991516	6116.971191	2225.886475	25.243040
314.340820	915.781067	6159.546875	2235.620117	25.169682
314.710083	919.198975	6223.521484	2258.802734	25.254946
315.079285	915.632385	6229.837402	2257.911133	25.258318
315.448486	920.982239	6239.422363	2261.997803	25.214455
315.817596	923.657166	6113.776855	2218.679443	24.951683
316.186707	916.821289	5963.982910	2162.580811	24.682379
316.555786	914.963684	5769.160645	2099.349121	24.399206
316.924866	909.093811	5622.338379	2065.392822	24.532974
317.293884	911.248596	5529.682129	2044.959595	24.547520
317.662872	900.549011	5472.841309	2038.123657	24.879745
318.031830	900.400391	5477.818848	2044.662231	24.997972
318.400757	902.555176	5501.150391	2062.346436	25.220556
318.769684	909.093750	5555.985840	2084.414307	25.292616
319.138550	903.298157	5595.886719	2087.312012	25.231575
319.507416	898.096985	5617.657715	2085.974365	25.169239
319.876190	901.069092	5601.830566	2063.683838	24.732475
320.244995	910.059753	5556.357422	2058.705322	24.721737
320.613770	916.375488	5478.488281	2037.306274	24.570431
320.982483	910.802795	5418.600098	2030.098999	24.830223
321.351166	905.675842	5369.411621	2009.962891	24.739079
321.719818	901.589172	5366.291016	2013.380859	24.901815
322.088440	898.691406	5403.888184	2035.077271	25.223890
322.457062	904.264160	5517.942871	2074.383545	25.361961
322.825623	908.499329	5690.770996	2114.506592	25.218294
323.194183	916.226868	5867.760254	2149.428955	24.905460
323.562653	917.489990	6024.464844	2186.060303	24.839958
323.931183	916.969910	6124.178223	2218.827881	25.001072
324.299591	908.350830	6207.472656	2240.152588	25.132498
324.668060	900.474670	6230.654785	2243.570557	25.197947
325.036407	904.338379	6230.357910	2229.304688	24.877234
325.404755	911.545715	6162.519531	2201.218018	24.560633
325.773102	919.719055	6082.271973	2169.862305	24.215603
326.141388	912.214539	5973.864746	2146.382568	24.382719
326.509674	902.109375	5874.150391	2126.246582	24.620417
326.877899	895.199219	5804.157715	2116.736084	24.883829
327.246124	898.245605	5772.281250	2109.900146	24.859369
327.614288	908.573669	5714.474121	2103.733154	24.868586
327.982422	908.425049	5684.529785	2086.420166	24.664351
328.350525	910.282654	5618.177246	2068.513428	24.601883
328.718628	913.774902	5599.230469	2070.445313	24.686401
329.086700	925.217529	5590.833496	2077.652588	24.700598
329.454712	928.263916	5633.929688	2091.844482	24.727224
329.822693	924.771667	5690.548340	2093.702148	24.527594
330.190674	922.765564	5737.507813	2106.482178	24.585253
330.558563	922.765564	5767.154297	2118.965088	24.692474
330.926483	926.480652	5827.042480	2130.779053	24.574699
331.294312	922.542664	5899.041504	2147.794434	24.620756
331.662231	912.511780	5996.006348	2172.685791	24.789522
332.029999	905.081482	6103.894531	2199.286377	24.894238
332.397766	898.617188	6207.026855	2218.753662	24.868774
332.765503	907.236267	6294.406250	2234.208740	24.632088
333.133240	902.703796	6362.617188	2255.682129	24.780214
333.500916	904.412781	6432.386719	2269.131104	24.687494
333.868561	907.756348	6456.609375	2283.174072	24.787424
334.236176	908.499329	6463.891113	2284.139893	24.762262
334.603790	909.019470	6421.761230	2270.616943	24.699097
334.971344	900.846191	6395.606934	2248.177246	24.520287
335.338867	909.019531	6332.375000	2232.499268	24.403337
335.706360	908.648010	6300.871094	2228.115479	24.469824
336.073853	918.901794	6284.152344	2234.431396	24.519444
336.441284	919.273254	6302.951172	2234.059814	24.421719
336.808655	919.941895	6300.722168	2241.267334	24.556391
337.176086	911.397217	6305.552246	2237.477783	24.583656
337.543396	910.802734	6285.861816	2245.725342	24.835497
337.910706	913.849121	6268.251953	2242.753174	24.818903
338.277954	920.536316	6236.970703	2238.146729	24.783722
338.645264	918.827393	6211.559082	2216.375977	24.515671
339.012421	910.802734	6194.097656	2204.264404	24.482101
339.379669	910.059753	6193.503418	2201.366699	24.440628
339.746796	906.864746	6195.583496	2201.738281	24.483690
340.113953	918.232971	6206.654785	2203.967285	24.312250
340.481018	915.483826	6209.181152	2197.502930	24.217838
340.848114	917.415710	6228.425781	2203.595703	24.217237
341.215118	914.963684	6293.515137	2214.146729	24.154890
341.582153	912.586121	6402.962402	2238.443604	24.148752
341.949066	912.660339	6520.435059	2277.601318	24.340151
342.316010	907.756348	6619.257813	2313.712402	24.616224
342.682922	906.047363	6733.535156	2342.244629	24.645222
343.049835	901.291992	6892.542969	2379.767578	24.677244
343.416656	904.338379	7105.568848	2428.064453	24.571350
343.783478	908.870911	7351.437500	2503.110107	24.745407
344.150269	915.929688	7642.777832	2570.502686	24.596556
344.516998	915.186584	7925.128418	2636.260742	24.551905
344.883728	914.072083	8070.167480	2672.966064	24.578964
345.250427	910.356934	8109.770996	2675.566406	24.518793
345.617065	915.260925	7999.505371	2648.371826	24.464300
345.983704	907.384827	7867.320313	2603.047119	24.363190
346.350281	904.932861	7684.164063	2562.849609	24.455822
346.716827	897.725525	7497.069824	2503.927490	24.338810
347.083405	900.771912	7339.177246	2465.290039	24.299776
347.449860	926.852234	7207.364746	2444.336670	24.161791
347.816376	929.081238	7102.746094	2430.070557	24.312775
348.182770	933.910950	7027.179688	2411.346436	24.247011
348.549194	913.403320	6974.053223	2384.151123	24.267162
348.915558	918.604553	7002.213379	2390.020996	24.186573
349.281921	911.099915	7050.733887	2399.160400	24.236959
349.648193	909.911133	7117.383301	2421.748291	24.355118
350.014526	907.830627	7164.862793	2441.810303	24.516092
350.380737	910.728516	7222.967285	2465.735840	24.634798
350.746948	915.038086	7294.074707	2473.909180	24.437407
351.113159	912.214539	7360.130371	2487.803711	24.435633
351.479309	919.198975	7433.541504	2506.379150	24.364395
351.845428	915.335205	7517.058105	2535.506104	24.541637
352.211517	912.140137	7608.376465	2555.196289	24.537010
352.577576	906.270264	7718.937988	2574.737549	24.490660
352.943604	905.824463	7845.178223	2605.425049	24.492203
353.309601	910.728333	7999.876953	2633.808838	24.305889
353.675537	908.276367	8182.958496	2680.767822	24.365208
354.041473	906.344543	8385.804688	2716.953369	24.207748
354.407379	904.784180	8561.159180	2768.742188	24.345177
354.773254	902.926575	8749.813477	2814.364502	24.359190
355.139038	913.923340	8909.193359	2854.710938	24.274197
355.504913	915.112305	9157.512695	2925.818359	24.394667
355.870636	921.130798	9372.173828	2976.195313	24.317287
356.236389	915.632507	9637.062500	3052.801514	24.504801
356.602081	914.443665	9909.084961	3110.237549	24.412245
356.967804	920.239258	10182.073242	3180.676514	24.405935
357.333405	911.694336	10446.293945	3230.608154	24.321041
357.699036	905.824463	10642.378906	3265.975830	24.240108
358.064606	900.623291	10821.077148	3279.945068	23.984001
358.430176	904.561340	10886.983398	3285.072021	23.847027
358.795654	909.019531	10908.160156	3291.164795	23.823500
359.161163	905.007141	10906.747070	3304.687744	23.992632
359.526581	902.034973	11003.637695	3346.000000	24.193836
359.892029	902.555176	11243.414063	3420.451416	24.349003
360.257416	904.709961	11652.672852	3527.373291	24.401493
360.622772	908.499329	12162.910156	3649.675537	24.356461
360.988098	905.452942	12705.839844	3749.760986	24.103516
361.353394	907.682068	13154.776367	3855.122314	24.066444
361.718658	908.202148	13449.609375	3904.533936	23.891512
362.083893	914.592224	13512.468750	3919.394287	23.851654
362.449097	919.644775	13328.496094	3866.267578	23.746136
362.814209	916.746887	12889.293945	3744.782959	23.621008
363.179382	917.787170	12215.739258	3575.744141	23.526007
363.544434	916.375488	11476.278320	3382.928711	23.357727
363.909546	916.449707	10800.495117	3227.413086	23.380745
364.274536	916.003906	10300.066406	3117.965088	23.464903
364.639587	915.335205	9923.352539	3044.628174	23.637753
365.004517	916.895569	9659.948242	2999.006592	23.814463
365.369507	913.106201	9453.461914	2958.065674	23.944664
365.734344	904.338440	9338.291992	2927.453125	23.987740
366.099274	907.384766	9259.753906	2917.199219	24.062807
366.464081	915.706726	9220.000977	2920.988281	24.147526
366.828918	922.096741	9183.295898	2916.233154	24.138584
367.193665	916.226868	9134.255859	2897.360596	24.107164
367.558411	915.038025	9081.204102	2865.187500	23.880844
367.923126	919.273254	8983.792969	2850.252686	23.944136
368.287781	928.858337	8912.759766	2842.450439	23.968132
368.652435	925.068848	8831.101563	2838.215576	24.198568
369.017059	926.109131	8779.238281	2818.450439	24.096655
369.381653	924.697449	8730.791992	2795.119385	23.961044
369.746185	922.765442	8727.226563	2781.596436	23.817545
370.110687	922.691162	8775.151367	2805.968018	23.983273
370.475220	913.477539	8850.346680	2831.528320	24.166340
370.839661	915.483704	8944.933594	2868.828125	24.327251
371.204041	906.864746	9017.601563	2874.697998	24.262077
371.568451	918.901794	9071.024414	2883.614258	24.100624
371.932770	920.833679	9093.389648	2874.995361	23.911266
372.297150	923.582825	9082.467773	2877.819092	23.952248
372.661377	914.963684	9084.473633	2886.066406	24.127552
373.025696	905.675964	9084.993164	2895.576904	24.328447
373.389862	906.567566	9100.448242	2876.927002	24.046717
373.754059	909.390930	9110.256836	2889.855469	24.149456
374.118225	909.985413	9148.820313	2903.230225	24.193285
374.482361	913.403320	9243.555664	2958.214111	24.547100
374.846436	916.747009	9395.133789	2991.501953	24.471104
375.210510	913.849182	9642.709961	3055.550781	24.535868
375.574524	908.573730	9909.977539	3130.001953	24.678684
375.938538	910.356934	10216.030273	3208.762939	24.698975
376.302460	923.731445	10507.518555	3278.979248	24.575335
376.666412	925.068848	10786.971680	3350.755615	24.596540
377.030304	915.038086	10989.817383	3389.392578	24.559887
377.394196	912.734680	11100.456055	3391.993408	24.335752
377.757996	922.691223	11115.018555	3361.752197	23.930365
378.121796	932.499207	11025.260742	3310.780518	23.564226
378.485565	923.880066	10827.690430	3258.768799	23.575659
378.849304	910.208313	10565.772461	3191.227539	23.623884
379.212982	910.356934	10277.551758	3143.673828	23.841896
379.576630	913.329041	10004.340820	3096.119873	24.010427
379.940277	913.403320	9812.341797	3054.807861	24.063595
380.303864	910.876953	9684.838867	3024.640869	24.091328
380.667450	915.038025	9655.266602	3007.922607	23.945421
381.030945	924.102966	9607.416992	3004.802002	23.962036
381.394501	916.449707	9625.992188	3006.585205	23.998222
381.757935	919.793274	9660.542969	3021.743164	24.047707
382.121399	918.901672	9724.962891	3025.829834	23.925886
382.484741	925.588928	9839.686523	3049.680908	23.828459
382.848145	920.833679	9956.639648	3070.634033	23.792015
383.211487	913.997803	10065.567383	3112.020752	24.017990
383.574768	910.208313	10193.293945	3148.057617	24.106739
383.938019	904.487000	10270.791016	3174.658203	24.237642
384.301270	908.053528	10373.328125	3196.948975	24.182030
384.664459	903.298157	10401.786133	3210.026123	24.285212
385.027649	906.641785	10461.525391	3217.456299	24.184643
385.390778	911.545837	10540.286133	3233.505859	24.114889
385.753876	918.158752	10617.413086	3247.029053	24.010820
386.116943	918.827454	10686.291992	3268.353760	24.054619
386.479980	909.019531	10726.935547	3277.641602	24.125507
386.842987	909.613953	10786.749023	3298.594971	24.186983
387.205994	908.648010	10825.757813	3313.009766	24.244583
387.568909	910.134033	10884.382813	3317.764893	24.138468
387.931793	911.248596	10891.887695	3310.483398	24.038891
388.294678	910.208313	10896.866211	3297.703369	23.906847
388.657471	908.796631	10863.875977	3285.146240	23.870726
389.020294	911.100037	10846.041992	3275.412842	23.797951
389.383057	910.951355	10889.806641	3291.536377	23.856293
389.745819	915.781067	10968.196289	3323.040771	23.947079
390.108521	914.815125	11122.968750	3360.415039	23.957319
390.471191	916.524109	11349.890625	3412.426758	23.922314
390.833801	914.146301	11618.196289	3471.943359	23.895601
391.196442	911.471497	11845.710938	3528.859375	23.937540
391.558960	907.756348	12012.075195	3575.372803	24.023235
391.921509	907.979309	12131.256836	3607.471436	24.052620
392.284027	906.493164	12250.735352	3628.053467	23.990675
392.646484	911.397156	12251.776367	3626.418945	23.941191
393.008911	907.013367	12181.336914	3610.889404	23.982601
393.371307	911.174316	12109.188477	3602.567627	24.034559
393.733673	913.923523	12020.471680	3572.846680	23.940140
394.096008	916.226868	11962.441406	3552.115967	23.862375
394.458344	914.889404	11890.367188	3532.871338	23.853012
394.820587	907.087708	11799.272461	3520.611328	23.994486
395.182831	911.620117	11698.963867	3486.283936	23.867449
395.545013	911.397217	11494.036133	3418.445313	23.690199
395.907196	915.855286	11271.573242	3360.415039	23.605894
396.269287	913.403320	11019.539063	3312.489502	23.738907
396.631409	913.329041	10821.374023	3290.570313	23.993040
396.993469	912.585999	10682.131836	3260.923584	24.037327
397.355530	911.322937	10597.574219	3242.347656	24.065292
397.717499	914.592224	10588.063477	3238.632813	24.024885
398.079468	912.363098	10587.097656	3239.747314	24.056313
398.441376	910.579773	10584.200195	3244.056885	24.122066
398.803284	898.765625	10553.884766	3248.886475	24.340672
399.165131	897.056641	10580.187500	3258.322998	24.385361
399.526978	900.400330	10584.497070	3258.025635	24.345329
399.888763	910.133972	10583.976563	3223.772217	23.916433
400.250519	922.319641	10548.088867	3204.007568	23.703955
400.612244	929.824280	10564.807617	3212.032227	23.686684
400.973938	930.864441	10581.079102	3242.942139	23.958820
401.335602	922.988342	10640.892578	3256.539795	24.012909
401.697205	921.279358	10720.470703	3269.542236	23.963844
402.058807	909.465332	10845.522461	3294.285400	24.001675
402.420349	903.075256	11019.317383	3339.015625	24.079498
402.781860	896.165100	11197.420898	3393.108154	24.239210
403.143341	899.880188	11419.288086	3439.101563	24.138443
403.504822	910.208313	11627.484375	3497.726318	24.143429
403.866241	909.242371	11892.374023	3541.565186	23.966959
404.227631	913.031799	12083.257813	3594.171143	24.002554
404.588959	916.449707	12258.834961	3622.257813	23.855724
404.950287	919.124695	12310.028320	3636.746826	23.857828
405.311554	921.502380	12304.753906	3629.910889	23.792923
405.672821	916.746887	12225.398438	3621.291748	23.915716
406.034027	916.895508	12106.960938	3596.029053	23.942072
406.395203	911.322815	11912.731445	3556.722656	24.046011
406.756348	911.025635	11787.383789	3496.760498	23.773903
407.117493	902.629395	11685.588867	3454.556641	23.666298
407.478516	906.716125	11672.957031	3447.200439	23.596762
407.839600	908.276550	11636.176758	3469.119873	23.870871
408.200592	911.917297	11650.741211	3488.066650	23.989120
408.561554	904.561340	11670.877930	3499.434814	24.101776
408.922485	900.103210	11727.867188	3510.655029	24.109797
409.283417	898.468506	11808.561523	3536.660889	24.181210
409.644257	903.075378	11951.147461	3571.880615	24.156298
410.005096	906.864746	12112.383789	3610.072021	24.123890
410.365906	907.830750	12206.971680	3623.817627	24.037109
410.726715	915.781067	12245.163086	3630.579346	23.962458
411.087433	915.186584	12242.859375	3614.455811	23.828983
411.448120	919.644775	12248.506836	3611.929688	23.764830
411.808807	920.090576	12213.213867	3577.675781	23.532774
412.169434	920.090576	12101.238281	3565.193359	23.656809
412.530029	929.527039	12053.015625	3552.413086	23.579708
412.890564	931.310242	12053.981445	3570.022705	23.723730
413.251099	933.465149	12123.604492	3593.205078	23.768604
413.611572	931.533203	12213.137695	3629.242188	23.912458
413.972076	930.270081	12314.710938	3659.706299	23.975147
414.332489	928.189636	12418.213867	3672.560547	23.884813
414.692871	920.833679	12585.618164	3704.064697	23.860115
415.053223	920.387878	12791.362305	3746.194580	23.804337
415.413574	914.072083	13048.226563	3812.323975	23.885077
415.773834	914.815125	13238.664063	3868.199463	23.964788
416.134094	905.824463	13458.526367	3925.784180	24.058245
416.494263	913.180359	13706.846680	3979.728271	23.969267
416.854462	918.678772	14075.684570	4058.489258	23.864172
417.214630	931.013123	14466.590820	4135.764160	23.676498
417.574738	932.350586	14886.028320	4241.645020	23.716288
417.934784	931.087463	15319.659180	4333.557617	23.647034
418.294861	930.641602	15830.045898	4469.234375	23.749895
418.654846	927.372253	16396.382813	4603.796387	23.766382
419.014832	925.588928	17012.353516	4757.900391	23.822762
419.374756	918.678772	17672.310547	4901.898926	23.775265
419.734680	923.954346	18440.152344	5082.528809	23.741308
420.094543	920.462097	19106.201172	5219.988770	23.642300
420.454376	921.353821	19654.556641	5346.526367	23.622080
420.814148	917.638611	20083.802734	5420.531738	23.493971
421.173920	913.700500	20530.435547	5522.921387	23.496370
421.533691	909.613953	20882.259766	5616.617188	23.567249
421.893341	907.533447	21088.451172	5672.195801	23.609739
422.253021	917.712891	21148.488281	5674.127441	23.510788
422.612640	922.096741	21104.796875	5642.697754	23.389345
422.972260	927.149414	21020.537109	5622.561035	23.367945
423.331757	918.604553	20980.115234	5623.601563	23.452856
423.691315	921.502380	21096.697266	5656.740234	23.470592
424.050781	927.966614	21268.410156	5690.696777	23.415075
424.410248	936.065674	21275.099609	5692.628418	23.386375
424.769653	934.876892	21169.587891	5650.275879	23.303514
425.128998	920.462097	20967.187500	5583.106934	23.258886
425.488373	920.759277	20669.009766	5497.732422	23.176601
425.847656	914.146301	20271.417969	5393.708496	23.141495
426.206940	911.842957	19831.322266	5300.458496	23.196283
426.566193	904.189758	19341.667969	5196.137695	23.278387
426.925385	903.595398	18911.529297	5110.095215	23.359148
427.284576	908.647949	18322.457031	4978.951172	23.373999
427.643677	909.613831	17901.904297	4881.763184	23.376184
428.002777	912.214539	17475.404297	4775.287109	23.323240
428.361847	917.712891	17131.085938	4684.935059	23.235277
428.720856	918.753113	16798.953125	4607.957520	23.231472
429.079865	919.570496	16564.232422	4565.011230	23.301498
429.438812	911.768738	16424.914063	4544.948730	23.420008
429.797760	915.409485	16343.551758	4529.642090	23.426233
430.156616	914.220703	16161.362305	4482.236816	23.401213
430.515503	915.112305	16029.995117	4448.503906	23.376904
430.874268	913.923401	15929.612305	4437.953125	23.468987
431.233093	916.226868	15962.083008	4438.695801	23.411554
431.591827	924.548828	16043.145508	4471.017578	23.457659
431.950562	923.731445	16111.058594	4482.311523	23.431246
432.309204	917.118469	16187.960938	4514.633301	23.558064
432.667877	901.514954	16287.304688	4518.274414	23.507141
433.026459	903.446777	16436.357422	4541.679688	23.422739
433.385010	907.682129	16537.111328	4566.794434	23.411682
433.743561	916.152649	16669.072266	4606.694336	23.427668
434.102051	918.233093	16731.486328	4637.232910	23.518246
434.460510	920.982239	16836.253906	4660.489746	23.496347
434.818939	925.291809	16807.646484	4663.015625	23.533815
435.177338	916.449768	16804.675781	4658.334473	23.551308
435.535675	919.421875	16733.271484	4644.366211	23.554951
435.894012	922.765442	16661.197266	4630.546387	23.558771
436.252289	929.006836	16683.189453	4649.642090	23.616810
436.610535	924.251465	16703.177734	4648.601563	23.603319
436.968719	928.115234	16922.667969	4702.248047	23.596363
437.326935	932.573425	17115.705078	4752.698730	23.605598
437.685028	938.443359	17358.898438	4806.642578	23.557199
438.043152	929.972900	17558.474609	4838.296387	23.503761
438.401215	928.561096	17832.576172	4894.543457	23.461777
438.759277	927.149414	18151.708984	4978.431152	23.520380
439.117249	926.926453	18641.289063	5097.612793	23.544094
439.475250	921.576660	19044.382813	5190.713867	23.556711
439.833130	921.873840	19500.527344	5291.245605	23.518234
440.191071	919.347595	19748.029297	5340.062012	23.478619
440.548889	911.991516	20003.408203	5380.557129	23.406149
440.906708	908.870911	20208.185547	5403.145020	23.287220
441.264496	906.195984	20280.556641	5410.798340	23.250328
441.622223	915.855408	20230.625000	5387.764160	23.152794
441.979950	913.774902	20045.166016	5357.151855	23.225582
442.337616	922.096680	19878.207031	5321.188965	23.206726
442.695251	921.725281	19626.246094	5269.177734	23.242790
443.052887	927.000732	19410.916016	5213.376465	23.189760
443.410461	925.960510	19290.769531	5174.440918	23.133814
443.768005	924.845947	19279.251953	5162.775879	23.089441
444.125458	924.623047	19319.671875	5182.985840	23.149506
444.482941	921.799622	19500.005859	5251.642090	23.306028
444.840393	927.892395	19796.994141	5342.439453	23.395639
445.197754	926.926453	20170.736328	5439.033203	23.447056
445.555084	928.635437	20525.087891	5503.751465	23.346655
445.912415	925.960510	20918.076172	5590.685547	23.332825
446.269714	928.115295	21174.640625	5633.558594	23.240746
446.626953	929.229797	21377.337891	5696.789551	23.315407
446.984161	922.171143	21477.869141	5708.900879	23.286633
447.341309	916.524109	21536.716797	5726.732910	23.327662
447.698456	917.044128	21469.398438	5714.770996	23.343929
448.055542	920.982239	21349.029297	5663.799316	23.217182
448.412598	926.332031	21083.990234	5587.936035	23.125723
448.769653	919.124695	20745.837891	5492.308594	23.065771
449.126617	921.799561	20285.236328	5396.681152	23.109955
449.483582	925.143250	19969.970703	5323.121094	23.092768
449.840515	935.768555	19601.578125	5221.475098	22.960197
450.197388	935.322754	19327.847656	5147.395020	22.901001
450.554230	931.087402	19067.712891	5098.801270	22.979546
450.911041	928.412537	18912.345703	5074.652832	23.055246
451.267822	933.019226	18851.937500	5064.325195	23.055555
451.624573	932.127625	18760.023438	5029.923340	22.985302
451.981262	929.675720	18695.457031	4993.960449	22.877039
452.337921	925.960449	18514.974609	4960.895020	22.940084
452.694580	921.428040	18327.435547	4926.715820	23.010950
453.051147	918.307312	18192.576172	4921.588867	23.174824
453.407715	920.164856	17963.351563	4853.824707	23.080542
453.764221	931.904724	17871.216797	4827.373047	22.996614
454.120728	931.979004	17521.474609	4733.528809	22.915403
454.477142	929.304199	17372.349609	4726.470215	23.092840
454.833557	921.799561	17141.562500	4686.941406	23.213299
455.189911	929.601379	17049.427734	4669.034180	23.197725
455.546265	927.743835	16968.882813	4642.211426	23.155884
455.902557	928.338196	16925.044922	4627.796387	23.126373
456.258820	923.137024	16982.851563	4655.362793	23.239677
456.615051	920.982178	17111.544922	4700.687500	23.345114
456.971252	920.016296	17192.535156	4755.448730	23.569998
457.327393	919.124695	17533.064453	4844.611816	23.627672
457.683502	921.948181	17974.273438	4952.722168	23.637678
458.039612	925.663269	18716.931641	5106.603027	23.499956
458.395630	930.864441	19410.621094	5288.496094	23.580570
458.751648	933.316467	20083.876953	5454.562500	23.608950
459.107605	932.573425	20854.394531	5636.455566	23.611710
459.463562	931.830383	21486.265625	5755.711426	23.468807
459.819458	929.601379	21925.095703	5834.918457	23.363665
460.175323	929.378418	22021.171875	5827.488281	23.222824
460.531158	929.972839	21951.328125	5785.358887	23.097399
460.886932	927.818115	21690.228516	5687.650391	22.925238
461.242676	924.846008	21290.257813	5587.490234	22.894917
461.598419	923.211365	20701.333984	5432.866211	22.801228
461.954102	916.672668	20004.224609	5261.449707	22.762358
462.309723	925.366028	19292.552734	5096.869141	22.711714
462.665344	922.393982	18712.173828	4963.941406	22.718367
463.020905	927.595215	18304.994141	4903.607910	22.880367
463.376373	921.502380	18039.287109	4846.468750	22.929171
463.731873	923.136963	17813.257813	4840.004883	23.190289
464.087341	920.462097	17671.638672	4799.658691	23.157757
464.442749	921.799622	17620.742188	4802.630371	23.239979
464.798126	920.387878	17621.929688	4777.144531	23.092220
465.153503	925.811829	17759.984375	4813.850098	23.096107
465.508820	918.381653	17863.117188	4816.673828	23.005919
465.864105	919.050354	18015.064453	4853.676758	23.014877
466.219330	920.164978	18229.279297	4913.564453	23.071077
466.574524	922.616943	18322.158203	4959.855469	23.203133
466.929657	926.183411	18352.921875	4956.585938	23.127693
467.284790	926.926453	18287.535156	4931.843262	23.068987
467.639893	929.378479	18204.539063	4910.295410	23.044168
467.994934	927.000793	18168.947266	4905.540527	23.074770
468.349945	926.777832	18035.574219	4854.494141	22.957291
468.704926	925.440430	17914.609375	4809.986816	22.864841
469.059875	924.177246	17652.023438	4763.770508	22.953304
469.414764	918.827332	17464.111328	4743.411621	23.115858
469.769653	918.158691	17340.398438	4716.959473	23.132050
470.124451	912.065857	17368.707031	4720.897949	23.144651
470.479248	916.375488	17308.744141	4705.442871	23.114824
470.834015	914.889343	17285.562500	4710.866699	23.187668
471.188721	922.171082	17386.910156	4730.557129	23.130558
471.543365	923.805725	17584.777344	4775.584473	23.118574
471.898010	932.127686	17731.451172	4829.602539	23.200188
472.252625	933.613708	17917.283203	4884.734863	23.264236
472.607178	930.270020	18143.460938	4936.450195	23.273895
472.961700	928.858398	18361.169922	4956.585938	23.104952
473.316193	932.945007	18535.779297	4991.805176	23.057993
473.670654	931.533264	18562.158203	4999.532715	23.073484
474.025055	928.338196	18635.123047	5019.000000	23.102228
474.379456	919.867676	18691.742188	5016.474121	23.051065
474.733795	927.223633	18824.373047	5048.201172	23.025888
475.088104	920.313477	19024.693359	5101.476074	23.094759
475.442383	928.115234	19173.669922	5150.961426	23.144520
475.796570	926.034851	19418.421875	5204.533691	23.136543
476.150787	939.632263	19729.896484	5293.919922	23.173105
476.504944	934.282471	20097.474609	5382.860840	23.214182
476.859070	939.260742	20451.525391	5464.222168	23.190344
477.213135	927.892395	20740.712891	5507.168457	23.112690
477.567200	923.062683	21084.138672	5572.703613	23.062466
477.921173	917.935852	21420.656250	5642.919922	23.045643
478.275146	919.867676	21792.988281	5720.343750	22.998363
478.629089	922.171082	22091.388672	5780.156738	22.948349
478.983002	928.041016	22476.500000	5862.781250	22.900663
479.336823	929.601318	22869.187500	5966.954590	22.960112
479.690643	931.458923	23332.468750	6107.832031	23.107767
480.044403	923.211243	23892.263672	6245.218262	23.170336
480.398163	927.892395	24795.412109	6443.978027	23.111263
480.751862	926.554932	26006.474609	6715.703125	23.082802
481.105499	932.201965	27627.833984	7132.243652	23.224928
481.459137	930.270081	29775.328125	7677.105469	23.389917
481.812744	929.601379	32607.970703	8426.968750	23.667150
482.166290	926.554993	36164.917969	9343.270508	23.885094
482.519806	923.582825	40231.285156	10418.430664	24.155184
482.873291	928.561218	44476.941406	11497.676758	24.269825
483.226715	937.477478	48359.855469	12515.030273	24.413691
483.580139	940.375305	51088.621094	13292.309570	24.630840
483.933502	943.867493	52860.667969	13761.085938	24.687998
484.286804	942.307190	53540.386719	13861.691406	24.562464
484.640106	940.598145	53567.062500	13654.387695	24.158546
484.993347	938.146179	52745.417969	13233.612305	23.733088
485.346558	930.344421	51352.765625	12706.953125	23.355896
485.699738	926.926453	49705.996094	12218.339844	23.148069
486.052887	924.177246	48216.000000	11852.398438	23.108055
486.405975	923.062683	47305.863281	11680.238281	23.192165
486.759064	930.195801	46904.406250	11626.147461	23.265110
487.112061	933.687988	46794.582031	11648.437500	23.363586
487.464996	933.910950	46738.488281	11657.948242	23.412588
487.817963	934.951172	46564.996094	11593.007813	23.357540
488.170868	937.254578	46030.613281	11402.941406	23.208931
488.523743	941.192566	45152.503906	11106.473633	22.992489
488.876587	938.591980	43926.511719	10752.792969	22.830139
489.229401	947.731201	42708.683594	10413.303711	22.666082
489.582153	940.375183	41528.609375	10161.342773	22.718327
489.934845	939.483582	40802.003906	10016.229492	22.770126
490.287537	923.211243	40501.894531	10026.557617	23.000629
490.640198	936.065674	40691.292969	10118.767578	23.098101
490.992798	934.802551	40928.910156	10212.092773	23.196642
491.345337	941.266846	41178.640625	10261.948242	23.164238
491.697876	942.901550	41017.332031	10190.023438	23.074869
492.050354	951.223389	40559.402344	10047.138672	22.964739
492.402832	950.480408	39486.769531	9719.612305	22.755518
492.755219	943.495911	37952.269531	9294.453125	22.564804
493.107605	935.471252	36028.796875	8777.529297	22.346296
493.459930	937.626160	34038.152344	8300.356445	22.243544
493.812225	937.031555	32053.376953	7856.843750	22.238512
494.164490	936.511475	30306.296875	7471.881348	22.252018
494.516724	932.053284	28900.193359	7175.710938	22.324179
494.868896	929.006897	27918.726563	6976.653809	22.407225
495.221039	935.991394	27349.791016	6889.347656	22.538813
495.573120	937.848938	26944.248047	6838.228027	22.688181
495.925201	949.291687	26855.677734	6843.503418	22.751965
496.277222	954.269836	26865.562500	6855.912109	22.776333
496.629211	953.155273	26942.835938	6877.162598	22.793692
496.981140	944.907715	26939.046875	6869.435059	22.791782
497.333069	938.443359	26910.662109	6848.407715	22.754946
497.684967	935.991394	26774.462891	6809.992676	22.733549
498.036804	933.316406	26610.701172	6747.876465	22.644674
498.388580	936.362854	26270.244141	6664.136719	22.609146
498.740326	937.700378	25942.201172	6572.521484	22.535229
499.092072	939.855164	25448.310547	6463.667969	22.538397
499.443756	936.139954	24984.662109	6373.539063	22.610117
499.795410	936.660095	24522.125000	6262.307129	22.580208
500.147003	935.025452	24173.498047	6175.670410	22.551590
500.498566	934.876770	23824.796875	6105.454590	22.588884
500.850098	933.019287	23523.572266	6037.096191	22.593857
501.201599	936.362976	23228.666016	5985.158691	22.648157
501.553009	934.208069	23001.375000	5910.039063	22.548573
501.904449	939.334961	22849.796875	5896.144043	22.623026
502.255859	948.994324	22750.228516	5889.158691	22.660023
502.607178	950.851868	22765.087891	5917.617188	22.768457
502.958405	945.502136	22759.814453	5892.948730	22.679819
503.309692	931.979004	22772.669922	5900.082031	22.747004
503.660919	928.561096	22799.640625	5899.264160	22.727287
504.012115	931.236023	22822.302734	5918.880371	22.783926
504.363251	930.270020	22866.218750	5927.945313	22.783037
504.714294	928.709717	22835.458984	5918.286621	22.776438
505.065369	931.236023	22839.914063	5921.480469	22.777479
505.416443	930.418701	22756.025391	5878.088379	22.669106
505.767395	930.641602	22705.646484	5858.992188	22.633064
506.118317	933.167908	22604.669922	5836.775879	22.626987
506.469238	938.517761	22615.517578	5853.122559	22.671980
506.820160	943.124512	22639.072266	5867.166016	22.695675
507.170929	947.434021	22739.083984	5904.316895	22.746706
507.521729	943.570129	22917.115234	5940.873535	22.742363
507.872498	940.969666	23121.593750	6005.071777	22.831196
508.223236	932.127625	23359.882813	6060.576172	22.866526
508.573883	931.756165	23526.619141	6117.045410	22.948973
508.924500	939.112061	23746.330078	6160.513184	22.893635
509.275116	947.211121	23908.757813	6201.230469	22.881819
509.625702	950.480286	24171.716797	6237.267578	22.767035
509.976196	954.046936	24345.212891	6271.298828	22.731880
510.326660	952.783875	24567.302734	6296.412598	22.628574
510.677124	958.876648	24768.958984	6342.406250	22.610294
511.027557	951.297791	24972.328125	6383.718750	22.615269
511.377869	946.245117	25158.234375	6436.250000	22.674738
511.728180	934.951172	25247.171875	6460.770996	22.728569
512.078430	939.409241	25292.796875	6480.163574	22.751474
512.428650	936.065674	25290.343750	6479.717285	22.762537
512.778931	938.443359	25256.533203	6465.376953	22.727663
513.129028	935.471252	25181.712891	6446.503906	22.729431
513.479126	938.294739	25113.578125	6413.216797	22.646774
513.829285	946.393738	24961.849609	6388.622559	22.661362
514.179382	946.022278	24850.248047	6356.895020	22.635632
514.529297	944.833435	24721.775391	6362.318848	22.784618
514.879272	938.220459	24750.531250	6369.080566	22.806944
515.229187	938.443359	24766.509766	6363.954590	22.769415
515.579163	940.078064	24944.611328	6398.058594	22.737291
515.928955	940.449646	25147.978516	6453.860840	22.775604
516.278748	941.192627	25571.281250	6567.617676	22.843706
516.628540	948.474304	26088.798828	6704.929199	22.897299
516.978333	950.480408	26785.240234	6874.115723	22.928934
517.327942	942.455750	27509.765625	7051.625000	22.995062
517.677612	930.418701	28218.314453	7216.354004	23.035618
518.027222	928.189636	28787.994141	7354.631348	23.067074
518.376831	937.180237	29290.279297	7465.045410	23.023462
518.726379	938.443359	29608.521484	7502.643066	22.895647
519.075867	941.489746	29650.054688	7479.980469	22.775402
519.425293	938.294739	29533.177734	7417.121094	22.657291
519.774658	943.793213	29176.451172	7316.514160	22.572159
520.124084	944.536194	28817.271484	7219.400391	22.512554
520.473389	941.638428	28304.359375	7097.173340	22.496063
520.822693	938.889160	27830.603516	6997.978516	22.531435
521.171997	941.935547	27412.208984	6893.509277	22.483990
521.521240	944.907654	27133.794922	6830.203125	22.472492
521.870361	950.331726	26945.509766	6796.173340	22.488178
522.219482	948.251282	26852.408203	6806.946777	22.616816
522.568604	948.548523	26828.037109	6838.005371	22.757238
522.917664	943.347351	27005.771484	6884.666504	22.796495
523.266724	941.489746	27316.578125	6961.347656	22.824030
523.615662	943.867493	27866.640625	7112.999512	22.914177
523.964600	947.731201	28600.380859	7308.118652	23.001005
524.313538	944.833435	29537.484375	7556.438965	23.123444
524.662354	943.198730	30565.462891	7779.643066	23.078737
525.011169	943.347351	31674.359375	8043.789551	23.105137
525.359985	949.068665	32888.613281	8304.591797	23.029516
525.708740	945.056335	34145.441406	8626.620117	23.136971
526.057434	940.003662	35577.035156	8972.944336	23.191769
526.406067	939.186340	37205.082031	9395.801758	23.318369
526.754700	940.672424	39259.328125	9879.735352	23.328226
527.103333	946.022217	41713.695313	10512.793945	23.466562
527.451782	940.895325	44489.566406	11214.211914	23.590424
527.800293	947.656982	47144.109375	11955.233398	23.827751
528.148743	940.821045	49278.011719	12546.163086	24.009136
528.497131	945.204895	50677.578125	12912.995117	24.064384
528.845642	943.570251	51240.644531	12956.015625	23.882990
529.193909	945.650696	51136.996094	12791.436523	23.601254
529.542175	947.062500	50197.503906	12419.921875	23.294937
529.890503	944.239014	48637.894531	11913.920898	23.000296
530.238770	943.793152	46508.449219	11288.812500	22.704044
530.586914	946.542297	44297.500000	10672.172852	22.434639
530.934998	951.594971	42154.160156	10144.772461	22.312149
531.283142	961.031433	40571.964844	9797.780273	22.308863
531.631226	959.396729	39467.527344	9600.208008	22.438929
531.979248	956.796143	39029.289063	9561.273438	22.600248
532.327148	946.690979	38981.289063	9607.266602	22.770256
532.675110	939.483643	39140.964844	9720.875977	22.987047
533.023071	935.545593	39356.066406	9813.011719	23.106054
533.370850	934.802551	39323.449219	9788.640625	23.063688
533.718689	932.870667	39119.710938	9711.663086	22.989050
534.066467	933.539368	38611.261719	9533.782227	22.825804
534.414246	930.938782	37825.878906	9324.916992	22.751028
534.761963	944.313293	36969.839844	9071.991211	22.560884
535.109619	953.006653	36095.593750	8876.425781	22.546488
535.457153	960.882813	35328.191406	8715.413086	22.563683
535.804749	951.817871	34653.972656	8574.831055	22.618771
536.152344	948.845703	34127.089844	8455.500977	22.625235
536.499817	941.341248	33609.796875	8333.570313	22.628033
536.847229	941.118225	33075.113281	8212.605469	22.628645
537.194641	932.127686	32481.880859	8059.838379	22.591970
537.542114	942.381409	31929.662109	7935.976563	22.569244
537.889404	944.313293	31362.732422	7799.630859	22.536730
538.236694	949.588684	30825.078125	7682.083984	22.535179
538.583984	943.718811	30477.119141	7611.941895	22.578583
538.931213	944.536316	30496.140625	7636.462402	22.644884
539.278381	946.393799	30915.431641	7782.541504	22.810701
539.625488	946.022217	31792.054688	8010.205078	22.901430
539.972595	945.279236	33116.500000	8373.842773	23.090710
540.319641	939.780823	34704.644531	8793.950195	23.261370
540.666687	950.703369	36333.437500	9210.120117	23.343071
541.013611	946.393799	37814.066406	9574.648438	23.403309
541.360596	954.046936	38880.464844	9819.475586	23.375340
541.707458	946.468079	39519.386719	9920.973633	23.266338
542.054260	951.223450	39548.441406	9867.178711	23.099993
542.401062	949.068665	39204.121094	9708.170898	22.896591
542.747864	948.399963	38398.386719	9481.324219	22.784851
543.094666	957.093323	37212.214844	9160.782227	22.627668
543.441284	952.189392	35751.722656	8785.924805	22.511034
543.787903	959.693909	34200.722656	8401.037109	22.386021
544.134460	953.675354	32734.507813	8046.910156	22.319223
544.481079	961.402893	31493.951172	7778.157715	22.326191
544.827637	957.093445	30403.406250	7570.556152	22.459393
545.174072	966.306885	29502.337891	7407.609375	22.572525
545.520508	964.077820	28754.259766	7269.853027	22.690659
545.866943	967.718567	28209.177734	7159.290527	22.728489
546.213318	959.322327	27798.804688	7084.095215	22.820011
546.559631	962.963196	27423.500000	7006.003418	22.837934
546.905823	954.492737	27018.476563	6894.623535	22.790571
547.252136	949.886047	26541.304688	6766.451660	22.728579
547.598389	945.725037	25959.365234	6615.617188	22.667200
547.944458	944.759094	25301.193359	6453.859863	22.618668
548.290588	949.960266	24588.703125	6276.054199	22.531206
548.636658	950.628967	23810.458984	6094.829590	22.503233
548.982727	954.715637	23084.890625	5924.974121	22.459190
549.328735	951.669189	22389.119141	5766.039551	22.457756
549.674622	942.975769	21820.109375	5629.471191	22.447985
550.020569	938.666260	21312.990234	5526.562012	22.518026
550.366455	931.607605	20829.726563	5445.349121	22.684263
550.712280	931.681824	20493.283203	5383.231934	22.756575
551.058044	935.545593	20315.181641	5360.049316	22.830685
551.403748	942.752930	20253.734375	5344.000000	22.791422
551.749512	949.143005	20244.816406	5356.705566	22.842232
552.095154	945.204895	20210.490234	5353.064941	22.879807
552.440735	943.570313	20261.013672	5376.470215	22.947653
552.786316	947.656921	20267.255859	5369.708984	22.888943
553.131897	939.706543	20226.462891	5357.448730	22.905575
553.477417	930.492981	20111.517578	5314.873535	22.857904
553.822815	920.536438	19934.750000	5270.440918	22.877119
554.168213	934.876892	19765.490234	5217.388184	22.742283
554.513672	950.257507	19511.076172	5146.875488	22.610092
554.859009	958.579407	19248.564453	5079.185547	22.529303
555.204285	957.762024	18983.527344	5024.870605	22.562752
555.549500	956.944824	18721.537109	4973.675293	22.610880
555.894714	946.468079	18501.898438	4920.994629	22.639872
556.239990	940.598206	18272.302734	4872.772461	22.687752
556.585022	938.889221	18129.640625	4852.636719	22.766588
556.930115	946.096619	17952.353516	4820.091797	22.779821
557.275146	946.616638	17806.201172	4780.859863	22.742216
557.620178	939.780762	17666.585938	4731.968262	22.671320
557.965149	934.282410	17574.080078	4720.823730	22.755934
558.310059	930.121399	17452.001953	4713.616211	22.899904
558.654968	932.870605	17367.443359	4704.179688	22.947412
558.999756	935.396973	17279.320313	4686.569824	22.951483
559.344604	943.421631	17283.259766	4682.334473	22.882191
559.689331	936.734375	17252.943359	4676.242188	22.918974
560.033997	946.839539	17247.593750	4680.105957	22.902416
560.378723	944.016052	17284.373047	4667.919922	22.789610
560.723389	957.167664	17334.230469	4682.111816	22.744884
561.067932	937.625977	17422.947266	4696.823730	22.803305
561.412476	938.666260	17417.078125	4701.504395	22.834955
561.757019	934.208008	17403.927734	4704.328613	22.891226
562.101501	946.542297	17364.250000	4694.594238	22.829327
562.445862	948.102722	17308.597656	4694.965820	22.901894
562.790222	942.678711	17267.208984	4684.191895	22.919577
563.134644	945.502136	17222.849609	4664.427246	22.847242
563.478943	939.112122	17240.755859	4661.381348	22.833706
563.823181	937.774597	17284.521484	4668.514160	22.822519
564.167358	929.304199	17375.541016	4695.263672	22.898609
564.511536	936.214355	17519.244141	4734.272461	22.903282
564.855774	943.495911	17713.250000	4784.277832	22.903030
565.199768	948.251282	17930.212891	4857.094238	23.017618
565.543823	943.198730	18151.115234	4910.072266	23.052608
565.887817	937.774597	18388.212891	4975.830078	23.140139
566.231812	940.523865	18557.105469	5002.504395	23.057711
566.575745	942.455750	18623.458984	5032.225586	23.130869
566.919617	946.542480	18633.412109	5008.523438	22.966082
567.263428	941.266907	18577.833984	4971.372070	22.850849
567.607239	938.591980	18507.322266	4931.620117	22.728041
567.950989	937.774658	18345.564453	4898.035156	22.749933
568.294678	942.678650	18225.119141	4875.373047	22.755432
568.638367	946.988220	18091.671875	4830.791504	22.653105
568.981995	938.294739	17991.216797	4808.723633	22.696573
569.325623	940.152344	17927.166016	4794.977539	22.692778
569.669128	935.619934	17897.000000	4825.218750	22.932089
570.012573	939.260742	17911.265625	4838.593262	22.975086
570.356140	936.882996	17999.611328	4876.041504	23.086334
570.699524	938.294739	18098.062500	4887.187500	23.012508
571.042908	937.848938	18305.439453	4932.140137	22.998535
571.386230	929.527039	18464.152344	4973.229980	23.061245
571.729492	933.539368	18661.947266	5020.857910	23.055193
572.072815	935.471252	18766.341797	5043.222656	23.037302
572.416016	942.009949	18804.458984	5049.315918	22.994081
572.759094	943.941711	18835.740234	5048.126953	22.938917
573.102234	943.050110	18783.207031	5037.204590	22.949097
573.445374	944.164612	18708.533203	5015.953613	22.921101
573.788391	931.979004	18565.798828	4985.118652	22.985035
574.131409	936.511475	18447.210938	4960.078125	22.977760
574.474365	933.687988	18360.128906	4936.523926	22.969898
574.817261	944.461914	18266.878906	4920.697754	22.954277
575.160156	944.759094	18105.343750	4887.930664	22.978073
575.502930	942.455750	17891.351563	4845.949219	23.030958
575.845703	941.861328	17692.888672	4792.749023	22.988964
576.188477	951.446350	17473.029297	4734.866699	22.899868
576.531250	957.687683	17224.634766	4675.127441	22.852718
576.873901	949.514404	16892.947266	4606.471191	22.937073
577.216431	939.929443	16599.673828	4540.788086	22.994364
577.559082	932.201965	16296.742188	4473.469727	23.048317
577.901611	936.734375	15994.032227	4387.649902	22.918558
578.244080	935.545593	15697.340820	4314.461426	22.889599
578.586487	936.808594	15415.065430	4252.344238	22.900103
578.928955	1074.863159	15314.905273	4351.984863	23.013426
579.271301	1076.572021	15060.269531	4296.703613	23.027756
579.613647	1079.915649	14830.303711	4238.524902	22.971056
579.955872	945.427734	14474.690430	4052.098877	22.962605
580.298157	942.158447	14298.073242	4008.186279	22.956329
580.640320	934.876770	14139.362305	3973.932373	23.015327
580.982483	928.412537	14005.393555	3954.093750	23.137459
581.324524	924.028748	13908.057617	3937.078125	23.205811
581.666626	925.068848	13800.168945	3924.075439	23.293076
582.008728	925.960632	13726.760742	3894.800049	23.192608
582.350647	926.034851	13636.333008	3889.673096	23.316828
582.692566	930.641602	13579.194336	3869.685791	23.236210
583.034424	933.242188	13508.976563	3865.302002	23.315218
583.376343	936.808777	13419.516602	3837.809814	23.240158
583.718201	938.740540	13360.149414	3829.859375	23.275290
584.059937	941.489746	13313.859375	3807.122314	23.161551
584.401611	943.124512	13257.984375	3799.766602	23.196709
584.743347	937.997559	13208.870117	3795.085693	23.283495
585.085022	934.653992	13146.305664	3785.500732	23.345301
585.426514	932.499207	13114.653320	3776.509766	23.345711
585.768127	925.960510	13086.938477	3749.166748	23.215290
586.109619	922.839783	13071.855469	3735.569092	23.151911
586.451172	929.081238	13072.747070	3722.194580	23.000578
586.792542	934.728271	13054.541992	3740.399170	23.149456
587.133850	933.167908	13032.696289	3736.758057	23.171070
587.475220	929.006897	13046.070313	3749.389648	23.276125
587.816589	932.573486	13089.018555	3752.733154	23.198885
588.157776	943.273132	13148.683594	3775.395508	23.203827
588.498962	947.359680	13209.760742	3799.097900	23.255953
588.840210	948.697083	13274.848633	3792.485107	23.071177
589.181335	949.291565	13341.425781	3816.187500	23.134806
589.522400	946.839539	13390.242188	3812.472656	23.029337
589.863403	945.725037	13413.053711	3824.063721	23.087051
590.204407	943.198730	13402.502930	3809.797607	23.007696
590.545410	938.071838	13409.413086	3816.856445	23.083200
590.886353	942.604309	13344.323242	3817.673828	23.182831
591.227112	935.768372	13270.614258	3817.153564	23.359718
591.567932	932.870605	13140.137695	3793.897217	23.437077
591.908752	932.201904	13061.006836	3770.268799	23.399395
592.249512	936.808777	13049.340820	3759.569092	23.304461
592.590149	937.031555	13017.838867	3736.238037	23.170691
592.930786	934.802429	13022.221680	3724.423828	23.078718
593.271423	931.607483	13013.824219	3718.925781	23.069593
593.612000	933.985168	13043.026367	3745.005859	23.214231
593.952576	937.774719	13118.739258	3772.497314	23.271742
594.292969	944.164734	13231.010742	3797.091797	23.219360
594.633484	946.096497	13389.127930	3832.162842	23.194239
594.973877	939.037781	13549.843750	3878.379150	23.308117
595.314209	932.127625	13714.499023	3925.858398	23.420778
595.654480	930.641602	13935.698242	3981.957031	23.462530
595.994812	941.489746	14184.536133	4027.133545	23.300104
596.335022	940.895325	14413.910156	4075.355713	23.264730
596.675171	948.399902	14553.004883	4103.367676	23.190439
597.015320	935.174011	14616.682617	4136.432617	23.398432
597.355408	939.780823	14574.776367	4126.550293	23.371988
597.695496	936.585754	14445.192383	4081.820068	23.283190
598.035461	939.037781	14195.980469	3990.650391	23.018978
598.375366	932.053284	13892.156250	3928.681885	23.121952
598.715271	923.285583	13636.332031	3872.732178	23.200155
599.055176	933.985168	13354.799805	3817.227783	23.212992
599.395081	934.728210	13118.292969	3732.225830	22.961241
599.734802	936.660156	12830.074219	3669.588623	22.978502
600.074524	928.709717	12608.354492	3616.090576	23.009098
600.414246	932.276184	12410.709961	3581.242432	23.077768
600.753906	936.808777	12281.497070	3557.986084	23.104885
601.093506	932.499207	12202.067383	3547.732422	23.206152
601.433044	929.750000	12208.976563	3550.258545	23.233051
601.772583	926.480652	12267.230469	3552.264648	23.153530
602.112122	929.749939	12409.074219	3595.434326	23.221613
602.451538	930.047119	12584.428711	3652.276123	23.357986
602.790894	934.505310	12841.515625	3723.235107	23.420906
603.130310	933.613708	13114.578125	3782.751953	23.390087
603.469604	929.898499	13412.606445	3854.528076	23.429449
603.808838	931.533203	13697.260742	3921.028564	23.418135
604.148010	930.047180	13986.522461	3998.749268	23.503296
604.487305	934.356750	14191.671875	4034.563232	23.384874
604.826416	930.567322	14293.987305	4060.940674	23.424942
605.165527	931.384583	14252.526367	4036.866943	23.312435
605.504456	931.607422	14163.585938	4006.922852	23.241539
605.843445	930.938782	13973.742188	3943.617188	23.098396
606.182434	932.276184	13743.997070	3882.317139	23.026112
606.521423	933.019226	13441.660156	3808.014648	22.984076
606.860229	936.808777	13168.002930	3750.578857	23.004868
607.199036	940.969666	12913.886719	3695.371826	23.005272
607.537903	938.220459	12743.807617	3665.576172	23.102245
607.876648	944.239014	12608.799805	3646.554443	23.166885
608.215271	941.861328	12558.942383	3635.408936	23.186096
608.553955	937.180359	12531.971680	3640.758789	23.317181
608.892578	933.390808	12567.264648	3644.919922	23.307190
609.231140	925.291809	12621.432617	3679.173096	23.545214
609.569641	934.356750	12627.079102	3701.612549	23.666479
609.908081	932.796387	12596.836914	3715.507568	23.857180
610.246521	944.238953	12503.809570	3703.396240	23.869030
610.584961	944.164612	12429.656250	3663.495850	23.676229
610.923340	942.529968	12277.856445	3616.164795	23.586748
611.261597	945.873596	12051.307617	3549.812500	23.447432
611.599854	941.341125	11806.406250	3495.719971	23.510019
611.938110	946.096497	11579.781250	3434.717529	23.403187
612.276245	943.495911	11368.613281	3392.439453	23.490801
612.614319	945.056335	11139.018555	3332.699951	23.422134
612.952393	932.796387	10918.264648	3277.641602	23.482574
613.290466	925.143066	10735.628906	3236.180908	23.556812
613.628479	926.331970	10548.979492	3203.041748	23.659910
613.966370	934.505371	10409.587891	3178.076172	23.678642
614.304260	938.369080	10273.317383	3156.082275	23.757101
614.642151	938.517639	10169.887695	3123.760498	23.671925
614.979980	934.802490	10072.625977	3106.373779	23.764645
615.317749	927.818054	10014.891602	3087.798096	23.769810
615.655396	927.595215	9968.452148	3077.321289	23.777901
615.993164	929.081238	9942.223633	3067.885010	23.729834
616.330811	942.009949	9924.392578	3054.956299	23.523228
616.668396	943.793152	9895.414063	3056.071045	23.596596
617.005859	941.786926	9878.622070	3051.761475	23.609865
617.343445	935.099792	9845.408203	3044.479736	23.673477
617.680908	931.607483	9839.983398	3047.823242	23.755350
618.018311	929.155518	9855.958008	3060.677734	23.877779
618.355652	925.143250	9869.183594	3056.739502	23.832588
618.692993	923.211365	9864.651367	3048.640625	23.770546
619.030273	923.954407	9835.598633	3027.241211	23.601557
619.367554	928.338196	9805.209961	3011.712158	23.469687
619.704712	933.613586	9796.590820	3002.349854	23.341324
620.041870	937.403015	9760.480469	3003.464600	23.416565
620.379028	924.474426	9717.905273	3004.430420	23.653522
620.716064	923.731445	9651.032227	2987.043701	23.642044
621.053040	917.267090	9608.010742	2969.359375	23.612389
621.389954	922.393982	9576.358398	2945.954102	23.383039
621.726929	921.576660	9564.692383	2952.641602	23.499224
622.063843	929.601257	9549.831055	2945.879883	23.390079
622.400635	928.858215	9526.575195	2942.759033	23.423672
622.737427	931.458801	9503.095703	2940.158936	23.434267
623.074219	922.319641	9480.284180	2948.852295	23.680079
623.410889	928.041016	9464.382813	2961.855225	23.825361
623.747559	922.468323	9492.990234	2965.792969	23.841311
624.084167	926.406433	9530.364258	2968.616455	23.735704
624.420715	925.068909	9615.440430	2982.734131	23.677530
624.757324	926.703552	9667.600586	3014.535889	23.885788
625.093750	927.669434	9755.426758	3044.108154	23.974815
625.430176	930.938782	9840.280273	3066.250244	23.967108
625.766602	934.356750	9970.087891	3086.535156	23.818531
626.102905	933.836609	10089.714844	3112.466797	23.794880
626.439209	938.889160	10231.856445	3147.983398	23.771679
626.775452	927.000732	10297.019531	3158.682861	23.817265
627.111694	925.440369	10328.821289	3159.946045	23.762789
627.447876	914.740723	10307.125000	3156.379639	23.866558
627.783997	918.307312	10273.391602	3147.834717	23.832254
628.120056	925.440430	10237.057617	3136.837891	23.748802
628.456055	925.143250	10153.094727	3104.293701	23.614672
628.792053	925.589050	10086.668945	3067.810791	23.383942
629.128052	916.375427	9980.118164	3042.027588	23.452255
629.463928	927.446533	9867.475586	3031.179688	23.531614
629.799744	925.737549	9751.117188	3023.600586	23.770796
630.135559	932.350525	9634.090820	2999.080811	23.750769
630.471375	923.062683	9532.073242	2961.409424	23.676897
630.807068	935.545593	9434.290039	2939.341064	23.577547
631.142700	939.112122	9338.959961	2929.458984	23.695036
631.478333	936.957336	9238.057617	2925.298096	23.952738
631.813965	927.149414	9151.569336	2899.366455	23.980015
632.149475	918.010071	9058.170898	2872.246094	24.007341
632.484924	916.895508	9028.598633	2853.595947	23.875385
632.820435	917.861511	8994.343750	2853.670166	23.968462
633.155884	919.198914	9012.325195	2841.484619	23.752077
633.491150	935.025391	9006.975586	2844.085205	23.650539
633.826477	940.003723	9004.524414	2841.558838	23.579271
634.161804	948.845764	8974.506836	2844.307861	23.617521
634.497009	933.167908	8937.949219	2828.555908	23.678198
634.832153	928.783997	8871.967773	2808.345703	23.662575
635.167297	914.294983	8798.184570	2779.664795	23.660528
635.502380	906.270264	8720.539063	2767.033203	23.812376
635.837463	907.236145	8635.758789	2741.770264	23.737192
636.172424	911.991516	8553.580078	2734.191406	23.845827
636.507324	914.146301	8457.135742	2707.888428	23.780256
636.842224	914.592102	8387.291992	2693.622314	23.807062
637.177124	916.226868	8317.743164	2676.978271	23.789064
637.511963	916.672607	8239.428711	2653.721680	23.721249
637.846741	907.682068	8161.931152	2633.288330	23.787523
638.181396	908.796631	8056.123535	2616.495850	23.892838
638.516113	923.360046	7991.480469	2599.034912	23.707502
638.850769	927.966614	7919.109375	2583.208252	23.676270
639.185303	935.248352	7887.085449	2564.929932	23.442461
639.519836	926.406311	7823.853516	2558.391357	23.660711
639.854370	927.818054	7758.393066	2547.989014	23.719393
640.188843	914.072083	7684.609863	2528.893066	23.850706
640.523254	924.771667	7638.839844	2527.184326	23.866491
640.857605	928.932617	7584.152832	2520.793945	23.918987
641.191895	944.387512	7539.125488	2507.419678	23.701204
641.526184	929.972839	7474.333496	2488.249512	23.810982
641.860413	932.499207	7446.172363	2468.856445	23.586647
642.194580	920.090576	7416.674316	2458.899902	23.686438
642.528748	923.508545	7370.755859	2454.144531	23.740923
642.862793	912.957581	7324.316406	2446.268311	23.915535
643.196838	911.843018	7270.149902	2451.618164	24.216749
643.530823	916.152527	7253.951660	2443.296631	24.095810
643.864746	917.341492	7228.837402	2452.510010	24.323368
644.198669	922.096741	7232.106934	2453.401367	24.267864
644.532532	920.313477	7216.875000	2447.606201	24.255980
644.866333	927.966736	7197.036621	2427.544189	23.920254
645.200073	929.675720	7179.574707	2408.448242	23.660742
645.533813	928.115295	7159.067871	2413.946533	23.845974
645.867554	919.719055	7153.494629	2415.209717	23.990128
646.201172	918.827454	7153.048340	2430.442139	24.247051
646.534729	915.186523	7163.450684	2423.160400	24.134285
646.868225	924.177185	7154.609375	2425.463623	24.096024
647.201782	929.081116	7124.516113	2420.336914	24.070236
647.535217	939.855042	7133.804688	2417.884766	23.862476
647.868591	940.821045	7148.664551	2417.438965	23.786325
648.201965	932.796387	7152.528809	2410.083008	23.751610
648.535278	928.263855	7114.262207	2399.234863	23.779037
648.868591	925.663269	7084.986816	2400.052246	23.937513
649.201782	922.319641	7072.281738	2395.222412	23.949787
649.534912	925.811951	7093.978027	2397.897217	23.865849
649.868103	926.257751	7080.900879	2394.925293	23.862757
650.201172	925.886230	7070.126953	2394.108154	23.895905
650.534180	922.765564	7045.532715	2397.302979	24.082859
650.867188	920.462097	7056.604004	2393.736328	24.009779
651.200134	918.455872	7048.876465	2392.993164	24.052794
651.533020	912.140137	7020.715332	2386.900635	24.142464
651.865845	911.099915	6997.979004	2391.061768	24.313971
652.198608	918.678772	6986.164551	2381.476563	24.108797
652.531433	918.455872	6962.908203	2373.080566	24.065453
652.864136	917.861572	6924.047363	2367.359131	24.133413
653.196777	1519.119141	7540.760254	2974.635010	24.171415
653.529358	1553.967163	7532.216309	2998.857666	24.169125
653.861938	1552.035278	7496.401855	2976.046875	23.955648
654.194519	950.183289	6801.373535	2345.662842	23.849497
654.526978	923.731445	6757.088379	2307.396729	23.719881
654.859375	914.517883	6714.885254	2299.297607	23.874002
655.191833	909.539612	6679.442871	2299.000732	24.081186
655.524170	902.183655	6622.453125	2304.424561	24.513548
655.856445	911.842957	6604.248535	2305.390625	24.480820
656.188660	937.105957	6616.657715	2332.065186	24.561079
656.520874	940.895325	6631.814941	2321.142822	24.253508
656.853088	941.786926	6661.609863	2326.938477	24.216688
657.185181	911.991638	6682.712402	2307.322510	24.179489
657.517212	907.756348	6756.717285	2332.065186	24.351484
657.849243	907.013367	6841.571777	2357.699707	24.444721
658.181274	925.217468	6978.437500	2397.154297	24.316591
658.513123	928.412415	7097.767090	2417.216064	24.132244
658.844971	926.926331	7225.270996	2446.862793	24.132317
659.176819	921.279480	7295.115234	2476.806885	24.404884
659.508667	917.861511	7374.842285	2499.766357	24.499140
659.840393	922.171082	7411.398926	2512.917969	24.513653
660.172058	922.245422	7411.621582	2514.478271	24.535994
660.503662	931.161804	7365.033691	2499.543457	24.376947
660.835266	933.316467	7313.394043	2470.342529	24.091026
661.166931	926.852051	7214.942871	2432.002441	23.936523
661.498413	927.372253	7123.921875	2408.522705	23.902824
661.829773	925.960449	6990.325684	2369.290771	23.800188
662.161194	927.966614	6856.580566	2341.278809	23.838831
662.492615	921.502380	6697.053223	2306.653809	23.983017
662.823975	923.434265	6574.378906	2302.790039	24.409294
663.155212	925.068848	6471.841797	2273.217529	24.305099
663.486450	923.211365	6380.597656	2243.050537	24.184454
663.817627	923.359924	6272.264160	2210.728760	24.067900
664.148743	917.415710	6194.989746	2195.422607	24.215801
664.479858	919.867676	6137.181641	2185.911865	24.266207
664.810913	919.050354	6095.423340	2171.942871	24.204063
665.141907	920.907959	6059.980957	2152.846924	23.972006
665.472778	914.146423	6000.984863	2146.382813	24.224012
665.803711	921.056580	5973.195801	2143.707764	24.200663
666.134583	920.684998	5944.738281	2139.323975	24.256090
666.465454	926.926453	5934.930176	2140.735596	24.237383
666.796143	916.375488	5905.729004	2124.166260	24.207359
667.126831	923.657227	5898.967285	2138.506348	24.417557
667.457458	930.938782	5891.611328	2130.853271	24.188547
667.788147	933.539368	5883.214844	2138.580811	24.345869
668.118774	934.579651	5873.853027	2128.475830	24.171495
668.449219	931.756104	5870.583496	2136.426025	24.391823
668.779663	925.440430	5890.050781	2146.308105	24.591410
669.110107	924.623047	5878.162109	2144.079102	24.617874
669.440552	918.604492	5870.955078	2138.655029	24.635786
669.770874	923.285645	5827.339355	2123.051758	24.464783
670.101135	914.294922	5808.614746	2120.822510	24.651588
670.431396	909.390930	5775.921875	2112.054932	24.712965
670.761597	909.613953	5750.881348	2109.008301	24.774385
671.091797	918.901672	5722.201172	2105.887695	24.711891
671.421875	930.418701	5694.485840	2098.383057	24.516117
671.751892	928.709717	5683.341309	2090.655518	24.438187
672.081909	932.796326	5651.167969	2079.881836	24.311045
672.411865	925.217468	5622.486816	2069.850830	24.368057
672.741821	918.753113	5559.329590	2055.733154	24.500834
673.071716	905.973145	5541.199219	2042.730347	24.524309
673.401550	910.951355	5492.828125	2042.879028	24.704454
673.731262	915.558105	5486.290527	2037.677734	24.550106
674.060974	916.449768	5439.330566	2033.814087	24.704702
674.390625	917.638672	5413.993164	2028.166992	24.698416
674.720276	921.502380	5385.535156	2023.485962	24.685833
675.049927	923.062744	5379.517090	2022.743042	24.676128
675.379395	918.084473	5378.922363	2010.483032	24.488640
675.708923	913.774841	5338.427734	2013.083618	24.845087
676.038330	909.019531	5295.332031	1999.411743	24.858973
676.367737	911.397156	5274.230469	1985.740234	24.624891
676.697083	918.307312	5289.908203	1997.034180	24.675783
677.026428	928.338196	5289.536621	2006.545044	24.722719
677.355652	923.434143	5291.988281	2016.873047	25.029768
677.684875	922.988342	5299.641113	2011.820435	24.878191
678.013977	915.855286	5310.786621	2006.396362	24.813608
678.343079	930.864441	5347.195801	2008.848267	24.409035
678.672180	927.818054	5364.656738	2008.253906	24.351477
679.001221	926.852051	5418.749023	2021.034180	24.359020
679.330139	929.452698	5470.240723	2042.210449	24.505831
679.659058	931.681824	5526.636719	2059.597412	24.546824
679.987976	937.105896	5573.521484	2068.067627	24.393019
680.316772	922.616760	5595.068848	2075.349365	24.670828
680.645630	918.604492	5633.632813	2078.321533	24.596184
680.974304	920.610657	5653.248047	2090.284180	24.715048
681.302979	919.347595	5658.597656	2078.693115	24.462635
681.631653	924.400146	5645.520996	2076.240967	24.397612
681.960266	930.270020	5620.480469	2063.238037	24.156017
682.288757	937.700256	5588.753906	2061.008789	24.151701
682.617249	936.288574	5547.589844	2041.467407	23.966745
682.945679	931.756104	5494.834473	2037.009155	24.221655
683.274109	930.270081	5439.182129	2030.247559	24.395630
683.602478	930.195801	5357.746582	2014.941040	24.499893
683.930725	924.325867	5266.874512	1994.507813	24.644096
684.259033	921.056458	5184.546875	1962.111938	24.417915
684.587280	919.050354	5120.274902	1947.548462	24.480911
684.915344	924.846008	5069.823242	1930.310425	24.257418
685.243469	916.969910	5028.659668	1933.653931	24.726671
685.571533	923.062683	4984.895508	1924.217651	24.647863
685.899536	921.502258	4954.803223	1916.415649	24.667471
686.227539	923.136963	4925.676270	1908.019531	24.606443
686.555420	914.740784	4922.926758	1894.719360	24.449429
686.883301	916.524109	4911.483887	1888.552246	24.331362
687.211121	917.564270	4918.394531	1881.939331	24.104372
687.538940	922.616882	4915.942871	1900.589478	24.490177
687.866638	915.780945	4936.449707	1902.298462	24.536156
688.194336	918.678772	4916.313965	1910.545898	24.811346
688.521973	915.483704	4902.047363	1894.348022	24.554087
688.849609	916.078186	4871.880859	1899.771851	24.867105
689.177063	920.462097	4848.624023	1890.484009	24.694042
689.504578	917.192871	4804.785645	1888.329224	24.980404
689.832031	920.164978	4771.498047	1874.508911	24.779575
690.159485	918.753235	4707.300293	1859.722778	24.837214
690.486816	920.462158	4653.728027	1845.233765	24.771116
690.814087	929.081238	4604.093750	1838.917969	24.757378
691.141296	937.848938	4578.087891	1824.429077	24.354998
691.468506	936.139954	4547.178223	1805.333374	24.070457
691.795715	918.678894	4486.324219	1784.677124	24.273664
692.122803	915.706726	4426.510254	1777.024048	24.533339
692.449829	917.044128	4377.470703	1770.262329	24.656446
692.776855	923.879944	4341.359375	1755.773438	24.342312
693.103821	916.003906	4310.151855	1739.203735	24.253504
693.430664	915.335205	4270.400391	1730.807617	24.305710
693.757568	909.911133	4238.747070	1724.491821	24.470436
694.084351	908.425049	4202.338867	1724.046021	24.761454
694.411133	906.567444	4193.422363	1720.405151	24.760378
694.737854	908.722229	4178.859375	1723.823120	24.925587
695.064575	908.722229	4181.459473	1725.457642	24.955729
695.391174	906.938965	4170.314453	1730.659058	25.241352
695.717773	905.304382	4160.060547	1729.395874	25.319609
696.044250	903.223938	4183.392090	1739.723999	25.501743
696.370789	903.669739	4213.038574	1741.507202	25.317137
696.697205	904.709961	4268.468750	1755.476074	25.292126
697.023621	911.991638	4322.932129	1766.844360	25.062082
697.349915	928.486816	4408.454590	1797.531616	24.972782
697.676208	933.093567	4530.385254	1826.583862	24.837860
698.002380	925.588928	4641.765137	1857.790649	25.084970
698.328674	913.031738	4769.565918	1896.428223	25.499489
698.654724	910.431152	4873.440918	1918.050415	25.425606
698.980896	918.827393	4977.687988	1941.455688	25.194960
699.306946	922.765442	5044.337402	1950.297852	24.930597
699.632935	920.833679	5048.350098	1954.532837	25.044096
699.958862	921.799561	5024.796387	1942.644531	24.880470
700.284729	918.530212	4941.725098	1916.787109	24.812542
700.610596	925.291748	4872.624023	1895.313599	24.574112
700.936340	921.502258	4753.739746	1866.484375	24.658756
701.262146	919.570496	4627.647949	1838.323608	24.777075
701.587830	917.935791	4496.652344	1797.828735	24.586830
701.913513	920.239258	4389.878906	1768.107544	24.436783
702.239075	924.623047	4283.626465	1743.736328	24.385605
702.564697	925.366028	4191.564941	1725.532227	24.498390
702.890137	918.381592	4095.565674	1703.166992	24.700659
703.215698	905.304382	4014.055908	1674.411743	24.740072
703.541016	899.285828	3918.948486	1652.492554	24.943407
703.866455	900.474670	3854.379639	1637.186157	24.940256
704.191711	912.363098	3817.079346	1634.585571	24.863787
704.517029	910.208313	3786.318115	1629.235718	24.999998
704.842163	907.830627	3747.606201	1618.461914	25.024206
705.167419	907.310547	3713.650146	1598.102905	24.615423
705.492493	918.307312	3691.433594	1600.777710	24.610146
705.817566	919.496155	3656.139893	1592.455933	24.590696
706.142578	923.285645	3641.873779	1601.892456	24.961737
706.467590	922.393982	3633.254639	1586.437500	24.495672
706.792480	925.588928	3650.269531	1593.867676	24.526865
707.117371	918.158691	3635.334961	1586.511719	24.597338
707.442200	925.588928	3631.768311	1595.130859	24.741224
707.766907	927.446594	3630.802490	1597.285522	24.778051
708.091675	931.013184	3639.867188	1603.749878	24.834734
708.416321	916.598389	3629.242188	1595.502319	25.027390
708.741028	916.301208	3628.276367	1589.929688	24.839037
709.065552	918.901672	3642.319580	1592.084351	24.718302
709.390137	928.858215	3661.637939	1601.520874	24.614594
709.714600	931.681824	3679.396484	1620.839478	25.081121
710.039063	931.013123	3706.665771	1624.108765	24.970547
710.363403	931.830383	3744.782959	1635.551392	25.017166
710.687744	928.709778	3779.407959	1629.830078	24.594687
711.012085	926.554932	3798.875000	1642.015991	24.908821
711.336304	916.672668	3821.760498	1643.799194	25.029415
711.660461	922.096863	3833.425781	1652.195313	25.077843
711.984619	924.251526	3826.738525	1653.384155	25.120960
712.308716	927.075134	3808.831787	1644.467773	24.894283
712.632751	923.954346	3776.881592	1641.198608	25.140644
712.956726	923.582825	3756.671631	1636.368774	25.159323
713.280701	930.715820	3729.848389	1632.653687	25.076979
713.604553	931.458801	3715.804932	1617.050171	24.623064
713.928467	932.573425	3689.798828	1601.297974	24.253532
714.252258	917.861511	3661.415283	1599.960449	24.861877
714.575989	916.003906	3636.226563	1600.034790	25.146135
714.899719	913.626160	3617.799805	1595.873901	25.229437
715.223267	915.558105	3616.610596	1581.384766	24.650637
715.546936	912.883301	3605.019531	1579.081421	24.746078
715.870422	910.802734	3589.564453	1583.168091	25.099857
716.193970	917.044189	3569.799805	1597.731445	25.659630
716.517395	917.267090	3564.747070	1589.632446	25.396429
716.840820	919.050476	3547.063232	1572.319824	24.857922
717.164124	920.536438	3507.385742	1559.837036	24.713484
717.487488	920.462158	3452.475830	1552.629761	24.966990
717.810730	924.028625	3419.262451	1544.828003	24.879406
718.133972	920.016296	3389.095703	1522.165649	24.387606
718.457092	922.096680	3349.492188	1510.871460	24.255411
718.780212	920.610657	3287.375732	1505.447388	24.710382
719.103210	921.576660	3236.032227	1505.298828	25.220713
719.426208	918.976074	3183.128662	1491.775757	25.298634
719.749207	916.152527	3162.100830	1491.329956	25.609558
720.072083	915.186584	3120.268311	1481.298950	25.673079
720.394958	921.725281	3101.246826	1473.051392	25.295740
720.717773	919.793274	3066.547607	1449.051758	24.653891
721.040527	919.496094	3043.662354	1437.683472	24.394859
721.363281	918.084290	3024.938232	1438.575073	24.704643
721.685913	922.988342	3008.517334	1441.547241	24.864622
722.008545	928.041016	2993.582275	1438.426392	24.709522
722.331055	923.062683	2968.319336	1428.023926	24.689383
722.653503	922.393982	2944.170898	1413.609253	24.296215
722.976013	923.359924	2938.226563	1415.764038	24.438545
723.298401	921.650879	2947.885986	1415.317993	24.363762
723.620789	921.576660	2935.700439	1412.940430	24.395906
723.943115	917.935730	2918.908203	1405.510254	24.366879
724.265381	918.381653	2900.852539	1395.553711	24.069561
724.587585	915.929688	2910.214844	1405.733032	24.560347
724.909790	910.431335	2928.567383	1405.361694	24.524134
725.231873	912.065918	2927.229736	1422.079712	25.308800
725.553894	918.010071	2924.480713	1422.525513	25.144421
725.875916	1054.875732	3048.492188	1637.780640	29.238567
726.197937	1064.609375	3052.207031	1643.947632	29.147663
726.519775	1051.234863	3057.928467	1643.427368	29.510859
726.841675	916.226868	2936.072266	1436.791626	25.772505
727.163513	905.230042	2946.474609	1434.265259	25.917286
727.485291	914.220703	2962.449463	1439.020874	25.622147
727.806946	917.489990	2972.182861	1439.912476	25.425819
728.128662	918.827454	2994.325195	1442.290039	25.221062
728.450256	919.496094	3014.907227	1444.964966	25.077126
728.771790	918.158691	3019.142578	1449.200195	25.275848
729.093323	923.731384	3013.941406	1444.444946	24.912022
729.414795	928.561035	3007.774170	1448.160034	24.990175
729.736145	929.527039	3000.121094	1445.410767	24.914770
730.057495	921.353699	2995.440186	1451.800781	25.574974
730.378845	917.192688	2991.130127	1447.937134	25.591150
730.700134	920.387756	3003.539063	1447.788574	25.317451
731.021301	924.845947	3030.213623	1445.113647	24.711489
731.342468	917.192810	3042.324951	1447.491211	24.953669
731.663574	911.694336	3042.399414	1457.447754	25.613747
731.984680	910.208313	3039.278564	1456.184692	25.643887
732.305664	910.579895	3042.399170	1456.779175	25.621275
732.626648	915.409607	3049.829834	1449.497437	25.022619
732.947571	908.796570	3051.241211	1450.091919	25.265314
733.268433	920.313477	3048.269287	1451.503540	24.962458
733.589233	921.576660	3030.956299	1458.042358	25.432392
733.909973	930.864563	3002.944580	1458.562500	25.467062
734.230713	920.313477	2982.585938	1455.515991	25.952076
734.551331	915.186707	2952.047607	1433.076538	25.425882
734.871948	911.620056	2913.484375	1419.850586	25.387861
735.192505	912.065857	2868.010986	1403.801270	25.140553
735.513062	916.003906	2847.652100	1407.144897	25.426006
735.833435	915.186584	2815.998779	1395.256470	25.256039
736.153931	919.793274	2783.082764	1389.237915	25.194401
736.474304	919.644775	2765.472900	1375.714844	24.708155
736.794617	925.811829	2745.262695	1371.108032	24.474209
737.114807	924.771667	2746.154297	1368.507446	24.362579
737.434998	916.003906	2726.315430	1363.157715	24.700378
737.755188	914.443604	2736.791992	1374.526001	25.246675
738.075256	918.976074	2734.563232	1374.005859	25.062405
738.395325	920.759277	2744.148193	1383.665405	25.387131
738.715271	919.347473	2752.766846	1385.894409	25.446819
739.035278	915.632385	2756.927979	1387.083374	25.604307
739.355164	917.489929	2757.002686	1383.813843	25.350405
739.675049	912.585938	2759.380127	1386.488770	25.660835
739.994873	919.050293	2761.534912	1389.535156	25.535349
740.314636	920.387695	2753.361572	1385.745728	25.388144
740.634277	927.966614	2734.562744	1372.594116	24.611338
740.953979	913.923401	2711.380615	1367.392944	25.228390
741.273499	913.700500	2698.897705	1366.724243	25.376677
741.593140	911.397217	2673.411865	1361.523071	25.546091
741.912598	914.740723	2643.096436	1350.972046	25.239672
742.232117	907.384766	2601.189697	1344.953491	25.833479
742.551453	910.579834	2572.583008	1336.631714	25.634842
742.870850	914.666504	2567.678955	1339.455200	25.697853
743.190063	928.263916	2559.802979	1328.904297	24.555979
743.509338	922.393982	2538.478271	1326.675171	25.016096
743.828552	922.914063	2507.345459	1313.226196	24.634209
744.147705	919.347473	2480.819336	1314.340820	25.296219
744.466797	918.084473	2473.314697	1310.105591	25.206629
744.785828	916.895569	2454.590332	1315.604004	25.928970
745.104858	916.152527	2443.816406	1303.566895	25.359922
745.423706	919.941956	2432.076416	1300.149048	25.143734
745.742615	928.561035	2423.531494	1289.672363	24.155081
746.061401	933.613586	2410.974365	1306.613403	25.247713
746.380249	929.378418	2401.760986	1296.508179	24.934401
746.698975	921.799561	2400.572266	1291.752808	25.017588
747.017639	919.347473	2398.120361	1278.155518	24.263905
747.336304	926.406311	2386.529053	1288.260620	24.782457
747.654907	929.081238	2384.894531	1292.867432	24.988522
747.973389	931.607605	2398.937744	1291.678589	24.539194
748.291931	931.830383	2401.612549	1293.833374	24.629702
748.610352	928.338196	2398.417725	1292.793091	24.791508
748.928711	929.452820	2392.844971	1299.406128	25.280533
749.247070	925.291809	2385.117432	1295.839478	25.383007
749.565308	930.716003	2385.340088	1296.211060	25.126429
749.883545	927.669495	2373.303223	1291.752808	25.185030
750.201782	928.561096	2369.736572	1281.870605	24.515369
750.519836	927.075012	2355.024658	1278.081177	24.581129
750.837952	927.520813	2333.848389	1274.588867	24.679033
751.155884	929.675598	2336.448975	1284.248169	25.204668
751.473877	925.068909	2325.080811	1279.790161	25.337015
751.791809	917.638672	2335.111572	1274.068848	25.145466
752.109619	915.038025	2324.931885	1262.477661	24.642965
752.427490	914.443604	2329.241455	1261.957520	24.562796
752.745300	917.192810	2324.263428	1267.975952	24.930033
753.062988	917.935791	2323.594727	1271.171021	25.129513
753.380615	920.982178	2316.535889	1269.907837	25.002668
753.698303	923.582764	2323.222900	1268.496094	24.643002
754.015808	920.536377	2309.997070	1274.440186	25.470589
754.333374	916.078186	2306.430664	1279.492798	26.138308
754.650757	915.409485	2297.291260	1276.520630	26.131840
754.968262	920.387756	2308.808350	1271.988281	25.323774
755.285583	926.777832	2314.455322	1279.121338	25.390879
755.602905	927.520935	2307.545166	1283.653809	25.806278
755.920105	919.644775	2308.213867	1285.437134	26.343115
756.237305	915.558105	2292.313232	1271.468140	25.851368
756.554443	914.740784	2290.158447	1268.347534	25.709044
756.871582	918.753113	2278.121338	1261.288696	25.198147
757.188599	910.134033	2279.756104	1270.204956	26.289801
757.505615	907.607727	2294.022217	1267.381470	25.949940
757.822510	901.886414	2311.854980	1263.369141	25.637646
758.139465	911.397217	2333.477051	1268.570435	25.116257
758.456238	912.808899	2340.907227	1278.081177	25.577528
758.773010	913.849182	2349.080811	1295.839478	26.615236
759.089783	912.437317	2371.594482	1295.616577	26.260313
759.406433	920.313477	2377.018311	1290.266724	25.396584
759.723145	924.251465	2382.442627	1284.619629	24.713369
760.039673	923.285583	2370.553955	1281.499023	24.751003
760.356201	912.140137	2376.349609	1288.260620	25.687614
760.672668	909.762512	2369.662354	1293.833252	26.308020
760.989136	916.449768	2372.411377	1296.359497	26.093388
761.305481	917.489990	2373.749023	1296.062378	25.996225
761.621826	922.468262	2380.213135	1292.198608	25.363173
761.938049	923.805664	2395.965576	1300.743408	25.604403
762.254333	922.245300	2403.247070	1306.836304	25.968302
762.570496	917.861511	2446.342773	1325.932129	26.697784
762.886597	909.019470	2505.339111	1330.613159	26.410357
763.202637	908.722351	2618.873779	1358.625244	26.307781
763.518677	910.802734	2760.420654	1396.371094	26.252359
763.834656	912.660339	2906.053711	1438.946655	26.401529
764.150574	917.489990	3009.928955	1466.809937	26.252615
764.466370	915.186584	3036.603516	1474.463257	26.363354
764.782288	916.449707	3015.650146	1476.023438	26.656517
765.097961	921.502258	2965.570313	1458.785278	26.284986
765.413696	919.273254	2897.063232	1418.884766	25.261099
765.729309	924.177246	2803.739014	1389.906616	24.778614
766.044861	922.988342	2700.904053	1360.482788	24.607153
766.360474	922.839783	2607.654297	1341.981323	24.877609
766.675903	910.654114	2524.212158	1320.210815	25.382210
766.991394	908.647949	2457.710938	1306.613281	25.690714
767.306763	918.307373	2405.922119	1299.480347	25.623096
767.622131	921.576660	2364.609619	1279.715698	24.818493
767.937378	920.536377	2315.198486	1268.050171	24.917418
768.252625	923.879944	2276.635498	1252.669556	24.305174
768.567810	924.474426	2248.474854	1252.372437	24.765701
768.882996	920.610657	2224.252197	1244.793457	24.867479
769.197998	906.716125	2200.029297	1242.341431	25.950813
769.513062	908.053528	2167.856201	1241.524048	26.470058
769.828064	908.499329	2156.488037	1232.682007	25.976410
770.142944	917.118469	2126.692383	1228.966919	25.781677
770.457825	923.582764	2111.163086	1209.574097	24.081852
770.772705	923.657043	2081.144775	1204.967285	24.303516
771.087402	922.839661	2075.646484	1205.487427	24.518223
771.402100	915.409485	2056.922119	1203.852661	25.268503
771.716736	914.517822	2045.851196	1195.976563	24.878496
772.031372	913.254700	2023.708984	1193.747559	25.259287
772.345947	914.369324	2022.668579	1197.388306	25.536331
772.660461	916.301208	2005.356079	1204.670044	26.478815
772.974854	916.672668	1998.445923	1206.824829	26.821903
773.289246	916.672668	1982.842407	1200.806274	26.649942
773.603638	920.462097	1984.700073	1197.982788	26.076939
773.917908	922.691162	1977.715454	1186.688843	25.022902
774.232178	924.771667	1970.433960	1183.122192	24.706879
774.546265	921.576660	1956.836426	1177.401001	24.711126
774.860474	925.143250	1942.495972	1172.942749	24.357285
775.174561	934.951172	1929.195801	1183.196655	24.968250
775.488586	946.765198	1927.115234	1183.865234	24.185244
775.802551	943.273010	1928.006958	1186.391479	24.688747
776.116516	935.842773	1914.706909	1170.713745	23.994236
776.430359	929.081238	1899.623413	1165.438110	24.353075
776.744202	924.623047	1892.118652	1163.357788	24.675537
777.057922	928.041016	1890.038452	1168.856079	25.032818
777.371704	928.189636	1887.289063	1172.051147	25.426092
777.685303	925.217468	1879.190063	1162.837524	24.908478
777.998962	916.598389	1871.834106	1160.980103	25.583393
778.312500	913.254822	1864.106812	1158.602295	25.802910
778.626038	924.845886	1858.905640	1156.893188	24.842876
778.939453	928.338074	1858.608398	1159.419556	24.840250
779.252869	931.384583	1864.552612	1163.506226	24.874582
779.566223	923.211243	1858.608398	1163.283447	25.665270
779.879578	923.137024	1861.060425	1160.162720	25.271328
780.192749	920.164856	1855.116089	1147.234009	24.286737
780.505920	921.205261	1857.196411	1147.085327	24.132713
780.819031	913.700623	1851.177856	1143.296021	24.490770
781.132141	923.954407	1867.524414	1172.125366	26.301277
781.445190	923.805725	1861.654663	1180.150146	27.333231
781.758118	930.047180	1854.744507	1182.602173	27.312180
782.071045	917.192688	1821.977051	1159.716919	26.804644
782.383911	923.062683	1816.775879	1155.109985	25.964403
782.696838	923.359863	1808.156738	1149.908813	25.604628
783.009583	929.378418	1806.893555	1150.726196	25.224382
783.322266	919.050354	1791.364380	1146.193726	26.039175
783.634888	914.815125	1775.612183	1140.843994	26.258091
783.947510	906.641846	1764.541016	1133.339355	26.424726
784.260132	909.316711	1762.386230	1124.645874	25.241690
784.572571	908.202209	1759.934204	1128.509644	25.865816
784.885010	911.397156	1758.522461	1125.314819	25.252186
785.197449	914.889343	1758.076660	1131.407593	25.678547
785.509766	927.520813	1752.726929	1129.995728	24.536283
785.822083	929.824219	1734.968384	1129.995728	24.861574
786.134277	925.886230	1724.268921	1127.172241	25.211720
786.446533	920.239258	1729.321411	1129.178467	25.824226
786.758606	919.421875	1741.061157	1133.562378	26.062593
787.070740	922.914063	1737.940552	1141.958496	26.875744
787.382690	924.623047	1744.999390	1134.156616	25.541153
787.694641	921.428040	1752.949707	1132.299072	25.359655
788.006653	920.016296	1780.070313	1132.224854	24.673864
788.318481	918.455994	1800.131958	1146.193848	25.830109
788.630310	922.096863	1821.679688	1153.104004	25.679363
788.942017	922.245422	1837.877808	1156.373413	25.570086
789.253784	926.703430	1849.692017	1162.837524	25.583641
789.565430	928.338135	1847.239868	1156.819092	24.864569
789.877014	926.257629	1832.527954	1149.240234	24.604425
790.188538	922.468262	1825.840820	1138.689087	23.934845
790.500061	910.877014	1811.277344	1134.973999	24.888594
790.811462	914.220703	1793.370483	1133.042114	24.890118
791.122925	909.613953	1761.197388	1122.639771	25.015261
791.434204	911.917297	1735.637207	1113.351929	24.454264
791.745483	910.728455	1722.782837	1107.853638	24.274874
792.056702	910.951355	1709.482788	1107.184937	24.574308
792.367920	916.449707	1709.705688	1117.067017	25.290361
792.678955	905.898743	1698.040039	1121.005249	27.155067
792.990112	903.223877	1693.507690	1125.983398	28.187281
793.301086	903.075256	1680.578979	1122.639771	28.239674
793.612122	911.545715	1671.736938	1118.330200	27.201641
793.922974	914.072021	1663.192017	1110.974243	26.284470
794.233826	909.911072	1665.867188	1112.757446	26.833088
794.544556	908.202087	1666.089966	1111.345825	26.803930
794.855286	902.109192	1654.275879	1114.615112	28.252504
795.166016	912.883118	1644.022095	1112.014648	27.235798
795.476624	915.335144	1645.879517	1116.695679	27.563080
795.787292	917.267090	1668.467651	1118.404663	26.775482
796.097778	909.242371	1688.083618	1119.816406	27.036837
796.408264	906.493164	1710.448608	1115.803955	26.035124
796.718689	909.316711	1723.674438	1111.122803	24.781013
797.029053	909.391052	1729.321411	1113.797729	24.929760
797.339355	912.660339	1719.662109	1115.878296	25.181849
797.649658	919.347595	1710.894409	1121.822388	25.579636
797.959839	921.205078	1702.498169	1117.290039	25.097490
798.270020	925.291809	1693.953491	1120.336426	25.374573
798.580078	929.378418	1688.380859	1123.457153	25.570238
798.890137	937.477478	1668.021851	1119.964966	24.979658
799.200195	933.539368	1660.666016	1107.110474	23.870821
799.510071	923.434143	1642.907593	1095.816528	23.959520
799.820007	908.573730	1642.833130	1098.119873	25.814602
800.129883	911.248596	1629.310059	1111.568726	27.897352
800.439575	908.053528	1616.232788	1115.952515	29.356831
800.749329	917.787292	1606.424805	1113.797852	28.463531
801.058960	921.651062	1610.065552	1098.194214	25.644892
801.368591	925.143127	1609.768433	1099.160156	25.417849
801.678162	916.969788	1607.019165	1095.370728	25.853359
801.987671	907.161865	1599.068848	1102.652466	28.253885
802.297119	906.938965	1593.347656	1097.079712	27.700808
802.606506	901.812073	1583.836914	1088.832031	27.421282
802.915894	905.824524	1588.443726	1085.934204	26.385088
803.225159	906.493164	1587.477539	1076.423462	24.953627
803.534424	911.471497	1586.585938	1082.442017	25.324673
803.843628	913.403320	1566.004272	1078.132446	25.241938
804.152771	923.062683	1567.713257	1085.562622	25.207445
804.461792	931.756104	1570.090820	1088.980591	24.630415
804.770874	933.465088	1566.747192	1088.980591	24.557066
805.079773	924.623047	1563.998047	1078.355347	24.044153
805.388733	918.084473	1567.564453	1075.680542	24.264961
805.697571	913.329102	1583.911133	1079.024048	24.709124
806.006470	913.477600	1597.434204	1087.940430	25.507879
806.315125	918.158691	1600.703491	1089.872314	25.157854
806.623901	917.489990	1601.297852	1092.027100	25.524292
806.932495	911.843018	1596.616821	1091.432617	26.226120
807.241150	910.877136	1595.130859	1092.918579	26.604378
807.549622	918.678894	1582.127930	1089.277832	25.713947
807.858154	926.257629	1577.521118	1085.711304	24.483742
808.166565	926.257629	1569.496460	1080.064331	23.911289
808.474915	918.604492	1567.118774	1078.355469	24.633379
808.783264	920.536438	1552.778320	1083.779419	25.819704
809.091492	922.171082	1538.883667	1086.305786	26.614456
809.399719	923.880066	1536.654663	1086.751587	26.579353
809.707825	923.211243	1537.917603	1086.008423	26.483730
810.015930	916.301208	1540.592651	1078.949707	26.053297
810.323975	920.164978	1534.276855	1071.519531	24.646088
810.632080	920.387878	1519.119141	1061.562988	23.579044
810.939880	929.972839	1508.122437	1058.516602	22.233650
811.247864	925.514648	1500.394897	1065.872559	24.415155
811.555664	908.276428	1494.376343	1064.535034	26.660746
811.863464	894.233215	1495.342285	1064.535156	28.331287
812.171143	894.753357	1474.834595	1047.074097	26.258518
812.478882	912.065918	1470.896606	1042.541504	23.347963
812.786438	922.616882	1462.203247	1042.392944	22.197756
813.094055	923.731384	1475.429199	1048.782837	22.666656
813.401489	919.347473	1472.011230	1051.532104	23.917730
813.708984	916.301208	1464.952515	1050.269043	24.417664
814.016357	917.044189	1462.277710	1062.603271	26.696650
814.323730	928.338196	1473.720215	1071.073730	26.171661
814.630981	925.514648	1475.503418	1073.005615	26.817087
814.938232	926.257751	1476.543579	1074.788696	26.991600
815.245361	917.341370	1464.580933	1067.135742	27.372723
815.552490	914.294983	1461.014282	1067.581543	28.037525
815.859619	909.613831	1459.974121	1058.739502	27.096008
816.166565	906.121643	1458.636719	1061.934570	28.200665
816.473572	910.654114	1468.518921	1064.089233	27.503998
816.780457	910.431213	1477.880981	1058.739380	26.135912
817.087341	915.038025	1489.620728	1057.922241	24.867476
817.394043	920.090637	1487.763306	1055.692993	23.887421
817.700806	925.960449	1488.803589	1061.934448	24.158419
818.007507	925.291809	1490.586914	1071.370972	25.841223
818.314209	921.502258	1507.082153	1076.869385	26.532183
818.620667	921.650879	1513.323608	1080.064331	26.773830
818.927246	922.765442	1511.391602	1070.033569	25.018957
819.233704	917.044250	1516.667358	1071.668091	25.786839
819.540161	916.004089	1537.620483	1074.714478	25.531885
819.846497	919.421875	1591.490112	1096.039429	26.279705
820.152832	920.833557	1639.266602	1110.454224	26.393644
820.458984	917.489929	1700.417847	1130.144409	27.161438
820.765259	906.121582	1753.172729	1134.453857	26.956139
821.071350	910.208313	1825.097778	1156.373169	26.906513
821.377502	903.595398	1920.576782	1176.955078	26.879517
821.683472	909.390930	2124.166260	1241.895630	27.371702
821.989441	907.756348	2512.769531	1339.232300	26.883017
822.295349	909.168152	3130.522217	1507.230835	26.923340
822.601196	900.994812	3886.923828	1709.631348	27.081573
822.907043	901.143372	4601.418457	1904.973145	27.128517
823.212769	901.440613	5040.398926	2021.702637	27.066277
823.518494	908.424988	5130.379883	2044.587891	26.910822
823.824097	902.109314	4864.599121	1956.539185	26.610289
824.129700	911.545715	4431.562500	1831.041870	26.121925
824.435242	907.310486	3934.254883	1680.727539	25.551083
824.740723	916.226746	3499.881104	1569.273438	25.276087
825.046082	912.140137	3149.692383	1469.484985	24.908686
825.351501	910.802673	2850.624023	1397.485718	25.089066
825.656799	901.589172	2608.471436	1333.956787	25.330839
825.962036	898.765625	2408.151123	1289.969604	25.918097
826.267212	913.329041	2297.737061	1266.044067	25.477680
826.572449	926.554932	2255.979248	1265.078125	25.463894
826.877502	928.932617	2290.307129	1281.276245	25.881462
827.182495	929.304138	2415.209961	1322.142700	26.437651
827.487488	933.316406	2586.403564	1371.702515	26.519238
827.792419	927.669434	2742.290283	1411.974609	26.689056
828.097290	915.632507	2799.206299	1424.680298	27.025637
828.402100	910.951355	2745.411377	1408.853882	27.141640
828.706848	914.443604	2603.790283	1374.154419	27.212343
829.011597	909.911133	2413.798096	1312.929077	26.798420
829.316223	900.177429	2225.515137	1254.973022	26.770205
829.620789	896.165100	2061.751953	1205.561646	26.544271
829.925354	907.904846	1930.607544	1171.233887	25.748346
830.229797	917.712891	1822.571411	1147.605591	25.406481
830.534302	928.412415	1737.940796	1138.317749	25.929337
830.838562	924.771667	1661.706055	1126.057739	27.313974
831.142944	917.564270	1599.217407	1104.807251	27.468954
831.447144	913.700500	1542.747437	1078.504150	26.198944
831.751404	915.558105	1516.666992	1067.730103	25.315214
832.055542	917.341492	1509.236816	1072.262695	26.173750
832.359619	911.248596	1508.865356	1071.668091	26.843204
832.663635	901.069153	1516.072632	1072.113892	27.811995
832.967651	900.400391	1542.450073	1081.699097	28.237488
833.271545	903.446777	1602.709595	1095.742188	27.499733
833.575439	909.168152	1688.380859	1120.856567	27.166962
833.879211	910.431335	1818.261841	1148.571411	26.231777
834.183044	909.688293	1944.873657	1188.100464	26.894911
834.486694	909.762512	2050.086182	1216.335571	26.884739
834.790344	921.279480	2089.541016	1234.614014	26.820583
835.093933	923.880066	2068.736572	1225.994873	26.388882
835.397522	925.068848	2003.201172	1206.304688	26.085466
835.700928	913.031799	1908.688110	1161.945923	25.000004
836.004395	916.375488	1826.509399	1143.741699	24.981621
836.307739	921.353699	1738.758179	1123.011353	24.670486
836.611023	927.595154	1673.817383	1112.906128	24.833216
836.914307	923.137024	1608.653931	1087.643188	23.997391
837.217529	923.062744	1558.499512	1075.531860	23.994381
837.520691	914.146423	1497.051147	1067.284302	26.271511
837.823730	911.025635	1447.714233	1055.915894	26.997082
838.126831	914.369324	1407.739380	1044.250366	26.325279
838.429749	917.638672	1384.705444	1035.333984	25.198820
838.732727	922.022461	1364.569458	1029.984253	24.395554
839.035522	912.363098	1349.634644	1028.944214	26.661034
839.338379	908.945129	1336.483032	1025.897827	27.354931
839.641113	906.195984	1337.969116	1031.693237	29.065554
839.943848	905.155762	1352.532349	1035.631348	29.164598
840.246460	907.310547	1380.990234	1039.272095	27.858814
840.549072	907.830750	1416.358398	1048.931519	27.746922
840.851563	906.716125	1436.420288	1046.628052	26.413219
841.154053	911.545715	1439.615234	1050.566284	26.326187
841.456482	914.294922	1419.553345	1035.482788	23.985323
841.758850	917.118469	1394.587769	1025.377563	22.673519
842.061157	911.991516	1367.392944	1021.662415	24.082247
842.363403	910.356934	1338.489136	1016.535583	24.800436
842.665588	914.443542	1309.511230	1015.792480	25.653563
842.967712	914.294983	1289.672241	1009.476746	25.356295
843.269775	913.180481	1275.034668	1008.436523	26.324427
843.571777	910.877136	1274.886108	999.371582	24.311062
843.873840	921.428040	1259.059570	990.752441	20.532562
844.175659	924.920349	1243.455933	990.752441	20.667109
844.477600	932.127686	1225.623413	996.473816	21.924044
844.779297	923.731445	1216.038208	996.919617	25.038137
845.081116	921.576599	1213.140503	996.919617	25.840996
845.382751	911.620056	1209.573853	995.359192	28.104738
845.684387	902.703796	1206.453247	995.730774	30.626221
845.985962	902.555176	1191.369751	985.031189	28.556736
846.287537	904.932861	1179.481323	992.684326	31.962105
846.588989	919.050354	1174.503052	984.882507	25.770781
846.890381	920.313538	1169.673462	996.176575	30.423107
847.191711	921.725281	1165.438110	988.374756	27.347546
847.493042	915.409485	1163.877808	986.145691	28.468903
847.794250	919.273254	1173.611450	980.498718	24.072462
848.095459	914.592224	1166.626831	975.966248	24.351427
848.396606	914.295105	1167.964355	978.492493	25.307516
848.697693	913.106140	1156.001831	977.229309	26.399467
848.998657	915.483887	1169.376343	975.668945	23.704941
849.299622	919.719055	1160.608521	974.851746	22.887133
849.600464	913.477600	1160.831421	967.347168	21.778345
849.901367	908.573730	1145.450806	969.056091	25.533226
850.202087	903.892639	1136.608643	963.706299	25.702427
850.502808	908.945251	1136.757202	970.542175	27.038496
850.803467	917.489990	1140.398071	977.006531	26.700037
851.104065	920.387756	1146.936890	992.610046	31.879305
851.404663	916.152527	1140.918335	989.043518	32.429752
851.705139	916.003906	1135.865723	985.477051	31.598549
852.005615	918.158691	1137.277466	969.724792	23.533401
852.306030	916.449768	1149.017212	971.285156	23.578274
852.606384	913.923523	1142.924438	968.164368	23.685863
852.906616	907.236267	1138.466309	975.074524	29.337994
853.206909	911.991699	1130.218628	974.257263	28.532484
853.506958	910.282715	1135.568481	967.124207	25.230841
853.807129	907.979309	1131.184692	968.387268	27.063845
854.107178	908.796631	1129.847168	975.371765	30.117607
854.407166	914.815186	1125.091797	977.229309	29.681913
854.707092	920.313477	1118.255859	976.486328	28.378386
855.007019	918.010071	1114.169312	968.387390	25.681849
855.306763	917.787170	1109.933960	970.393555	27.378227
855.606567	913.403320	1113.054810	960.659912	23.669540
855.906250	915.335205	1107.927856	961.997375	24.228428
856.205933	911.322815	1111.494507	964.597961	26.614725
856.505493	905.230164	1111.345825	971.582336	32.191719
856.805054	903.000977	1110.379883	971.359436	32.963074
857.104492	895.124939	1113.277710	971.730957	35.115768
857.403931	905.973145	1114.763672	966.306885	28.896780
857.703308	903.521057	1119.296265	962.666016	27.410452
858.002563	913.626221	1116.621216	954.046936	19.912174
858.301819	912.883301	1117.438599	961.105652	23.574238
858.601013	911.025696	1118.701660	961.477234	24.293392
858.900208	901.217773	1123.457153	964.820801	28.619152
859.199219	901.589172	1123.159790	967.124207	29.577494
859.498291	908.945129	1119.741943	970.170593	29.044777
859.797302	913.254822	1118.627441	969.650574	27.460209
860.096191	922.394043	1119.444824	963.260498	20.739048
860.395020	913.180481	1124.125854	965.489563	24.797455
860.693787	912.734680	1111.642944	969.576172	28.576736
860.992554	902.480896	1098.862915	973.142761	35.981842
861.291260	906.939026	1098.268555	964.449280	30.058222
861.589844	912.437439	1104.064087	958.430847	24.001572
861.888428	913.849121	1113.649292	951.892151	19.040539
862.186890	924.548767	1105.327271	958.356506	18.701195
862.485413	922.022461	1104.286987	953.452576	17.244230
862.783813	917.861511	1100.423340	953.303955	19.413940
863.082153	913.106140	1106.441895	954.269836	21.291300
863.380371	912.288757	1112.088745	957.390625	22.573509
863.678589	920.685059	1112.311646	960.957092	21.015890
863.976746	922.542664	1112.014526	963.260498	21.490175
864.274902	923.731445	1104.881470	969.724792	25.389645
864.572937	925.514648	1111.865967	965.638123	21.531092
864.870911	924.474426	1113.054810	955.087097	16.233221
865.168884	923.137024	1108.522339	951.223389	15.150264
865.466736	916.969910	1104.584351	952.412292	18.891073
865.764587	911.025696	1099.903198	954.492737	23.013350
866.062317	917.118469	1100.794800	963.780579	25.404530
866.360107	919.867676	1104.435669	964.672180	24.275337
866.657715	920.164856	1104.658569	968.907410	26.419628
866.955322	919.941895	1111.717285	960.065430	20.922150
867.252808	918.976074	1104.435669	960.585632	22.435915
867.550293	920.685059	1103.915649	960.734192	21.857231
867.847717	909.019531	1087.717529	964.003479	30.769201
868.145081	907.161926	1088.906372	961.774414	30.049055
868.442383	902.629395	1082.367798	961.997314	33.030182
868.739624	899.062988	1092.621460	957.985046	30.441477
869.036804	900.400391	1090.020874	956.127441	29.388729
869.333984	903.372498	1088.386108	955.830261	28.353462
869.631042	912.957520	1089.500610	950.257568	21.128014
869.928101	906.121765	1096.411011	955.904541	26.161634
870.224976	904.561340	1102.726685	947.582581	21.709770
870.521851	918.604553	1115.506836	960.957031	21.509390
870.818726	925.811951	1115.358276	962.517517	19.364958
871.115479	934.951172	1118.701782	970.690735	19.450037
871.412231	921.799622	1104.064087	968.758972	25.764402
871.708862	921.428040	1087.494629	968.238770	28.187927
872.005493	918.232910	1088.312012	964.226379	27.042398
872.302063	919.050293	1091.061157	963.706299	25.961155
872.598572	917.415710	1103.989868	966.009583	26.045340
872.895020	918.827454	1099.085815	968.758850	27.699905
873.191406	920.833679	1106.887573	968.164368	25.439236
873.487671	923.137024	1112.237427	965.563782	22.436102
873.783997	919.793274	1116.769897	967.347168	24.141897
874.080200	918.158691	1116.621216	955.978821	19.056561
874.376343	910.431213	1115.952515	952.263672	20.354317
874.672424	914.295105	1117.141479	951.372070	18.278347
874.968445	911.545837	1111.122925	964.375000	26.470554
875.264465	916.226868	1111.345825	962.517395	23.724258
875.560364	906.790344	1105.252930	963.632019	28.641003
875.856201	905.452942	1096.336548	957.390564	27.209053
876.152039	908.350769	1090.318237	967.718689	32.625568
876.447754	909.539551	1097.674072	963.854980	28.870527
876.743469	919.124695	1106.367310	970.096375	27.222265
877.039063	919.124695	1111.345825	963.111816	22.883604
877.334595	923.137024	1098.937256	966.975586	24.936579
877.630127	910.208313	1102.057983	962.294495	27.149477
877.925537	909.019470	1095.073364	963.929199	29.512808
878.221008	905.601501	1099.308716	964.746521	30.533205
878.516296	907.384766	1101.017700	973.365540	34.075180
878.811646	908.945129	1111.642944	969.204590	29.728718
879.106812	909.688171	1123.382690	972.771179	29.520180
879.401978	905.007141	1134.379517	964.375000	25.882742
879.697083	898.988586	1149.611694	976.114807	30.773787
879.992126	896.759583	1173.091431	978.641174	29.631617
880.287109	902.629578	1197.462646	990.975342	29.964672
880.582031	900.474670	1248.508667	1001.229187	28.949619
880.876892	907.087646	1321.102295	1023.965820	28.230444
881.171753	907.830627	1476.023438	1058.665161	26.546364
881.466492	916.375488	1721.891113	1127.469604	26.206085
881.761230	917.638672	2039.906738	1207.270630	25.807734
882.055786	919.198975	2360.225830	1298.365723	26.312262
882.350403	919.124695	2566.638916	1342.724609	25.711458
882.644958	915.632385	2625.486572	1357.139282	25.821318
882.939453	912.214539	2555.642090	1332.693481	25.585487
883.233826	903.818298	2413.872559	1301.412231	26.329779
883.528137	898.468506	2246.691162	1260.322876	26.839363
883.822449	902.778076	2075.794922	1215.592529	26.667517
884.116577	907.310547	1916.712891	1172.719849	26.293707
884.410828	913.254700	1799.463257	1130.218628	24.482265
884.704956	909.985413	1680.281738	1101.835083	24.905956
884.999023	908.870911	1577.744019	1073.079956	24.550104
885.292969	910.728516	1468.816284	1059.110962	26.587654
885.586914	912.660339	1393.027344	1035.705566	25.614838
885.880798	910.505554	1334.105347	1018.615906	25.521814
886.174622	906.493164	1303.343994	1003.904053	24.545971
886.468384	908.796570	1270.502319	999.891663	25.184862
886.762085	908.053528	1239.592163	996.473816	26.669678
887.055664	907.161926	1220.347778	985.625549	25.053373
887.349304	904.784241	1199.097168	979.681396	25.448137
887.642822	902.555176	1185.574219	972.919861	24.862173
887.936340	907.384827	1170.044922	965.786804	22.234812
888.229736	909.168152	1161.425903	960.511292	20.353443
888.523071	914.295105	1153.401245	959.545349	18.924751
888.816284	914.369324	1144.261841	979.606995	28.377466
889.109619	921.873840	1133.413696	979.309814	27.151373
889.402710	929.527039	1133.710938	979.012634	24.235798
889.695862	928.263855	1120.782227	961.031433	17.020494
889.988892	917.267029	1116.918457	957.019043	19.910709
890.281921	905.007141	1110.082520	958.059265	25.869574
>>>>>End Processed Spectral Data<<<<<
