Jaz Data File
++++++++++++++++++++++++++++++++++++
Date: Fri Jun 04 14:54:31 2021
User: jaz
Dark Spectrum Present: Yes
Reference Spectrum Present: Yes
Processed Spectrum Present: Yes
Spectrometers: JAZA3586
Integration Time (usec): 138000 (JAZA3586)
Spectra Averaged: 10 (JAZA3586)
Boxcar Smoothing: 1 (JAZA3586)
Correct for Electrical Dark: No (JAZA3586)
Strobe/Lamp Enabled: Yes (JAZA3586)
Correct for Detector Non-linearity: No (JAZA3586)
Correct for Stray Light: No (JAZA3586)
Number of Pixels in Processed Spectrum: 2048
>>>>>Begin Processed Spectral Data<<<<<
W	D	R	S	P
191.335022	0.000000	0.000000	0.000000	0.000000
191.713211	291.266663	290.003540	290.375031	70.589516
192.091385	583.202087	588.403259	590.335144	137.143265
192.469528	880.412903	884.796875	884.796814	99.998611
192.847641	890.889648	889.106384	898.765808	-441.670959
193.225739	901.886475	892.004150	904.115479	-22.555462
193.603790	917.267090	903.149597	922.468323	-36.842468
193.981842	927.595215	919.124695	927.520935	0.876921
194.359863	942.975830	928.115234	935.619873	49.499744
194.737854	944.461914	937.625977	942.084167	34.783035
195.115829	942.901550	937.328796	943.793152	-15.999299
195.493774	940.598145	937.848938	944.164612	-129.727142
195.871704	941.489746	940.598145	934.133789	825.027405
196.249603	942.158447	941.564026	935.545593	1112.485840
196.627457	938.443359	944.907715	933.687988	-73.562958
197.005310	929.304138	944.313293	931.384583	13.861169
197.383133	935.917053	952.412354	920.907898	-90.990494
197.760910	939.409241	955.310059	925.811829	-85.513916
198.138687	946.988220	953.749695	928.561035	-272.532043
198.516449	940.003723	943.347351	939.186340	-24.445986
198.894180	931.681824	932.499207	933.613708	236.350067
199.271866	929.601318	921.279480	937.254578	-91.965965
199.649536	929.304138	920.313538	928.115295	13.223174
200.027191	931.087402	921.353760	928.486816	26.717501
200.404816	932.350586	929.378479	926.257751	205.000519
200.782410	934.133850	941.564148	933.316467	-11.000673
201.159988	935.917053	955.533020	927.297852	-43.939724
201.537537	929.972839	965.192383	928.189636	-5.063107
201.915070	923.211365	965.861084	929.972839	15.853503
202.292557	916.003906	964.820801	936.139954	41.248112
202.670029	920.907898	957.762146	936.808777	43.145309
203.047485	923.805725	955.087219	934.059570	32.779270
203.424911	924.920227	958.505066	926.926453	5.973605
203.802292	917.341370	966.604187	923.508545	12.518926
204.179688	918.307373	962.740417	922.022461	8.361093
204.557037	923.285645	961.551514	926.926514	9.514665
204.934357	921.799561	959.248108	930.195801	22.420736
205.311661	923.880066	972.845459	929.750000	11.987924
205.688934	921.948181	965.117981	932.870605	25.301077
206.066177	919.421875	964.523621	930.567200	24.711515
206.443390	912.734680	961.031311	935.396973	46.923134
206.820587	901.886414	966.158203	934.728210	51.098309
207.197769	901.812195	970.616455	945.353516	63.282887
207.574921	906.567566	967.347107	943.718811	61.124588
207.952042	912.437317	968.610291	945.279114	58.465477
208.329147	917.118469	967.049866	932.945007	31.696566
208.706223	956.498840	1006.653259	972.028137	30.962969
209.083267	966.826965	1006.355957	966.232605	-1.503606
209.460297	968.313049	1004.498474	963.409119	-13.552226
209.837280	922.022522	965.712402	924.325867	5.272033
210.214264	918.307312	962.814636	924.771729	14.524388
210.591217	914.220642	966.455566	928.635437	27.596087
210.968124	922.245361	970.690735	924.846008	5.368205
211.345016	918.084290	974.034363	929.452637	20.318735
211.721893	918.678772	973.514221	926.777832	14.769753
212.098724	908.499329	970.244934	926.926453	29.843620
212.475555	910.951355	970.764954	924.697327	22.981348
212.852356	913.403381	961.700134	927.223633	28.615280
213.229126	920.536438	954.938477	933.019226	36.285023
213.605865	920.536438	950.183167	929.006897	28.571310
213.982590	916.821289	951.446350	925.737610	25.751062
214.359283	914.443604	957.762024	916.152527	3.945027
214.735931	913.923523	960.214050	912.511719	-3.049877
215.112579	916.598328	963.334717	914.517883	-4.451444
215.489197	911.619934	963.334778	915.781067	8.046303
215.865799	908.647949	964.003479	924.028625	27.785257
216.242355	908.425049	963.483398	921.205139	23.211903
216.618896	907.533447	961.031433	923.880066	30.555578
216.995407	907.756348	962.888977	916.598450	16.037874
217.371902	907.979248	962.443115	913.180481	9.549878
217.748367	911.620056	973.514221	915.186707	5.762498
218.124802	902.852295	981.539001	912.288818	11.992526
218.501236	903.223877	984.288147	920.387756	21.173174
218.877609	902.480896	975.074524	921.799561	26.612066
219.253983	910.579834	970.690735	926.034851	25.710838
219.630295	911.099854	975.520325	920.387878	14.417816
220.006592	907.236145	981.613281	916.747009	12.787350
220.382889	897.948303	985.848450	923.582825	29.163229
220.759140	895.050598	989.266418	934.728210	42.113533
221.135391	899.805908	990.158020	940.523865	45.065861
221.511581	903.743958	989.935120	939.409363	41.379421
221.887772	907.533386	994.616211	937.403137	34.300392
222.263931	914.443542	1013.414856	936.214172	21.996908
222.640060	922.765442	1020.102051	944.164734	21.984835
223.016159	920.164856	1024.857422	944.759094	23.491867
223.392212	923.434265	1020.845032	946.765320	23.951208
223.768265	919.273254	1023.445618	946.170898	25.820326
224.144302	916.449768	1022.702637	944.981995	26.853136
224.520294	902.555176	1032.584839	947.582520	34.628517
224.896286	905.601563	1048.039917	946.468018	28.690626
225.272217	908.499451	1058.888062	956.573181	31.966337
225.648148	918.158691	1062.306030	963.037537	31.134008
226.024048	911.174316	1065.649658	962.666016	33.333282
226.399902	909.688171	1089.129272	957.316223	26.542442
226.775772	906.047363	1105.475952	954.195557	24.143074
227.151581	906.418884	1133.562378	963.260498	25.024540
227.527374	906.047363	1150.206177	979.830017	30.219124
227.903137	906.716125	1181.859009	995.582214	32.298161
228.278870	909.168152	1231.195923	1015.495300	33.018005
228.654572	904.115479	1311.071533	1027.829590	30.399870
229.030273	894.307556	1406.699219	1048.857056	30.162376
229.405930	892.747131	1498.091431	1071.519531	29.532351
229.781555	903.743896	1561.397339	1089.946655	28.313204
230.157181	908.870850	1578.264038	1095.667969	27.905441
230.532761	914.963623	1545.496460	1087.123169	27.303820
230.908325	911.099915	1484.716919	1073.302856	28.277220
231.283859	919.347473	1439.095093	1065.575317	28.134394
231.659332	913.254639	1408.556641	1051.829346	27.977821
232.034821	918.084412	1396.593872	1049.080078	27.375774
232.410263	915.186584	1369.176270	1036.597290	26.743053
232.785690	911.471497	1345.027832	1027.978149	26.872322
233.161087	903.446777	1312.557495	1014.752258	27.206690
233.536469	904.487061	1300.891968	1007.024719	25.866899
233.911804	912.214539	1306.167603	1009.625305	24.726490
234.287140	915.558105	1326.600830	1013.712097	23.879267
234.662430	910.059753	1350.674927	1017.947327	24.485668
235.037704	917.564392	1361.374390	1025.006104	24.208944
235.412933	915.632507	1367.169922	1032.956421	25.983210
235.788162	912.808899	1367.764526	1043.210327	28.662449
236.163345	905.230164	1370.365112	1042.392944	29.488813
236.538513	902.852356	1381.807617	1044.473267	29.568714
236.913635	906.047363	1385.448364	1045.067871	28.998795
237.288742	912.511719	1400.829102	1045.439331	27.221561
237.663834	915.038025	1395.033691	1044.101929	26.888556
238.038879	912.065918	1398.228516	1043.358887	27.005980
238.413910	904.932861	1387.826172	1051.755005	30.404675
238.788910	898.468567	1398.823242	1057.550659	31.793865
239.163879	891.929932	1415.838501	1058.739380	31.839420
239.538834	887.991882	1443.850586	1063.420532	31.559937
239.913757	902.629456	1477.658203	1070.182007	29.138117
240.288651	907.236145	1518.450317	1091.804199	30.196953
240.663528	911.842957	1580.195923	1106.144653	29.071718
241.038361	905.081482	1651.452271	1120.559326	28.870081
241.413177	908.945129	1750.349243	1138.317749	27.260696
241.787979	908.870850	1853.184204	1164.992432	27.122520
242.162735	910.802734	1980.539063	1209.796997	27.950277
242.537476	913.031799	2100.760986	1252.520996	28.583046
242.912170	913.031799	2234.580322	1290.638306	28.573032
243.286865	916.078186	2302.195557	1308.842407	28.335566
243.661514	913.329041	2309.848877	1301.635132	27.805269
244.036148	907.459167	2226.852783	1272.805664	27.690487
244.410751	906.270264	2145.342529	1251.406494	27.854406
244.785339	905.229980	2046.519897	1229.858521	28.444004
245.159882	908.870911	2004.464355	1227.183716	29.053915
245.534378	906.716125	2011.374634	1224.583130	28.775139
245.908890	903.372498	2116.884521	1245.908081	28.226799
246.283356	906.344543	2283.471191	1300.223389	28.601496
246.657791	907.756348	2500.137939	1367.392944	28.864727
247.032196	922.394043	2763.541016	1454.252930	28.887367
247.406586	923.434265	3024.789795	1522.537109	28.510305
247.780960	920.090637	3206.682617	1572.542847	28.533827
248.155289	912.288818	3247.400391	1577.744019	28.497791
248.529602	911.174316	3139.661377	1534.722778	27.980799
248.903870	908.127930	2940.753174	1478.698364	28.070616
249.278122	904.264099	2705.733643	1420.667969	28.665701
249.652344	899.731628	2504.075928	1370.810913	29.362732
250.026550	902.926575	2352.275635	1327.269409	29.278166
250.400711	906.790344	2250.258057	1291.158325	28.610138
250.774857	906.121765	2172.314453	1275.406250	29.164953
251.148987	903.149597	2138.135010	1265.969727	29.378496
251.523071	900.549011	2143.930664	1263.592041	29.198038
251.897125	904.115540	2196.091064	1277.189331	28.876226
252.271164	910.356934	2263.186523	1288.409180	27.945297
252.645187	922.765564	2312.895264	1309.659668	27.831512
253.019165	929.824219	2334.888672	1303.344116	26.583826
253.393112	929.378418	2316.535889	1307.876587	27.285883
253.767044	918.976074	2260.511719	1294.279053	27.975624
254.140930	920.164856	2173.651611	1280.978882	28.784828
254.514801	921.725281	2086.643311	1251.034912	28.268911
254.888657	920.684998	2017.839233	1226.663696	27.888393
255.262466	912.585938	1986.780396	1215.146729	28.166296
255.636276	922.171082	1994.285034	1216.930054	27.493248
256.010010	922.022400	2020.662476	1225.623413	27.634254
256.383759	922.914063	2071.931396	1243.901855	27.935852
256.757446	904.561340	2120.822510	1264.186401	29.568077
257.131134	908.276550	2198.989014	1291.827026	29.716185
257.504791	912.065918	2287.186279	1314.786621	29.286215
257.878418	919.273254	2408.968506	1346.142334	28.654791
258.252014	920.684998	2560.100342	1386.563110	28.417334
258.625580	925.143127	2757.968506	1446.302612	28.434759
258.999115	921.353699	2991.799072	1512.208984	28.537594
259.372650	919.644775	3289.307373	1597.285522	28.596508
259.746124	909.316711	3606.430908	1686.969116	28.832758
260.119598	909.762512	3924.594971	1764.466797	28.349976
260.493042	906.716064	4129.001953	1817.667603	28.270351
260.866425	909.390930	4170.686035	1812.020508	27.677029
261.239838	917.118469	4022.823486	1776.206665	27.661615
261.613159	913.106201	3749.538330	1694.993774	27.565884
261.986511	911.620117	3436.426514	1607.539429	27.563274
262.359802	903.595398	3174.806641	1534.276733	27.768503
262.733063	911.620117	2994.919922	1475.726196	27.077528
263.106293	911.768738	2894.016602	1457.522095	27.532045
263.479523	917.489990	2830.562256	1440.358276	27.331341
263.852692	918.827454	2794.970947	1431.590454	27.330690
264.225861	920.833679	2752.321289	1419.627930	27.234379
264.598969	917.490051	2727.207031	1406.996460	27.048782
264.972076	911.694397	2718.587891	1415.838257	27.901138
265.345154	910.059753	2747.417236	1430.252930	28.312029
265.718201	914.517883	2796.234375	1452.023804	28.564659
266.091217	918.753113	2883.391357	1474.091797	28.266716
266.464203	912.437500	2996.703125	1501.880859	28.280626
266.837158	907.607727	3112.169189	1538.437866	28.614767
267.210114	900.474670	3210.843750	1557.682251	28.445999
267.583038	906.418945	3274.595459	1568.679077	27.964981
267.955902	902.852356	3308.997314	1571.576782	27.792358
268.328766	909.019470	3307.214111	1566.450073	27.413565
268.701569	912.363098	3300.824219	1559.465454	27.092855
269.074371	916.524109	3292.725342	1554.189941	26.835516
269.447144	915.632385	3323.040771	1562.809082	26.882713
269.819885	912.734680	3373.120850	1585.917358	27.360853
270.192596	911.545837	3476.327393	1614.152344	27.394400
270.565277	916.895691	3616.611084	1664.232422	27.682056
270.937927	909.019531	3820.423096	1704.207153	27.312862
271.310577	903.669678	4052.247803	1773.160156	27.615337
271.683136	893.787415	4273.966797	1833.939819	27.813683
272.055725	897.725403	4425.767090	1878.669922	27.804220
272.428284	904.932800	4501.332520	1886.026001	27.279871
272.800812	907.236267	4432.231445	1863.066406	27.115786
273.173279	909.465332	4301.606934	1825.840820	27.014660
273.545776	910.654236	4151.070313	1789.580933	27.123884
273.918152	909.242432	4054.922607	1756.442017	26.932159
274.290558	909.242371	3982.477295	1738.163574	26.972269
274.662964	906.195984	3915.827881	1720.702515	27.063328
275.035278	905.007080	3885.364014	1721.891235	27.408937
275.407593	907.384766	3881.500000	1729.618774	27.646339
275.779907	904.115479	3928.756592	1750.572266	27.985363
276.152161	909.093750	4013.684570	1755.178833	27.252708
276.524384	908.499329	4117.708496	1777.395508	27.075087
276.896606	905.898743	4197.509277	1785.791626	26.731379
277.268799	903.743958	4226.933105	1797.531372	26.895472
277.640930	898.988586	4239.490234	1799.909180	26.969620
278.013031	901.663513	4238.524902	1796.862793	26.827583
278.385162	905.675842	4231.540039	1794.930786	26.737560
278.757233	912.511719	4210.363770	1788.540894	26.563629
279.129272	913.106140	4214.227539	1790.769897	26.586838
279.501282	914.146301	4222.697754	1795.822632	26.648409
279.873230	910.208313	4284.889160	1812.689087	26.742699
280.245178	917.267090	4385.123535	1836.986206	26.521257
280.617126	914.443542	4545.840332	1879.710083	26.581137
280.988983	910.579773	4718.223145	1930.756226	26.792858
281.360870	912.214539	4892.313965	1989.083862	27.056345
281.732697	923.285645	5068.336914	2032.922485	26.770159
282.104492	930.641602	5202.676270	2057.665039	26.381420
282.476288	925.143250	5301.275879	2066.804199	26.088350
282.848053	911.025696	5351.133301	2075.646240	26.229559
283.219757	910.059753	5349.721680	2078.172852	26.310854
283.591461	909.836914	5289.536621	2064.649658	26.367395
283.963135	911.620117	5220.732422	2055.362061	26.542402
284.334747	915.260925	5208.620605	2056.922363	26.591328
284.706360	916.449768	5279.951172	2076.909912	26.594702
285.077942	921.205139	5423.281738	2113.020752	26.472576
285.449524	911.025696	5586.673340	2140.067139	26.286016
285.821014	901.291992	5683.860840	2167.336182	26.472054
286.192535	899.731628	5805.717285	2183.385498	26.165052
286.563995	901.589172	5880.763184	2207.533936	26.228144
286.935425	909.465271	5946.372559	2215.261230	25.924557
287.306824	909.465271	5879.648438	2199.583252	25.957151
287.678223	916.226807	5741.742676	2156.264893	25.697525
288.049561	916.895569	5607.700684	2117.552979	25.595978
288.420898	912.511719	5480.048340	2091.472900	25.811750
288.792145	904.412781	5455.156738	2087.757568	26.003325
289.163452	908.202209	5483.764160	2094.445068	25.925623
289.534668	907.607727	5606.437988	2117.479004	25.748352
289.905914	910.356934	5751.922363	2156.339355	25.735115
290.277039	907.830566	5917.320313	2204.041748	25.875114
290.648193	915.929688	6094.309082	2256.350830	25.884954
291.019318	913.849121	6237.861816	2278.864502	25.638845
291.390381	911.545837	6273.155762	2277.303955	25.472910
291.761475	905.898743	6193.800781	2251.966797	25.455618
292.132507	906.790466	6076.847656	2223.286133	25.463850
292.503510	910.877136	5968.960938	2202.778564	25.541319
292.874481	923.508545	5918.286621	2198.023193	25.516941
293.245422	921.279480	5931.809082	2204.635986	25.613188
293.616364	913.626282	6057.083496	2233.168213	25.654768
293.987213	902.183594	6231.769531	2271.062500	25.684526
294.358093	906.047363	6451.705566	2327.160889	25.625696
294.728943	901.960754	6667.703613	2381.402100	25.659164
295.099731	897.576843	6882.289551	2430.442139	25.613012
295.470490	900.251770	7033.421387	2479.407715	25.747797
295.841248	905.898743	7162.856934	2506.973877	25.588717
296.211975	905.973083	7264.800293	2548.360352	25.828461
296.582642	911.768738	7425.145996	2590.118408	25.767731
296.953308	915.706726	7585.267578	2636.037842	25.793768
297.323883	915.855286	7717.897949	2645.251221	25.424658
297.694519	912.288757	7727.631348	2635.814697	25.288910
298.065063	906.641785	7624.425293	2602.824219	25.249136
298.435608	901.812195	7408.056152	2551.555176	25.356302
298.806122	900.994812	7093.755371	2481.190674	25.516823
299.176575	899.954590	6753.522949	2412.237549	25.835232
299.547028	894.901917	6503.122559	2357.550781	26.080444
299.917450	891.038269	6358.455078	2313.786865	26.022316
300.287872	893.564514	6283.855469	2284.511475	25.804674
300.658234	910.728455	6198.184082	2260.585938	25.529432
301.028564	914.592285	6121.949707	2239.855469	25.449821
301.398865	910.654114	6059.757813	2225.960938	25.544386
301.769135	898.171326	6019.857910	2213.552490	25.682577
302.139374	893.490234	6000.835938	2212.511963	25.825974
302.509583	900.251770	5968.365723	2197.725830	25.600731
302.879791	908.499329	5888.268066	2170.828369	25.349152
303.249939	909.539612	5768.937500	2145.565186	25.435778
303.620087	908.202148	5660.678223	2128.921631	25.685968
303.990173	913.923523	5595.664063	2122.977295	25.824875
304.360260	916.672668	5544.766113	2101.281006	25.596035
304.730286	920.759277	5528.122559	2085.974609	25.290285
305.100281	911.322937	5510.661621	2090.655518	25.641348
305.470276	904.041199	5525.076172	2099.646240	25.873098
305.840179	898.319824	5518.834473	2110.940430	26.244276
306.210144	903.669617	5542.240234	2097.045654	25.727234
306.579987	917.192688	5563.267578	2106.556396	25.599325
306.949890	924.771667	5629.471191	2106.927979	25.127134
307.319702	925.291748	5700.281738	2136.351807	25.362566
307.689484	918.381653	5818.200684	2154.779053	25.233534
308.059265	915.855408	5913.753906	2193.787842	25.569395
308.429016	911.471497	6054.111816	2221.651367	25.476795
308.798737	907.161926	6158.878418	2264.672607	25.848898
309.168396	901.440613	6299.459473	2284.882813	25.628700
309.538055	905.155762	6377.031250	2296.919922	25.434866
309.907684	913.849121	6430.454590	2292.907471	24.998314
310.277313	908.722351	6445.463379	2295.136719	25.040258
310.646851	904.858459	6442.789063	2299.000488	25.174423
311.016388	899.583008	6442.045410	2305.316162	25.362972
311.385895	916.078186	6364.622559	2288.226563	25.183762
311.755371	913.106140	6309.712402	2265.266846	25.055758
312.124817	905.824463	6235.632813	2243.422119	25.096542
312.494232	905.973145	6194.989746	2232.276611	25.076561
312.863617	911.397217	6105.231934	2217.267334	25.142696
313.232971	916.078186	6059.164063	2200.995117	24.983385
313.602295	907.236145	6051.361816	2203.967041	25.207996
313.971619	911.991516	6116.971191	2225.366455	25.233049
314.340820	915.781067	6159.546875	2240.152588	25.256117
314.710083	919.198975	6223.521484	2259.025635	25.259150
315.079285	915.632385	6229.837402	2256.573486	25.233147
315.448486	920.982239	6239.422363	2259.471436	25.166952
315.817596	923.657166	6113.776855	2216.970215	24.918751
316.186707	916.821289	5963.982910	2171.497070	24.859037
316.555786	914.963684	5769.160645	2116.958740	24.761978
316.924866	909.093811	5622.338379	2086.420654	24.979116
317.293884	911.248596	5529.682129	2068.661865	25.060734
317.662872	900.549011	5472.841309	2055.138916	25.251881
318.031830	900.400391	5477.818848	2059.968750	25.332365
318.400757	902.555176	5501.150391	2073.120117	25.454838
318.769684	909.093750	5555.985840	2088.203857	25.374166
319.138550	903.298157	5595.886719	2086.197510	25.207825
319.507416	898.096985	5617.657715	2074.086182	24.917347
319.876190	901.069092	5601.830566	2064.947021	24.759348
320.244995	910.059753	5556.357422	2063.460938	24.824089
320.613770	916.375488	5478.488281	2051.869873	24.889660
320.982483	910.802795	5418.600098	2037.306152	24.990108
321.351166	905.675842	5369.411621	2023.783203	25.048691
321.719818	901.589172	5366.291016	2023.263062	25.123154
322.088440	898.691406	5403.888184	2047.634399	25.502615
322.457062	904.264160	5517.942871	2082.036377	25.527834
322.825623	908.499329	5690.770996	2131.744873	25.578756
323.194183	916.226868	5867.760254	2155.744873	25.033016
323.562653	917.489990	6024.464844	2183.459717	24.789036
323.931183	916.969910	6124.178223	2200.475098	24.648623
324.299591	908.350830	6207.472656	2229.676025	24.934795
324.668060	900.474670	6230.654785	2235.322998	25.043213
325.036407	904.338379	6230.357910	2226.927002	24.832590
325.404755	911.545715	6162.519531	2203.669922	24.607327
325.773102	919.719055	6082.271973	2186.803467	24.543758
326.141388	912.214539	5973.864746	2166.370117	24.777601
326.509674	902.109375	5874.150391	2139.546875	24.887918
326.877899	895.199219	5804.157715	2116.884521	24.886854
327.246124	898.245605	5772.281250	2102.692627	24.711494
327.614288	908.573669	5714.474121	2085.528564	24.489788
327.982422	908.425049	5684.529785	2080.847656	24.547674
328.350525	910.282654	5618.177246	2072.228516	24.680796
328.718628	913.774902	5599.230469	2079.807617	24.886219
329.086700	925.217529	5590.833496	2073.640381	24.614601
329.454712	928.263916	5633.929688	2076.092285	24.392475
329.822693	924.771667	5690.548340	2090.655518	24.463667
330.190674	922.765564	5737.507813	2098.085938	24.410868
330.558563	922.765564	5767.154297	2119.039307	24.694008
330.926483	926.480652	5827.042480	2131.447998	24.588348
331.294312	922.542664	5899.041504	2162.580811	24.917881
331.662231	912.511780	5996.006348	2188.958008	25.109623
332.029999	905.081482	6103.894531	2203.521484	24.975700
332.397766	898.617188	6207.026855	2218.604736	24.865971
332.765503	907.236267	6294.406250	2239.409424	24.728626
333.133240	902.703796	6362.617188	2263.558105	24.924465
333.500916	904.412781	6432.386719	2286.443359	25.000669
333.868561	907.756348	6456.609375	2284.511475	24.811525
334.236176	908.499329	6463.891113	2279.533203	24.679338
334.603790	909.019470	6421.761230	2257.390869	24.459179
334.971344	900.846191	6395.606934	2237.923584	24.333677
335.338867	909.019531	6332.375000	2241.118652	24.562269
335.706360	908.648010	6300.871094	2223.805908	24.389902
336.073853	918.901794	6284.152344	2227.967041	24.398958
336.441284	919.273254	6302.951172	2226.109375	24.274042
336.808655	919.941895	6300.722168	2236.883545	24.474920
337.176086	911.397217	6305.552246	2241.118408	24.651148
337.543396	910.802734	6285.861816	2235.991699	24.654408
337.910706	913.849121	6268.251953	2239.038330	24.749523
338.277954	920.536316	6236.970703	2241.713135	24.850805
338.645264	918.827393	6211.559082	2235.174316	24.870842
339.012421	910.802734	6194.097656	2231.607910	24.999649
339.379669	910.059753	6193.503418	2214.964111	24.697987
339.746796	906.864746	6195.583496	2206.642334	24.576418
340.113953	918.232971	6206.654785	2196.908447	24.178774
340.481018	915.483826	6209.181152	2203.447021	24.330124
340.848114	917.415710	6228.425781	2200.697998	24.162676
341.215118	914.963684	6293.515137	2227.521240	24.403553
341.582153	912.586121	6402.962402	2256.870850	24.484381
341.949066	912.660339	6520.435059	2296.474365	24.676702
342.316010	907.756348	6619.257813	2316.387451	24.663061
342.682922	906.047363	6733.535156	2347.371338	24.733196
343.049835	901.291992	6892.542969	2379.841797	24.678482
343.416656	904.338379	7105.568848	2441.438721	24.787022
343.783478	908.870911	7351.437500	2499.915039	24.695814
344.150269	915.929688	7642.777832	2569.387939	24.579985
344.516998	915.186584	7925.128418	2628.458740	24.440605
344.883728	914.072083	8070.167480	2664.495605	24.460596
345.250427	910.356934	8109.770996	2671.554443	24.463068
345.617065	915.260925	7999.505371	2646.811768	24.442278
345.983704	907.384827	7867.320313	2614.935791	24.534006
346.350281	904.932861	7684.164063	2571.468750	24.582962
346.716827	897.725525	7497.069824	2525.475342	24.665325
347.083405	900.771912	7339.177246	2479.258789	24.516735
347.449860	926.852234	7207.364746	2463.358154	24.464657
347.816376	929.081238	7102.746094	2440.250000	24.477659
348.182770	933.910950	7027.179688	2425.612305	24.481136
348.549194	913.403320	6974.053223	2405.476318	24.619026
348.915558	918.604553	7002.213379	2419.668213	24.673903
349.281921	911.099915	7050.733887	2428.287354	24.711369
349.648193	909.911133	7117.383301	2440.027100	24.649582
350.014526	907.830627	7164.862793	2445.748291	24.579029
350.380737	910.728516	7222.967285	2458.528320	24.520617
350.746948	915.038086	7294.074707	2484.162842	24.598146
351.113159	912.214539	7360.130371	2490.106934	24.471354
351.479309	919.198975	7433.541504	2499.097656	24.252619
351.845428	915.335205	7517.058105	2505.041748	24.080177
352.211517	912.140137	7608.376465	2531.642334	24.185261
352.577576	906.270264	7718.937988	2560.694580	24.284529
352.943604	905.824463	7845.178223	2585.511719	24.205240
353.309601	910.728333	7999.876953	2624.074951	24.168583
353.675537	908.276367	8182.958496	2670.811279	24.228342
354.041473	906.344543	8385.804688	2725.423828	24.320999
354.407379	904.784180	8561.159180	2754.253174	24.155935
354.773254	902.926575	8749.813477	2810.946045	24.315624
355.139038	913.923340	8909.193359	2845.051025	24.153378
355.504913	915.112305	9157.512695	2920.022705	24.324350
355.870636	921.130798	9372.173828	2964.455811	24.178375
356.236389	915.632507	9637.062500	3038.535400	24.341225
356.602081	914.443665	9909.084961	3105.927979	24.364332
356.967804	920.239258	10182.073242	3183.425781	24.435619
357.333405	911.694336	10446.293945	3250.223877	24.526772
357.699036	905.824463	10642.378906	3295.251221	24.540783
358.064606	900.623291	10821.077148	3322.148682	24.409420
358.430176	904.561340	10886.983398	3320.068359	24.197605
358.795654	909.019531	10908.160156	3316.427490	24.076149
359.161163	905.007141	10906.747070	3310.334717	24.049091
359.526581	902.034973	11003.637695	3343.770752	24.171766
359.892029	902.555176	11243.414063	3422.829102	24.371998
360.257416	904.709961	11652.672852	3532.276611	24.447113
360.622772	908.499329	12162.910156	3663.495361	24.479256
360.988098	905.452942	12705.839844	3767.445313	24.253378
361.353394	907.682068	13154.776367	3876.075928	24.237534
361.718658	908.202148	13449.609375	3929.128174	24.087616
362.083893	914.592224	13512.468750	3931.357178	23.946613
362.449097	919.644775	13328.496094	3858.020264	23.679672
362.814209	916.746887	12889.293945	3732.596924	23.519224
363.179382	917.787170	12215.739258	3576.263916	23.530607
363.544434	916.375488	11476.278320	3403.658936	23.554039
363.909546	916.449707	10800.495117	3251.858398	23.628067
364.274536	916.003906	10300.066406	3140.552979	23.705608
364.639587	915.335205	9923.352539	3066.176025	23.876961
365.004517	916.895569	9659.948242	3016.987549	24.020123
365.369507	913.106201	9453.461914	2973.892334	24.129980
365.734344	904.338440	9338.291992	2953.830811	24.300495
366.099274	907.384766	9259.753906	2936.963623	24.299438
366.464081	915.706726	9220.000977	2916.976318	24.099213
366.828918	922.096741	9183.295898	2907.465576	24.032454
367.193665	916.226868	9134.255859	2885.026123	23.957073
367.558411	915.038025	9081.204102	2890.450195	24.190203
367.923126	919.273254	8983.792969	2858.276611	24.043633
368.287781	928.858337	8912.759766	2846.314209	24.016527
368.652435	925.068848	8831.101563	2809.682861	23.837669
369.017059	926.109131	8779.238281	2802.921631	23.898914
369.381653	924.697449	8730.791992	2804.036133	24.075274
369.746185	922.765442	8727.226563	2820.828857	24.320238
370.110687	922.691162	8775.151367	2834.797607	24.350412
370.475220	913.477539	8850.346680	2852.258545	24.427528
370.839661	915.483704	8944.933594	2868.159180	24.318920
371.204041	906.864746	9017.601563	2886.735107	24.410486
371.568451	918.901794	9071.024414	2894.908203	24.239164
371.932770	920.833679	9093.389648	2894.685303	24.152193
372.297150	923.582825	9082.467773	2888.592529	24.084293
372.661377	914.963684	9084.473633	2887.626953	24.146654
373.025696	905.675964	9084.993164	2885.992188	24.211264
373.389862	906.567566	9100.448242	2888.444092	24.187275
373.754059	909.390930	9110.256836	2898.623291	24.256371
374.118225	909.985413	9148.820313	2914.227295	24.326763
374.482361	913.403320	9243.555664	2943.056641	24.365141
374.846436	916.747009	9395.133789	2983.625732	24.378206
375.210510	913.849182	9642.709961	3055.327393	24.533308
375.574524	908.573730	9909.977539	3127.995850	24.656399
375.938538	910.356934	10216.030273	3204.304688	24.651066
376.302460	923.731445	10507.518555	3279.870850	24.584639
376.666412	925.068848	10786.971680	3338.570068	24.472979
377.030304	915.038086	10989.817383	3374.978271	24.416815
377.394196	912.734680	11100.456055	3375.647217	24.175303
377.757996	922.691223	11115.018555	3365.393311	23.966089
378.121796	932.499207	11025.260742	3336.935303	23.823370
378.485565	923.880066	10827.690430	3288.266846	23.873505
378.849304	910.208313	10565.772461	3216.787842	23.888605
379.212982	910.356934	10277.551758	3143.525146	23.840307
379.576630	913.329041	10004.340820	3087.129639	23.911535
379.940277	913.403320	9812.341797	3048.046143	23.987612
380.303864	910.876953	9684.838867	3014.758545	23.978695
380.667450	915.038025	9655.266602	3005.694092	23.919924
381.030945	924.102966	9607.416992	3008.740234	24.007391
381.394501	916.449707	9625.992188	3026.795654	24.230272
381.757935	919.793274	9660.542969	3031.922607	24.164167
382.121399	918.901672	9724.962891	3036.603516	24.048229
382.484741	925.588928	9839.686523	3061.940674	23.965990
382.848145	920.833679	9956.639648	3087.723877	23.981150
383.211487	913.997803	10065.567383	3140.404541	24.328142
383.574768	910.208313	10193.293945	3172.800537	24.373278
383.938019	904.487000	10270.791016	3203.859131	24.549408
384.301270	908.053528	10373.328125	3207.797119	24.296640
384.664459	903.298157	10401.786133	3206.831299	24.251577
385.027649	906.641785	10461.525391	3215.301758	24.162092
385.390778	911.545837	10540.286133	3238.409912	24.165819
385.753876	918.158752	10617.413086	3255.499268	24.098148
386.116943	918.827454	10686.291992	3263.078125	24.000607
386.479980	909.019531	10726.935547	3267.462158	24.021826
386.842987	909.613953	10786.749023	3294.805420	24.148617
387.205994	908.648010	10825.757813	3312.489502	24.239336
387.568909	910.134033	10884.382813	3313.975830	24.100479
387.931793	911.248596	10891.887695	3298.000732	23.913822
388.294678	910.208313	10896.866211	3283.214111	23.761761
388.657471	908.796631	10863.875977	3290.496094	23.924465
389.020294	911.100037	10846.041992	3300.898438	24.054476
389.383057	910.951355	10889.806641	3336.415039	24.306030
389.745819	915.781067	10968.196289	3365.021729	24.364700
390.108521	914.815125	11122.968750	3397.640381	24.321981
390.471191	916.524109	11349.890625	3445.268555	24.237091
390.833801	914.146301	11618.196289	3489.701904	24.061506
391.196442	911.471497	11845.710938	3553.379150	24.161789
391.558960	907.756348	12012.075195	3595.731689	24.206577
391.921509	907.979309	12131.256836	3623.594971	24.196281
392.284027	906.493164	12250.735352	3635.037842	24.052242
392.646484	911.397156	12251.776367	3627.904541	23.954290
393.008911	907.013367	12181.336914	3615.347656	24.022144
393.371307	911.174316	12109.188477	3610.815186	24.108212
393.733673	913.923523	12020.471680	3594.988525	24.139498
394.096008	916.226868	11962.441406	3585.106201	24.161032
394.458344	914.889404	11890.367188	3549.366455	24.003302
394.820587	907.087708	11799.272461	3516.599365	23.957653
395.182831	911.620117	11698.963867	3482.494141	23.832317
395.545013	911.397217	11494.036133	3446.606201	23.956303
395.907196	915.855286	11271.573242	3396.080078	23.950294
396.269287	913.403320	11019.539063	3336.266602	23.974180
396.631409	913.329041	10821.374023	3284.328857	23.930046
396.993469	912.585999	10682.131836	3255.350586	23.980282
397.355530	911.322937	10597.574219	3250.669922	24.151211
397.717499	914.592224	10588.063477	3260.254883	24.248405
398.079468	912.363098	10587.097656	3258.694336	24.252151
398.441376	910.579773	10584.200195	3255.425049	24.239584
398.803284	898.765625	10553.884766	3243.165283	24.281416
399.165131	897.056641	10580.187500	3241.827881	24.215012
399.526978	900.400330	10584.497070	3236.774658	24.125887
399.888763	910.133972	10583.976563	3232.168213	24.003223
400.250519	922.319641	10548.088867	3227.858643	23.951738
400.612244	929.824280	10564.807617	3233.208740	23.906471
400.973938	930.864441	10581.079102	3238.260986	23.910313
401.335602	922.988342	10640.892578	3246.434326	23.908920
401.697205	921.279358	10720.470703	3274.000732	24.009342
402.058807	909.465332	10845.522461	3305.727783	24.116837
402.420349	903.075256	11019.317383	3356.847900	24.255774
402.781860	896.165100	11197.420898	3400.092041	24.307007
403.143341	899.880188	11419.288086	3457.082275	24.309372
403.504822	910.208313	11627.484375	3510.431641	24.261980
403.866241	909.242371	11892.374023	3554.642334	24.086025
404.227631	913.031799	12083.257813	3600.412842	24.058432
404.588959	916.449707	12258.834961	3628.870361	23.914024
404.950287	919.124695	12310.028320	3655.916992	24.026121
405.311554	921.502380	12304.753906	3647.520752	23.947624
405.672821	916.746887	12225.398438	3647.594971	24.148310
406.034027	916.895508	12106.960938	3601.081299	23.987221
406.395203	911.322815	11912.731445	3552.561768	24.008190
406.756348	911.025635	11787.383789	3499.806641	23.801910
407.117493	902.629395	11685.588867	3485.763672	23.955709
407.478516	906.716125	11672.957031	3492.673828	24.019133
407.839600	908.276550	11636.176758	3492.822266	24.091812
408.200592	911.917297	11650.741211	3504.413330	24.141340
408.561554	904.561340	11670.877930	3514.593018	24.242569
408.922485	900.103210	11727.867188	3538.147217	24.363701
409.283417	898.468506	11808.561523	3561.775391	24.411404
409.644257	903.075378	11951.147461	3584.066162	24.266592
410.005096	906.864746	12112.383789	3616.908203	24.184898
410.365906	907.830750	12206.971680	3634.072021	24.127863
410.726715	915.781067	12245.163086	3645.737305	24.096251
411.087433	915.186584	12242.859375	3628.870361	23.956234
411.448120	919.644775	12248.506836	3623.743408	23.869110
411.808807	920.090576	12213.213867	3613.341553	23.848593
412.169434	920.090576	12101.238281	3596.400391	23.935913
412.530029	929.527039	12053.015625	3575.075439	23.783442
412.890564	931.310242	12053.981445	3577.973389	23.795212
413.251099	933.465149	12123.604492	3614.381592	23.957848
413.611572	931.533203	12213.137695	3654.207764	24.133753
413.972076	930.270081	12314.710938	3673.080811	24.092627
414.332489	928.189636	12418.213867	3686.455078	24.005739
414.692871	920.833679	12585.618164	3733.191406	24.109814
415.053223	920.387878	12791.362305	3785.278076	24.133572
415.413574	914.072083	13048.226563	3840.039063	24.113482
415.773834	914.815125	13238.664063	3882.614502	24.081757
416.134094	905.824463	13458.526367	3927.939209	24.075413
416.494263	913.180359	13706.846680	3988.941406	24.041279
416.854462	918.678772	14075.684570	4057.225830	23.854570
417.214630	931.013123	14466.590820	4157.237305	23.835140
417.574738	932.350586	14886.028320	4259.180664	23.841959
417.934784	931.087463	15319.659180	4373.383789	23.923824
418.294861	930.641602	15830.045898	4497.246582	23.937902
418.654846	927.372253	16396.382813	4629.282715	23.931139
419.014832	925.588928	17012.353516	4775.658691	23.933151
419.374756	918.678772	17672.310547	4934.592285	23.970407
419.734680	923.954346	18440.152344	5111.284668	23.905474
420.094543	920.462097	19106.201172	5253.573730	23.826979
420.454376	921.353821	19654.556641	5363.021484	23.710135
420.814148	917.638611	20083.802734	5450.550293	23.650595
421.173920	913.700500	20530.435547	5542.537109	23.596365
421.533691	909.613953	20882.259766	5627.093750	23.619703
421.893341	907.533447	21088.451172	5651.910645	23.509222
422.253021	917.712891	21148.488281	5670.263672	23.491688
422.612640	922.096741	21104.796875	5657.929199	23.464813
422.972260	927.149414	21020.537109	5660.232422	23.555428
423.331757	918.604553	20980.115234	5635.786621	23.513596
423.691315	921.502380	21096.697266	5667.736816	23.525097
424.050781	927.966614	21268.410156	5702.511230	23.473158
424.410248	936.065674	21275.099609	5714.770996	23.495241
424.769653	934.876892	21169.587891	5660.380859	23.353455
425.128998	920.462097	20967.187500	5594.177246	23.314110
425.488373	920.759277	20669.009766	5493.645996	23.155909
425.847656	914.146301	20271.417969	5410.649902	23.229015
426.206940	911.842957	19831.322266	5315.393555	23.275223
426.566193	904.189758	19341.667969	5221.771973	23.417421
426.925385	903.595398	18911.529297	5105.339844	23.332741
427.284576	908.647949	18322.457031	4972.783691	23.338581
427.643677	909.613831	17901.904297	4881.837402	23.376621
428.002777	912.214539	17475.404297	4793.268555	23.431803
428.361847	917.712891	17131.085938	4738.507813	23.565701
428.720856	918.753113	16798.953125	4652.391113	23.511278
429.079865	919.570496	16564.232422	4604.762695	23.555588
429.438812	911.768738	16424.914063	4551.785156	23.464077
429.797760	915.409485	16343.551758	4542.199707	23.507627
430.156616	914.220703	16161.362305	4506.608887	23.561060
430.515503	915.112305	16029.995117	4492.416504	23.667429
430.874268	913.923401	15929.612305	4477.704590	23.733719
431.233093	916.226868	15962.083008	4490.484863	23.755764
431.591827	924.548828	16043.145508	4491.748535	23.594780
431.950562	923.731445	16111.058594	4504.305176	23.576063
432.309204	917.118469	16187.960938	4521.246094	23.601368
432.667877	901.514954	16287.304688	4565.382324	23.813320
433.026459	903.446777	16436.357422	4596.663574	23.776722
433.385010	907.682129	16537.111328	4610.929688	23.694067
433.743561	916.152649	16669.072266	4630.991699	23.581907
434.102051	918.233093	16731.486328	4657.814453	23.648399
434.460510	920.982239	16836.253906	4669.034668	23.550037
434.818939	925.291809	16807.646484	4676.835938	23.620831
435.177338	916.449768	16804.675781	4664.947754	23.592930
435.535675	919.421875	16733.271484	4670.445801	23.719866
435.894012	922.765442	16661.197266	4646.074707	23.657436
436.252289	929.006836	16683.189453	4668.737305	23.738016
436.610535	924.251465	16703.177734	4664.650879	23.705032
436.968719	928.115234	16922.667969	4713.764160	23.668364
437.326935	932.573425	17115.705078	4743.931641	23.551426
437.685028	938.443359	17358.898438	4810.506836	23.580732
438.043152	929.972900	17558.474609	4841.937012	23.525656
438.401215	928.561096	17832.576172	4903.236328	23.513203
438.759277	927.149414	18151.708984	4970.554688	23.474653
439.117249	926.926453	18641.289063	5088.845215	23.494600
439.475250	921.576660	19044.382813	5188.633301	23.545231
439.833130	921.873840	19500.527344	5293.623047	23.531033
440.191071	919.347595	19748.029297	5345.635254	23.508219
440.548889	911.991516	20003.408203	5406.711914	23.543148
440.906708	908.870911	20208.185547	5428.185547	23.416969
441.264496	906.195984	20280.556641	5453.596680	23.471230
441.622223	915.855408	20230.625000	5428.556641	23.363993
441.979950	913.774902	20045.166016	5391.628418	23.405792
442.337616	922.096680	19878.207031	5326.687988	23.235735
442.695251	921.725281	19626.246094	5256.545898	23.175257
443.052887	927.000732	19410.916016	5209.066406	23.166441
443.410461	925.960510	19290.769531	5193.834473	23.239414
443.768005	924.845947	19279.251953	5195.543457	23.267967
444.125458	924.623047	19319.671875	5223.035645	23.367226
444.482941	921.799622	19500.005859	5264.273438	23.374020
444.840393	927.892395	19796.994141	5340.879395	23.387371
445.197754	926.926453	20170.736328	5426.030273	23.379486
445.555084	928.635437	20525.087891	5509.917969	23.378122
445.912415	925.960510	20918.076172	5609.409668	23.426481
446.269714	928.115295	21174.640625	5678.882813	23.464607
446.626953	929.229797	21377.337891	5732.826172	23.491642
446.984161	922.171143	21477.869141	5740.330566	23.439531
447.341309	916.524109	21536.716797	5717.966309	23.285147
447.698456	917.044128	21469.398438	5684.975098	23.198954
448.055542	920.982239	21349.029297	5640.170410	23.101513
448.412598	926.332031	21083.990234	5578.127441	23.077063
448.769653	919.124695	20745.837891	5498.104004	23.095001
449.126617	921.799561	20285.236328	5404.408203	23.149858
449.483582	925.143250	19969.970703	5353.956543	23.254679
449.840515	935.768555	19601.578125	5261.672852	23.175552
450.197388	935.322754	19327.847656	5193.537109	23.151875
450.554230	931.087402	19067.712891	5123.989746	23.118427
450.911041	928.412537	18912.345703	5100.436035	23.198614
451.267822	933.019226	18851.937500	5091.074219	23.204834
451.624573	932.127625	18760.023438	5074.207031	23.233698
451.981262	929.675720	18695.457031	5055.259766	23.222080
452.337921	925.960449	18514.974609	5006.962891	23.201998
452.694580	921.428040	18327.435547	4966.542480	23.239759
453.051147	918.307312	18192.576172	4935.409668	23.254831
453.407715	920.164856	17963.351563	4886.741211	23.273678
453.764221	931.904724	17871.216797	4854.939941	23.159353
454.120728	931.979004	17521.474609	4771.497559	23.144276
454.477142	929.304199	17372.349609	4736.055176	23.151133
454.833557	921.799561	17141.562500	4694.000000	23.256817
455.189911	929.601379	17049.427734	4692.291016	23.341999
455.546265	927.743835	16968.882813	4673.641113	23.351816
455.902557	928.338196	16925.044922	4643.325684	23.223452
456.258820	923.137024	16982.851563	4660.787109	23.273453
456.615051	920.982178	17111.544922	4705.071289	23.372190
456.971252	920.016296	17192.535156	4754.110840	23.561777
457.327393	919.124695	17533.064453	4830.345703	23.541803
457.683502	921.948181	17974.273438	4942.394043	23.577110
458.039612	925.663269	18716.931641	5095.457520	23.437309
458.395630	930.864441	19410.621094	5284.855469	23.560869
458.751648	933.316467	20083.876953	5442.823242	23.547649
459.107605	932.573425	20854.394531	5655.997559	23.709803
459.463562	931.830383	21486.265625	5774.287598	23.559183
459.819458	929.601379	21925.095703	5852.899902	23.449308
460.175323	929.378418	22021.171875	5836.850098	23.267210
460.531158	929.972839	21951.328125	5785.061035	23.095982
460.886932	927.818115	21690.228516	5690.176270	22.937407
461.242676	924.846008	21290.257813	5558.884277	22.754454
461.598419	923.211365	20701.333984	5426.328125	22.768169
461.954102	916.672668	20004.224609	5275.642090	22.836710
462.309723	925.366028	19292.552734	5129.860352	22.891333
462.665344	922.393982	18712.173828	5003.173828	22.938900
463.020905	927.595215	18304.994141	4931.323730	23.039862
463.376373	921.502380	18039.287109	4885.850098	23.159233
463.731873	923.136963	17813.257813	4840.896484	23.195568
464.087341	920.462097	17671.638672	4795.869629	23.135138
464.442749	921.799622	17620.742188	4778.854004	23.097595
464.798126	920.387878	17621.929688	4784.128906	23.134039
465.153503	925.811829	17759.984375	4837.032715	23.233818
465.508820	918.381653	17863.117188	4871.435059	23.329094
465.864105	919.050354	18015.064453	4903.682129	23.307373
466.219330	920.164978	18229.279297	4963.273438	23.358261
466.574524	922.616943	18322.158203	4992.474121	23.390600
466.929657	926.183411	18352.921875	4996.263672	23.355377
467.284790	926.926453	18287.535156	4975.310059	23.319363
467.639893	929.378479	18204.539063	4955.842773	23.307827
467.994934	927.000793	18168.947266	4935.707031	23.249731
468.349945	926.777832	18035.574219	4883.695313	23.127970
468.704926	925.440430	17914.609375	4838.147461	23.030598
469.059875	924.177246	17652.023438	4795.869629	23.145195
469.414764	918.827332	17464.111328	4757.306152	23.199837
469.769653	918.158691	17340.398438	4732.860840	23.228878
470.124451	912.065857	17368.707031	4742.668457	23.276941
470.479248	916.375488	17308.744141	4747.423828	23.370926
470.834015	914.889343	17285.562500	4746.383789	23.404623
471.188721	922.171082	17386.910156	4756.562988	23.288507
471.543365	923.805725	17584.777344	4794.754883	23.233635
471.898010	932.127686	17731.451172	4840.524902	23.265205
472.252625	933.613708	17917.283203	4893.131348	23.313675
472.607178	930.270020	18143.460938	4934.815430	23.264399
472.961700	928.858398	18361.169922	4966.839844	23.163774
473.316193	932.945007	18535.779297	4991.211426	23.054619
473.670654	931.533264	18562.158203	4977.167480	22.946630
474.025055	928.338196	18635.123047	5005.551270	23.026276
474.379456	919.867676	18691.742188	5039.804688	23.182343
474.733795	927.223633	18824.373047	5097.092285	23.299067
475.088104	920.313477	19024.693359	5137.066895	23.291346
475.442383	928.115234	19173.669922	5166.045410	23.227192
475.796570	926.034851	19418.421875	5221.103516	23.226147
476.150787	939.632263	19729.896484	5301.275879	23.212254
476.504944	934.282471	20097.474609	5376.916016	23.183163
476.859070	939.260742	20451.525391	5451.738770	23.126366
477.213135	927.892395	20740.712891	5516.977051	23.162197
477.567200	923.062683	21084.138672	5614.536621	23.269958
477.921173	917.935852	21420.656250	5696.343750	23.306213
478.275146	919.867676	21792.988281	5768.789063	23.230457
478.629089	922.171082	22091.388672	5840.640137	23.234064
478.983002	928.041016	22476.500000	5912.119141	23.129627
479.336823	929.601318	22869.187500	6000.167969	23.111496
479.690643	931.458923	23332.468750	6089.107910	23.024181
480.044403	923.211243	23892.263672	6262.976563	23.247650
480.398163	927.892395	24795.412109	6484.027344	23.279062
480.751862	926.554932	26006.474609	6777.447754	23.328993
481.105499	932.201965	27627.833984	7152.305176	23.300077
481.459137	930.270081	29775.328125	7702.665527	23.478529
481.812744	929.601379	32607.970703	8444.801758	23.723444
482.166290	926.554993	36164.917969	9361.250977	23.936119
482.519806	923.582825	40231.285156	10419.544922	24.158018
482.873291	928.561218	44476.941406	11527.472656	24.338245
483.226715	937.477478	48359.855469	12553.666992	24.495165
483.580139	940.375305	51088.621094	13324.484375	24.695000
483.933502	943.867493	52860.667969	13780.554688	24.725498
484.286804	942.307190	53540.386719	13884.132813	24.605129
484.640106	940.598145	53567.062500	13662.413086	24.173796
484.993347	938.146179	52745.417969	13244.459961	23.754026
485.346558	930.344421	51352.765625	12706.136719	23.354277
485.699738	926.926453	49705.996094	12227.180664	23.166193
486.052887	924.177246	48216.000000	11861.686523	23.127697
486.405975	923.062683	47305.863281	11707.507813	23.250957
486.759064	930.195801	46904.406250	11689.156250	23.402166
487.112061	933.687988	46794.582031	11696.140625	23.467604
487.464996	933.910950	46738.488281	11689.453125	23.481369
487.817963	934.951172	46564.996094	11642.122070	23.465176
488.170868	937.254578	46030.613281	11463.573242	23.343390
488.523743	941.192566	45152.503906	11174.164063	23.145596
488.876587	938.591980	43926.511719	10805.472656	22.952684
489.229401	947.731201	42708.683594	10491.841797	22.854149
489.582153	940.375183	41528.609375	10217.961914	22.857822
489.934845	939.483582	40802.003906	10035.697266	22.818964
490.287537	923.211243	40501.894531	10011.028320	22.961393
490.640198	936.065674	40691.292969	10134.593750	23.137909
490.992798	934.802551	40928.910156	10256.748047	23.308296
491.345337	941.266846	41178.640625	10304.079102	23.268944
491.697876	942.901550	41017.332031	10230.667969	23.176291
492.050354	951.223389	40559.402344	10071.436523	23.026085
492.402832	950.480408	39486.769531	9754.163086	22.845175
492.755219	943.495911	37952.269531	9333.833008	22.671211
493.107605	935.471252	36028.796875	8819.211914	22.465073
493.459930	937.626160	34038.152344	8324.208008	22.315601
493.812225	937.031555	32053.376953	7877.054199	22.303463
494.164490	936.511475	30306.296875	7497.812988	22.340313
494.516724	932.053284	28900.193359	7213.308105	22.458607
494.868896	929.006897	27918.726563	7008.381348	22.524778
495.221039	935.991394	27349.791016	6924.791016	22.672997
495.573120	937.848938	26944.248047	6875.751465	22.832466
495.925201	949.291687	26855.677734	6880.134766	22.893364
496.277222	954.269836	26865.562500	6888.233887	22.901072
496.629211	953.155273	26942.835938	6897.521973	22.872028
496.981140	944.907715	26939.046875	6882.289551	22.841232
497.333069	938.443359	26910.662109	6865.571777	22.821032
497.684967	935.991394	26774.462891	6846.624512	22.875322
498.036804	933.316406	26610.701172	6782.798340	22.780676
498.388580	936.362854	26270.244141	6688.656738	22.705933
498.740326	937.700378	25942.201172	6590.725098	22.608030
499.092072	939.855164	25448.310547	6485.661621	22.628136
499.443756	936.139954	24984.662109	6388.250488	22.671291
499.795410	936.660095	24522.125000	6290.468750	22.699610
500.147003	935.025452	24173.498047	6196.549316	22.641436
500.498566	934.876770	23824.796875	6137.182129	22.727493
500.850098	933.019287	23523.572266	6055.375000	22.674768
501.201599	936.362976	23228.666016	6030.929199	22.853477
501.553009	934.208069	23001.375000	5966.806152	22.805820
501.904449	939.334961	22849.796875	5938.496094	22.816320
502.255859	948.994324	22750.228516	5898.744629	22.703993
502.607178	950.851868	22765.087891	5905.357422	22.712257
502.958405	945.502136	22759.814453	5910.930176	22.762249
503.309692	931.979004	22772.669922	5925.716309	22.864374
503.660919	928.561096	22799.640625	5928.316406	22.860121
504.012115	931.236023	22822.302734	5947.264160	22.913586
504.363251	930.270020	22866.218750	5962.941406	22.942574
504.714294	928.709717	22835.458984	5983.746094	23.075245
505.065369	931.236023	22839.914063	5973.046875	23.012850
505.416443	930.418701	22756.025391	5934.706543	22.928516
505.767395	930.641602	22705.646484	5918.509277	22.906391
506.118317	933.167908	22604.669922	5900.304688	22.920132
506.469238	938.517761	22615.517578	5913.753906	22.951683
506.820160	943.124512	22639.072266	5904.763184	22.868965
507.170929	947.434021	22739.083984	5947.264160	22.943789
507.521729	943.570129	22917.115234	5967.325684	22.862743
507.872498	940.969666	23121.593750	6002.173828	22.818130
508.223236	932.127625	23359.882813	6060.130371	22.864538
508.573883	931.756165	23526.619141	6133.466309	23.021648
508.924500	939.112061	23746.330078	6217.650879	23.144159
509.275116	947.211121	23908.757813	6249.973145	23.094099
509.625702	950.480286	24171.716797	6298.419434	23.030380
509.976196	954.046936	24345.212891	6338.542480	23.019356
510.326660	952.783875	24567.302734	6364.324707	22.916161
510.677124	958.876648	24768.958984	6395.606934	22.833733
511.027557	951.297791	24972.328125	6429.860840	22.807360
511.377869	946.245117	25158.234375	6474.293457	22.831865
511.728180	934.951172	25247.171875	6504.163574	22.907049
512.078430	939.409241	25292.796875	6513.748047	22.889378
512.428650	936.065674	25290.343750	6499.185059	22.842472
512.778931	938.443359	25256.533203	6483.804199	22.803440
513.129028	935.471252	25181.712891	6452.894043	22.755785
513.479126	938.294739	25113.578125	6453.711426	22.814280
513.829285	946.393738	24961.849609	6423.470703	22.806469
514.179382	946.022278	24850.248047	6392.411621	22.784210
514.529297	944.833435	24721.775391	6373.538574	22.831806
514.879272	938.220459	24750.531250	6382.158203	22.861862
515.229187	938.443359	24766.509766	6395.086426	22.900066
515.579163	940.078064	24944.611328	6434.244141	22.888035
515.928955	940.449646	25147.978516	6484.918457	22.903902
516.278748	941.192627	25571.281250	6582.552734	22.904345
516.628540	948.474304	26088.798828	6701.140137	22.882227
516.978333	950.480408	26785.240234	6866.834473	22.900751
517.327942	942.455750	27509.765625	7060.764160	23.029461
517.677612	930.418701	28218.314453	7222.893066	23.059582
518.027222	928.189636	28787.994141	7353.294434	23.062275
518.376831	937.180237	29290.279297	7445.949707	22.956112
518.726379	938.443359	29608.521484	7497.070313	22.876209
519.075867	941.489746	29650.054688	7501.677246	22.850977
519.425293	938.294739	29533.177734	7456.129395	22.793709
519.774658	943.793213	29176.451172	7360.873047	22.729280
520.124084	944.536194	28817.271484	7257.592285	22.649576
520.473389	941.638428	28304.359375	7149.853027	22.688587
520.822693	938.889160	27830.603516	7051.476563	22.730373
521.171997	941.935547	27412.208984	6940.320313	22.660833
521.521240	944.907654	27133.794922	6857.546875	22.576902
521.870361	950.331726	26945.509766	6823.590332	22.593647
522.219482	948.251282	26852.408203	6844.320801	22.761093
522.568604	948.548523	26828.037109	6864.753906	22.860598
522.917664	943.347351	27005.771484	6911.639160	22.899988
523.266724	941.489746	27316.578125	6969.892578	22.856428
523.615662	943.867493	27866.640625	7112.925781	22.913902
523.964600	947.731201	28600.380859	7295.486816	22.955326
524.313538	944.833435	29537.484375	7524.933594	23.013256
524.662354	943.198730	30565.462891	7757.649902	23.004492
525.011169	943.347351	31674.359375	8041.188965	23.096674
525.359985	949.068665	32888.613281	8315.886719	23.064880
525.708740	945.056335	34145.441406	8626.768555	23.137419
526.057434	940.003662	35577.035156	8949.093750	23.122911
526.406067	939.186340	37205.082031	9380.421875	23.275961
526.754700	940.672424	39259.328125	9890.583984	23.356537
527.103333	946.022217	41713.695313	10537.240234	23.526527
527.451782	940.895325	44489.566406	11264.292969	23.705425
527.800293	947.656982	47144.109375	11976.484375	23.873753
528.148743	940.821045	49278.011719	12566.893555	24.052023
528.497131	945.204895	50677.578125	12915.446289	24.069313
528.845642	943.570251	51240.644531	13029.725586	24.029539
529.193909	945.650696	51136.996094	12851.174805	23.720274
529.542175	947.062500	50197.503906	12478.918945	23.414726
529.890503	944.239014	48637.894531	11920.682617	23.014473
530.238770	943.793152	46508.449219	11317.196289	22.766336
530.586914	946.542297	44297.500000	10710.217773	22.522400
530.934998	951.594971	42154.160156	10184.897461	22.409533
531.283142	961.031433	40571.964844	9809.073242	22.337374
531.631226	959.396729	39467.527344	9606.821289	22.456102
531.979248	956.796143	39029.289063	9575.986328	22.638891
532.327148	946.690979	38981.289063	9678.968750	22.958775
532.675110	939.483643	39140.964844	9760.034180	23.089552
533.023071	935.545593	39356.066406	9851.574219	23.206423
533.370850	934.802551	39323.449219	9795.996094	23.082848
533.718689	932.870667	39119.710938	9747.253906	23.082253
534.066467	933.539368	38611.261719	9563.652344	22.905083
534.414246	930.938782	37825.878906	9374.700195	22.885960
534.761963	944.313293	36969.839844	9104.387695	22.650812
535.109619	953.006653	36095.593750	8906.444336	22.631907
535.457153	960.882813	35328.191406	8708.651367	22.544006
535.804749	951.817871	34653.972656	8586.050781	22.652061
536.152344	948.845703	34127.089844	8469.618164	22.667784
536.499817	941.341248	33609.796875	8356.379883	22.697855
536.847229	941.118225	33075.113281	8243.886719	22.725990
537.194641	932.127686	32481.880859	8083.689941	22.667570
537.542114	942.381409	31929.662109	7975.579590	22.697048
537.889404	944.313293	31362.732422	7844.955566	22.685736
538.236694	949.588684	30825.078125	7750.813965	22.765234
538.583984	943.718811	30477.119141	7667.520996	22.766773
538.931213	944.536316	30496.140625	7695.904297	22.846029
539.278381	946.393799	30915.431641	7814.863281	22.918552
539.625488	946.022217	31792.054688	8055.158203	23.047163
539.972595	945.279236	33116.500000	8425.854492	23.252382
540.319641	939.780823	34704.644531	8850.866211	23.429935
540.666687	950.703369	36333.437500	9274.093750	23.523876
541.013611	946.393799	37814.066406	9607.192383	23.491581
541.360596	954.046936	38880.464844	9839.760742	23.428823
541.707458	946.468079	39519.386719	9940.664063	23.317387
542.054260	951.223450	39548.441406	9890.064453	23.159286
542.401062	949.068665	39204.121094	9760.554688	23.033524
542.747864	948.399963	38398.386719	9526.351563	22.905085
543.094666	957.093323	37212.214844	9207.666992	22.756987
543.441284	952.189392	35751.722656	8827.088867	22.629324
543.787903	959.693909	34200.722656	8457.729492	22.556570
544.134460	953.675354	32734.507813	8114.674316	22.532446
544.481079	961.402893	31493.951172	7821.699219	22.468798
544.827637	957.093445	30403.406250	7580.066406	22.491690
545.174072	966.306885	29502.337891	7401.219238	22.550129
545.520508	964.077820	28754.259766	7266.136719	22.677286
545.866943	967.718567	28209.177734	7171.400879	22.772943
546.213318	959.322327	27798.804688	7099.253418	22.876488
546.559631	962.963196	27423.500000	7035.947266	22.951097
546.905823	954.492737	27018.476563	6935.787109	22.948503
547.252136	949.886047	26541.304688	6801.225098	22.864458
547.598389	945.725037	25959.365234	6643.852051	22.780079
547.944458	944.759094	25301.193359	6489.748047	22.766012
548.290588	949.960266	24588.703125	6310.381348	22.676422
548.636658	950.628967	23810.458984	6130.123047	22.657623
548.982727	954.715637	23084.890625	5943.846191	22.544468
549.328735	951.669189	22389.119141	5791.896973	22.578375
549.674622	942.975769	21820.109375	5651.613281	22.554045
550.020569	938.666260	21312.990234	5536.964844	22.569086
550.366455	931.607605	20829.726563	5439.553711	22.655138
550.712280	931.681824	20493.283203	5387.764648	22.779745
551.058044	935.545593	20315.181641	5361.461426	22.837973
551.403748	942.752930	20253.734375	5355.813965	22.852600
551.749512	949.143005	20244.816406	5361.906738	22.869186
552.095154	945.204895	20210.490234	5354.922852	22.889450
552.440735	943.570313	20261.013672	5376.470703	22.947657
552.786316	947.656921	20267.255859	5368.297363	22.881638
553.131897	939.706543	20226.462891	5380.854004	23.026928
553.477417	930.492981	20111.517578	5341.622559	22.997360
553.822815	920.536438	19934.750000	5286.341309	22.960743
554.168213	934.876892	19765.490234	5210.032715	22.703220
554.513672	950.257507	19511.076172	5151.333496	22.634111
554.859009	958.579407	19248.564453	5105.117188	22.671083
555.204285	957.762024	18983.527344	5050.504395	22.704958
555.549500	956.944824	18721.537109	4998.195801	22.748909
555.894714	946.468079	18501.898438	4945.291992	22.778275
556.239990	940.598206	18272.302734	4919.806152	22.959126
556.585022	938.889221	18129.640625	4885.032715	22.955038
556.930115	946.096619	17952.353516	4853.899414	22.978617
557.275146	946.616638	17806.201172	4807.905762	22.902636
557.620178	939.780762	17666.585938	4779.373535	22.954729
557.965149	934.282410	17574.080078	4762.432129	23.005987
558.310059	930.121399	17452.001953	4726.173340	22.975906
558.654968	932.870605	17367.443359	4709.603516	22.980415
558.999756	935.396973	17279.320313	4674.012695	22.874653
559.344604	943.421631	17283.259766	4691.770996	22.939941
559.689331	936.734375	17252.943359	4691.696777	23.013695
560.033997	946.839539	17247.593750	4719.114258	23.141720
560.378723	944.016052	17284.373047	4711.832520	23.058348
560.723389	957.167664	17334.230469	4713.913574	22.939070
561.067932	937.625977	17422.947266	4707.449219	22.867758
561.412476	938.666260	17417.078125	4712.873047	22.903948
561.757019	934.208008	17403.927734	4725.950684	23.022511
562.101501	946.542297	17364.250000	4721.417969	22.992710
562.445862	948.102722	17308.597656	4703.064941	22.951397
562.790222	942.678711	17267.208984	4669.925781	22.832186
563.134644	945.502136	17222.849609	4653.802246	22.781967
563.478943	939.112122	17240.755859	4673.195313	22.906176
563.823181	937.774597	17284.521484	4693.777344	22.977064
564.167358	929.304199	17375.541016	4737.392578	23.154772
564.511536	936.214355	17519.244141	4774.246582	23.144337
564.855774	943.495911	17713.250000	4812.513184	23.071402
565.199768	948.251282	17930.212891	4875.744629	23.127443
565.543823	943.198730	18151.115234	4929.391113	23.164875
565.887817	937.774597	18388.212891	5005.849121	23.312162
566.231812	940.523865	18557.105469	5031.482910	23.222206
566.575745	942.455750	18623.458984	5038.615723	23.167011
566.919617	946.542480	18633.412109	5020.634766	23.034559
567.263428	941.266907	18577.833984	4974.864258	22.870649
567.607239	938.591980	18507.322266	4951.979004	22.843922
567.950989	937.774658	18345.564453	4915.199219	22.848534
568.294678	942.678650	18225.119141	4896.771973	22.879251
568.638367	946.988220	18091.671875	4858.951660	22.817356
568.981995	938.294739	17991.216797	4830.048340	22.821623
569.325623	940.152344	17927.166016	4832.872070	22.915857
569.669128	935.619934	17897.000000	4831.236816	22.967569
570.012573	939.260742	17911.265625	4845.651855	23.016676
570.356140	936.882996	17999.611328	4864.895996	23.021013
570.699524	938.294739	18098.062500	4899.967285	23.086983
571.042908	937.848938	18305.439453	4958.071777	23.147846
571.386230	929.527039	18464.152344	4999.681152	23.212097
571.729492	933.539368	18661.947266	5042.628418	23.177992
572.072815	935.471252	18766.341797	5067.891113	23.175648
572.416016	942.009949	18804.458984	5068.039551	23.098904
572.759094	943.941711	18835.740234	5057.340332	22.990414
573.102234	943.050110	18783.207031	5028.585449	22.900784
573.445374	944.164612	18708.533203	4995.669434	22.806917
573.788391	931.979004	18565.798828	4971.669434	22.908766
574.131409	936.511475	18447.210938	4945.440918	22.894171
574.474365	933.687988	18360.128906	4940.091309	22.990370
574.817261	944.461914	18266.878906	4912.376465	22.906240
575.160156	944.759094	18105.343750	4892.091309	23.002319
575.502930	942.455750	17891.351563	4836.810059	22.977037
575.845703	941.861328	17692.888672	4787.175293	22.955690
576.188477	951.446350	17473.029297	4721.120605	22.816668
576.531250	957.687683	17224.634766	4662.867188	22.777349
576.873901	949.514404	16892.947266	4617.616699	23.006979
577.216431	939.929443	16599.673828	4544.205566	23.016188
577.559082	932.201965	16296.742188	4493.531250	23.178886
577.901611	936.734375	15994.032227	4410.758301	23.072027
578.244080	935.545593	15697.340820	4341.285156	23.071310
578.586487	936.808594	15415.065430	4265.199219	22.988890
578.928955	1074.863159	15314.905273	4338.089844	22.915850
579.271301	1076.572021	15060.269531	4293.137207	23.002251
579.613647	1079.915649	14830.303711	4233.695313	22.935934
579.955872	945.427734	14474.690430	4054.625244	22.981277
580.298157	942.158447	14298.073242	4001.647461	22.907372
580.640320	934.876770	14139.362305	3973.635498	23.013081
580.982483	928.412537	14005.393555	3956.174072	23.153366
581.324524	924.028748	13908.057617	3931.654053	23.164036
581.666626	925.068848	13800.168945	3915.084717	23.223244
582.008728	925.960632	13726.760742	3883.283203	23.102638
582.350647	926.034851	13636.333008	3884.694580	23.277658
582.692566	930.641602	13579.194336	3864.558594	23.195673
583.034424	933.242188	13508.976563	3873.029297	23.376663
583.376343	936.808777	13419.516602	3845.759766	23.303844
583.718201	938.740540	13360.149414	3844.422607	23.392532
584.059937	941.489746	13313.859375	3814.552979	23.221609
584.401611	943.124512	13257.984375	3804.893799	23.238342
584.743347	937.997559	13208.870117	3791.593750	23.255037
585.085022	934.653992	13146.305664	3786.094971	23.350166
585.426514	932.499207	13114.653320	3783.717529	23.404877
585.768127	925.960510	13086.938477	3768.039307	23.370480
586.109619	922.839783	13071.855469	3757.042725	23.328663
586.451172	929.081238	13072.747070	3752.510498	23.250221
586.792542	934.728271	13054.541992	3754.739502	23.267778
587.133850	933.167908	13032.696289	3758.231689	23.348545
587.475220	929.006897	13046.070313	3781.488281	23.541029
587.816589	932.573486	13089.018555	3794.045654	23.538725
588.157776	943.273132	13148.683594	3803.853516	23.436987
588.498962	947.359680	13209.760742	3800.138428	23.264439
588.840210	948.697083	13274.848633	3811.581055	23.226099
589.181335	949.291565	13341.425781	3835.283447	23.288902
589.522400	946.839539	13390.242188	3854.304932	23.365517
589.863403	945.725037	13413.053711	3853.933594	23.326635
590.204407	943.198730	13402.502930	3864.484375	23.446619
590.545410	938.071838	13409.413086	3855.791260	23.395395
590.886353	942.604309	13344.323242	3842.565430	23.383543
591.227112	935.768372	13270.614258	3800.287109	23.222980
591.567932	932.870605	13140.137695	3785.352295	23.367077
591.908752	932.201904	13061.006836	3761.129639	23.324043
592.249512	936.808777	13049.340820	3752.584717	23.246798
592.590149	937.031555	13017.838867	3725.613037	23.082741
592.930786	934.802429	13022.221680	3735.718018	23.172155
593.271423	931.607483	13013.824219	3744.188477	23.278685
593.612000	933.985168	13043.026367	3770.343018	23.423473
593.952576	937.774719	13118.739258	3799.618164	23.494390
594.292969	944.164734	13231.010742	3830.007813	23.487257
594.633484	946.096497	13389.127930	3846.949219	23.313072
594.973877	939.037781	13549.843750	3869.537109	23.238003
595.314209	932.127625	13714.499023	3921.400391	23.385900
595.654480	930.641602	13935.698242	3990.353516	23.527094
595.994812	941.489746	14184.536133	4051.801514	23.486376
596.335022	940.895325	14413.910156	4079.739502	23.297268
596.675171	948.399902	14553.004883	4118.971191	23.305132
597.015320	935.174011	14616.682617	4148.766602	23.488583
597.355408	939.780823	14574.776367	4154.859375	23.579609
597.695496	936.585754	14445.192383	4098.166504	23.404196
598.035461	939.037781	14195.980469	4019.257080	23.234764
598.375366	932.053284	13892.156250	3923.332275	23.080675
598.715271	923.285583	13636.332031	3868.645508	23.168009
599.055176	933.985168	13354.799805	3803.853516	23.105316
599.395081	934.728210	13118.292969	3753.699219	23.137489
599.734802	936.660156	12830.074219	3684.523438	23.104074
600.074524	928.709717	12608.354492	3638.827148	23.203766
600.414246	932.276184	12410.709961	3600.709717	23.247368
600.753906	936.808777	12281.497070	3598.109375	23.458559
601.093506	932.499207	12202.067383	3575.595703	23.453396
601.433044	929.750000	12208.976563	3594.988525	23.629622
601.772583	926.480652	12267.230469	3600.561279	23.579397
602.112122	929.749939	12409.074219	3649.081055	23.688948
602.451538	930.047119	12584.428711	3683.334717	23.624485
602.790894	934.505310	12841.515625	3743.519775	23.591265
603.130310	933.613708	13114.578125	3806.974609	23.588943
603.469604	929.898499	13412.606445	3878.527588	23.621710
603.808838	931.533203	13697.260742	3945.325928	23.608469
604.148010	930.047180	13986.522461	4009.746338	23.587523
604.487305	934.356750	14191.671875	4067.331055	23.632042
604.826416	930.567322	14293.987305	4077.287842	23.547270
605.165527	931.384583	14252.526367	4068.371094	23.548931
605.504456	931.607422	14163.585938	4024.532471	23.374622
605.843445	930.938782	13973.742188	3971.257568	23.310316
606.182434	932.276184	13743.997070	3897.251953	23.142683
606.521423	933.019226	13441.660156	3816.856201	23.054758
606.860229	936.808777	13168.002930	3762.615234	23.103275
607.199036	940.969666	12913.886719	3717.291016	23.188345
607.537903	938.220459	12743.807617	3694.108398	23.343929
607.876648	944.239014	12608.799805	3655.173584	23.240778
608.215271	941.861328	12558.942383	3630.802490	23.146444
608.553955	937.180359	12531.971680	3621.885986	23.154411
608.892578	933.390808	12567.264648	3655.248047	23.395966
609.231140	925.291809	12621.432617	3700.498779	23.727545
609.569641	934.356750	12627.079102	3721.228760	23.834244
609.908081	932.796387	12596.836914	3710.157471	23.811312
610.246521	944.238953	12503.809570	3699.161133	23.832392
610.584961	944.164612	12429.656250	3667.136719	23.707930
610.923340	942.529968	12277.856445	3627.236084	23.684418
611.261597	945.873596	12051.307617	3557.762939	23.519022
611.599854	941.341125	11806.406250	3504.042236	23.586615
611.938110	946.096497	11579.781250	3457.974609	23.621899
612.276245	943.495911	11368.613281	3413.318604	23.691078
612.614319	945.056335	11139.018555	3365.170166	23.740660
612.952393	932.796387	10918.264648	3306.619873	23.772779
613.290466	925.143066	10735.628906	3267.387939	23.874910
613.628479	926.331970	10548.979492	3219.016846	23.825926
613.966370	934.505371	10409.587891	3190.187500	23.806465
614.304260	938.369080	10273.317383	3141.221924	23.597912
614.642151	938.517639	10169.887695	3113.803955	23.564068
614.979980	934.802490	10072.625977	3088.392578	23.567867
615.317749	927.818054	10014.891602	3072.491455	23.601366
615.655396	927.595215	9968.452148	3073.234619	23.732698
615.993164	929.081238	9942.223633	3068.330811	23.734779
616.330811	942.009949	9924.392578	3069.965576	23.690323
616.668396	943.793152	9895.414063	3045.445313	23.477894
617.005859	941.786926	9878.622070	3043.662109	23.519236
617.343445	935.099792	9845.408203	3032.888672	23.543392
617.680908	931.607483	9839.983398	3044.331055	23.716148
618.018311	929.155518	9855.958008	3049.012451	23.747103
618.355652	925.143250	9869.183594	3056.962646	23.835083
618.692993	923.211365	9864.651367	3062.164063	23.921791
619.030273	923.954407	9835.598633	3045.222656	23.803331
619.367554	928.338196	9805.209961	3040.021484	23.788597
619.704712	933.613586	9796.590820	3025.160889	23.598700
620.041870	937.403015	9760.480469	3022.783203	23.635519
620.379028	924.474426	9717.905273	3003.539063	23.643385
620.716064	923.731445	9651.032227	2994.919922	23.732292
621.053040	917.267090	9608.010742	2983.922852	23.779963
621.389954	922.393982	9576.358398	2983.328369	23.814915
621.726929	921.576660	9564.692383	2972.331787	23.727037
622.063843	929.601257	9549.831055	2973.372070	23.709005
622.400635	928.858215	9526.575195	2972.777588	23.772816
622.737427	931.458801	9503.095703	2964.158203	23.714251
623.074219	922.319641	9480.284180	2958.511475	23.792946
623.410889	928.041016	9464.382813	2955.242188	23.747890
623.747559	922.468323	9492.990234	2973.520508	23.931475
624.084167	926.406433	9530.364258	2975.526611	23.816017
624.420715	925.068909	9615.440430	2980.505127	23.651882
624.757324	926.703552	9667.600586	3003.464844	23.759130
625.093750	927.669434	9755.426758	3033.037109	23.849405
625.430176	930.938782	9840.280273	3074.423828	24.058849
625.766602	934.356750	9970.087891	3104.442139	24.016710
626.102905	933.836609	10089.714844	3139.884521	24.094334
626.439209	938.889160	10231.856445	3152.813232	23.823652
626.775452	927.000732	10297.019531	3161.655029	23.848986
627.111694	925.440369	10328.821289	3159.351563	23.756468
627.447876	914.740723	10307.125000	3158.534424	23.889500
627.783997	918.307312	10273.391602	3151.550049	23.871967
628.120056	925.440430	10237.057617	3151.252686	23.903606
628.456055	925.143250	10153.094727	3133.048584	23.926279
628.792053	925.589050	10086.668945	3097.977539	23.713234
629.128052	916.375427	9980.118164	3043.365234	23.467012
629.463928	927.446533	9867.475586	3024.343750	23.455149
629.799744	925.737549	9751.117188	3009.334717	23.609150
630.135559	932.350525	9634.090820	3006.214111	23.832745
630.471375	923.062683	9532.073242	2982.734375	23.924603
630.807068	935.545593	9434.290039	2952.344482	23.730551
631.142700	939.112122	9338.959961	2940.233154	23.823301
631.478333	936.957336	9238.057617	2906.276611	23.723593
631.813965	927.149414	9151.569336	2889.113037	23.855343
632.149475	918.010071	9058.170898	2853.595947	23.778227
632.484924	916.895508	9028.598633	2855.453857	23.898291
632.820435	917.861511	8994.343750	2853.595947	23.967543
633.155884	919.198914	9012.325195	2859.243164	23.971504
633.491150	935.025391	9006.975586	2868.828125	23.957069
633.826477	940.003723	9004.524414	2865.781982	23.879639
634.161804	948.845764	8974.506836	2856.270752	23.766579
634.497009	933.167908	8937.949219	2837.472412	23.789587
634.832153	928.783997	8871.967773	2831.602295	23.955362
635.167297	914.294983	8798.184570	2815.478516	24.114792
635.502380	906.270264	8720.539063	2787.169189	24.070057
635.837463	907.236145	8635.758789	2754.921875	23.907362
636.172424	911.991516	8553.580078	2737.089600	23.883753
636.507324	914.146301	8457.135742	2725.275146	24.010757
636.842224	914.592102	8387.291992	2715.615967	24.101383
637.177124	916.226868	8317.743164	2692.656250	24.000887
637.511963	916.672607	8239.428711	2661.374756	23.825758
637.846741	907.682068	8161.931152	2634.328369	23.801861
638.181396	908.796631	8056.123535	2605.647705	23.741058
638.516113	923.360046	7991.480469	2588.260742	23.555069
638.850769	927.966614	7919.109375	2564.261230	23.405254
639.185303	935.248352	7887.085449	2570.799805	23.526897
639.519836	926.406311	7823.853516	2573.920654	23.885857
639.854370	927.818054	7758.393066	2561.289063	23.914104
640.188843	914.072083	7684.609863	2537.289307	23.974718
640.523254	924.771667	7638.839844	2513.661133	23.665077
640.857605	928.932617	7584.152832	2517.673340	23.872099
641.191895	944.387512	7539.125488	2498.874756	23.571632
641.526184	929.972839	7474.333496	2491.741455	23.864340
641.860413	932.499207	7446.172363	2484.162842	23.821636
642.194580	920.090576	7416.674316	2483.419678	24.063864
642.528748	923.508545	7370.755859	2474.652100	24.059006
642.862793	912.957581	7324.316406	2460.237549	24.133417
643.196838	911.843018	7270.149902	2452.510010	24.230776
643.530823	916.152527	7253.951660	2456.225342	24.299803
643.864746	917.341492	7228.837402	2446.863037	24.233898
644.198669	922.096741	7232.106934	2444.782471	24.131273
644.532532	920.313477	7216.875000	2415.507080	23.746193
644.866333	927.966736	7197.036621	2410.974609	23.655947
645.200073	929.675720	7179.574707	2414.466797	23.757040
645.533813	928.115295	7159.067871	2418.999268	23.927065
645.867554	919.719055	7153.494629	2417.810547	24.031851
646.201172	918.827454	7153.048340	2417.141602	24.033705
646.534729	915.186523	7163.450684	2433.785400	24.304333
646.868225	924.177185	7154.609375	2444.782227	24.406092
647.201782	929.081116	7124.516113	2446.639893	24.494791
647.535217	939.855042	7133.804688	2439.952881	24.218761
647.868591	940.821045	7148.664551	2446.417236	24.253126
648.201965	932.796387	7152.528809	2433.191162	24.123140
648.535278	928.263855	7114.262207	2422.268799	24.151394
648.868591	925.663269	7084.986816	2403.024170	23.985764
649.201782	922.319641	7072.281738	2398.788818	24.007778
649.534912	925.811951	7093.978027	2413.129395	24.112797
649.868103	926.257751	7080.900879	2411.123291	24.125940
650.201172	925.886230	7070.126953	2408.745361	24.134130
650.534180	922.765564	7045.532715	2396.411377	24.068296
650.867188	920.462097	7056.604004	2389.724121	23.944393
651.200134	918.455872	7048.876465	2391.804443	24.033403
651.533020	912.140137	7020.715332	2385.934570	24.126648
651.865845	911.099915	6997.979004	2382.739746	24.177250
652.198608	918.678772	6986.164551	2382.739746	24.129616
652.531433	918.455872	6962.908203	2373.971924	24.080198
652.864136	917.861572	6924.047363	2367.953369	24.143307
653.196777	1519.119141	7540.760254	2977.904297	24.225708
653.529358	1553.967163	7532.216309	2996.628662	24.131840
653.861938	1552.035278	7496.401855	2990.387451	24.196896
654.194519	950.183289	6801.373535	2362.306396	24.133944
654.526978	923.731445	6757.088379	2340.758789	24.291800
654.859375	914.517883	6714.885254	2337.861084	24.538847
655.191833	909.539612	6679.442871	2324.263428	24.519022
655.524170	902.183655	6622.453125	2315.941650	24.714886
655.856445	911.842957	6604.248535	2314.083984	24.633539
656.188660	937.105957	6616.657715	2335.260010	24.617331
656.520874	940.895325	6631.814941	2332.585205	24.454571
656.853088	941.786926	6661.609863	2347.817139	24.581711
657.185181	911.991638	6682.712402	2340.906982	24.761471
657.517212	907.756348	6756.717285	2367.581787	24.958714
657.849243	907.013367	6841.571777	2381.402100	24.844116
658.181274	925.217468	6978.437500	2418.033447	24.661516
658.513123	928.412415	7097.767090	2442.256104	24.538122
658.844971	926.926331	7225.270996	2475.395264	24.585333
659.176819	921.279480	7295.115234	2502.070068	24.801243
659.508667	917.861511	7374.842285	2512.100586	24.690161
659.840393	922.171082	7411.398926	2521.908691	24.652201
660.172058	922.245422	7411.621582	2516.038818	24.560041
660.503662	931.161804	7365.033691	2503.778809	24.442776
660.835266	933.316467	7313.394043	2473.388916	24.138773
661.166931	926.852051	7214.942871	2438.392578	24.038147
661.498413	927.372253	7123.921875	2413.798340	23.987963
661.829773	925.960449	6990.325684	2389.426758	24.132225
662.161194	927.966614	6856.580566	2370.776855	24.336386
662.492615	921.502380	6697.053223	2338.752197	24.538780
662.823975	923.434265	6574.378906	2310.740234	24.549982
663.155212	925.068848	6471.841797	2274.629150	24.330549
663.486450	923.211365	6380.597656	2249.291992	24.298822
663.817627	923.359924	6272.264160	2220.091064	24.242931
664.148743	917.415710	6194.989746	2207.162354	24.438246
664.479858	919.867676	6137.181641	2195.942383	24.458462
664.810913	919.050354	6095.423340	2179.373047	24.347603
665.141907	920.907959	6059.980957	2159.831299	24.107914
665.472778	914.146423	6000.984863	2143.559326	24.168507
665.803711	921.056580	5973.195801	2151.881104	24.362442
666.134583	920.684998	5944.738281	2160.351807	24.674635
666.465454	926.926453	5934.930176	2159.831299	24.618687
666.796143	916.375488	5905.729004	2152.326904	24.771774
667.126831	923.657227	5898.967285	2143.707764	24.522100
667.457458	930.938782	5891.611328	2137.615234	24.324858
667.788147	933.539368	5883.214844	2132.265137	24.218271
668.118774	934.579651	5873.853027	2130.630615	24.215120
668.449219	931.756104	5870.583496	2135.980225	24.382795
668.779663	925.440430	5890.050781	2136.648926	24.396849
669.110107	924.623047	5878.162109	2125.726563	24.247381
669.440552	918.604492	5870.955078	2120.079346	24.260698
669.770874	923.285645	5827.339355	2116.066895	24.322353
670.101135	914.294922	5808.614746	2119.930908	24.633371
670.431396	909.390930	5775.921875	2116.141357	24.796936
670.761597	909.613953	5750.881348	2105.441895	24.700718
671.091797	918.901672	5722.201172	2102.989990	24.651564
671.421875	930.418701	5694.485840	2094.816406	24.441252
671.751892	928.709717	5683.341309	2092.958984	24.486633
672.081909	932.796326	5651.167969	2081.739258	24.350410
672.411865	925.217468	5622.486816	2077.429688	24.529402
672.741821	918.753113	5559.329590	2056.625000	24.520052
673.071716	905.973145	5541.199219	2052.241211	24.729496
673.401550	910.951355	5492.828125	2046.891235	24.792023
673.731262	915.558105	5486.290527	2048.525879	24.787445
674.060974	916.449768	5439.330566	2037.900757	24.795057
674.390625	917.638672	5413.993164	2031.882202	24.781042
674.720276	921.502380	5385.535156	2026.681030	24.757406
675.049927	923.062744	5379.517090	2016.278687	24.531071
675.379395	918.084473	5378.922363	2004.167358	24.347059
675.708923	913.774841	5338.427734	1997.034180	24.482357
676.038330	909.019531	5295.332031	1991.089966	24.669250
676.367737	911.397156	5274.230469	1993.913452	24.812231
676.697083	918.307312	5289.908203	1993.616211	24.597597
677.026428	928.338196	5289.536621	1994.953613	24.456936
677.355652	923.434143	5291.988281	1991.164429	24.441273
677.684875	922.988342	5299.641113	2004.538696	24.711813
678.013977	915.855286	5310.786621	2006.173462	24.808537
678.343079	930.864441	5347.195801	2016.873047	24.590738
678.672180	927.818054	5364.656738	2015.535522	24.515596
679.001221	926.852051	5418.749023	2028.910034	24.534355
679.330139	929.452698	5470.240723	2040.501099	24.468184
679.659058	931.681824	5526.636719	2053.949951	24.423918
679.987976	937.105896	5573.521484	2068.216309	24.396225
680.316772	922.616760	5595.068848	2078.395752	24.736027
680.645630	918.604492	5633.632813	2079.882080	24.629282
680.974304	920.610657	5653.248047	2083.076904	24.562759
681.302979	919.347595	5658.597656	2075.200684	24.388945
681.631653	924.400146	5645.520996	2075.572021	24.383444
681.960266	930.270020	5620.480469	2073.045898	24.365129
682.288757	937.700256	5588.753906	2070.816650	24.362576
682.617249	936.288574	5547.589844	2055.362061	24.268063
682.945679	931.756104	5494.834473	2030.841919	24.086500
683.274109	930.270081	5439.182129	2023.560181	24.247313
683.602478	930.195801	5357.746582	2017.764648	24.563667
683.930725	924.325867	5266.874512	1996.068359	24.680033
684.259033	921.056458	5184.546875	1970.285278	24.609621
684.587280	919.050354	5120.274902	1950.595093	24.553429
684.915344	924.846008	5069.823242	1943.610718	24.578295
685.243469	916.969910	5028.659668	1932.762329	24.704987
685.571533	923.062683	4984.895508	1923.548828	24.631397
685.899536	921.502258	4954.803223	1924.737671	24.873804
686.227539	923.136963	4925.676270	1917.827515	24.851488
686.555420	914.740784	4922.926758	1909.282593	24.812765
686.883301	916.524109	4911.483887	1902.000977	24.668005
687.211121	917.564270	4918.394531	1897.691406	24.498093
687.538940	922.616882	4915.942871	1905.567749	24.614841
687.866638	915.780945	4936.449707	1899.549194	24.467777
688.194336	918.678772	4916.313965	1902.892700	24.619904
688.521973	915.483704	4902.047363	1902.298218	24.753511
688.849609	916.078186	4871.880859	1908.242554	25.081240
689.177063	920.462097	4848.624023	1896.279663	24.841583
689.504578	917.192871	4804.785645	1880.899048	24.789278
689.832031	920.164978	4771.498047	1865.072632	24.534561
690.159485	918.753235	4707.300293	1851.178101	24.611673
690.486816	920.462158	4653.728027	1833.271118	24.450682
690.814087	929.081238	4604.093750	1832.082153	24.571371
691.141296	937.848938	4578.087891	1833.345337	24.599934
691.468506	936.139954	4547.178223	1823.462891	24.572515
691.795715	918.678894	4486.324219	1804.218628	24.821407
692.122803	915.706726	4426.510254	1782.522339	24.689949
692.449829	917.044128	4377.470703	1778.361328	24.890491
692.776855	923.879944	4341.359375	1756.962280	24.377098
693.103821	916.003906	4310.151855	1741.804321	24.330124
693.430664	915.335205	4270.400391	1717.730103	23.915926
693.757568	909.911133	4238.747070	1716.021362	24.215979
694.084351	908.425049	4202.338867	1717.581665	24.565203
694.411133	906.567444	4193.422363	1729.247192	25.029390
694.737854	908.722229	4178.859375	1724.268921	24.939219
695.064575	908.722229	4181.459473	1734.522583	25.232712
695.391174	906.938965	4170.314453	1739.129395	25.500910
695.717773	905.304382	4160.060547	1747.228516	25.867502
696.044250	903.223938	4183.392090	1744.925171	25.660307
696.370789	903.669739	4213.038574	1745.890991	25.449604
696.697205	904.709961	4268.468750	1756.590698	25.325262
697.023621	911.991638	4322.932129	1779.029907	25.419333
697.349915	928.486816	4408.454590	1807.413574	25.256750
697.676208	933.093567	4530.385254	1843.227539	25.300533
698.002380	925.588928	4641.765137	1868.861938	25.382893
698.328674	913.031738	4769.565918	1901.777954	25.638206
698.654724	910.431152	4873.440918	1919.610718	25.464977
698.980896	918.827393	4977.687988	1941.901733	25.205950
699.306946	922.765442	5044.337402	1949.703491	24.916174
699.632935	920.833679	5048.350098	1960.180176	25.180914
699.958862	921.799561	5024.796387	1946.656860	24.978260
700.284729	918.530212	4941.725098	1929.938843	25.139439
700.610596	925.291748	4872.624023	1902.075317	24.745411
700.936340	921.502258	4753.739746	1877.258423	24.939899
701.262146	919.570496	4627.647949	1839.809570	24.817148
701.587830	917.935791	4496.652344	1810.980103	24.954319
701.913513	920.239258	4389.878906	1779.847290	24.775139
702.239075	924.623047	4283.626465	1744.404907	24.405508
702.564697	925.366028	4191.564941	1708.293945	23.970613
702.890137	918.381592	4095.565674	1688.826538	24.249302
703.215698	905.304382	4014.055908	1680.653198	24.940844
703.541016	899.285828	3918.948486	1675.823608	25.716045
703.866455	900.474670	3854.379639	1645.656616	25.227011
704.191711	912.363098	3817.079346	1632.728149	24.799841
704.517029	910.208313	3786.318115	1617.941772	24.607317
704.842163	907.830627	3747.606201	1618.907715	25.039904
705.167419	907.310547	3713.650146	1614.746704	25.208502
705.492493	918.307312	3691.433594	1605.458862	24.778950
705.817566	919.496155	3656.139893	1599.886108	24.862204
706.142578	923.285645	3641.873779	1601.446655	24.945339
706.467590	922.393982	3633.254639	1593.421875	24.753317
706.792480	925.588928	3650.269531	1597.954468	24.676857
707.117371	918.158691	3635.334961	1584.654175	24.528975
707.442200	925.588928	3631.768311	1604.790039	25.098154
707.766907	927.446594	3630.802490	1600.257690	24.887995
708.091675	931.013184	3639.867188	1602.189453	24.777130
708.416321	916.598389	3629.242188	1585.619995	24.663084
708.741028	916.301208	3628.276367	1590.524048	24.860952
709.065552	918.901672	3642.319580	1602.783813	25.111172
709.390137	928.858215	3661.637939	1618.238892	25.226353
709.714600	931.681824	3679.396484	1618.387573	24.991888
710.039063	931.013123	3706.665771	1628.046875	25.112429
710.363403	931.830383	3744.782959	1627.675293	24.737171
710.687744	928.709778	3779.407959	1638.375000	24.894436
711.012085	926.554932	3798.875000	1633.471069	24.611328
711.336304	916.672668	3821.760498	1648.108521	25.177753
711.660461	922.096863	3833.425781	1652.566772	25.090601
711.984619	924.251526	3826.738525	1653.086914	25.110720
712.308716	927.075134	3808.831787	1647.142700	24.987106
712.632751	923.954346	3776.881592	1636.814575	24.986975
712.956726	923.582825	3756.671631	1636.963257	25.180305
713.280701	930.715820	3729.848389	1623.737305	24.758438
713.604553	931.458801	3715.804932	1626.932495	24.977989
713.928467	932.573425	3689.798828	1615.043945	24.752077
714.252258	917.861511	3661.415283	1612.443359	25.316868
714.575989	916.003906	3636.226563	1600.926392	25.178913
714.899719	913.626160	3617.799805	1592.753296	25.114037
715.223267	915.558105	3616.610596	1584.431274	24.763428
715.546936	912.883301	3605.019531	1585.025513	24.966871
715.870422	910.802734	3589.564453	1579.824585	24.975042
716.193970	917.044189	3569.799805	1578.635742	24.939785
716.517395	917.267090	3564.747070	1579.081421	24.997898
716.840820	919.050476	3547.063232	1579.304321	25.123693
717.164124	920.536438	3507.385742	1575.217651	25.308054
717.487488	920.462158	3452.475830	1557.607910	25.163599
717.810730	924.028625	3419.262451	1548.617310	25.031267
718.133972	920.016296	3389.095703	1535.763062	24.938314
718.457092	922.096680	3349.492188	1530.041504	25.045149
718.780212	920.610657	3287.375732	1516.890015	25.193853
719.103210	921.576660	3236.032227	1504.258667	25.175770
719.426208	918.976074	3183.128662	1495.862305	25.479124
719.749207	916.152527	3162.100830	1492.370117	25.655870
720.072083	915.186584	3120.268311	1475.577759	25.413624
720.394958	921.725281	3101.246826	1455.813354	24.504831
720.717773	919.793274	3066.547607	1439.912476	24.228165
721.040527	919.496094	3043.662354	1437.386108	24.380861
721.363281	918.084290	3024.938232	1438.129028	24.683474
721.685913	922.988342	3008.517334	1431.813477	24.397892
722.008545	928.041016	2993.582275	1432.928101	24.443331
722.331055	923.062683	2968.319336	1425.274780	24.554968
722.653503	922.393982	2944.170898	1421.485352	24.685780
722.976013	923.359924	2938.226563	1413.163452	24.309475
723.298401	921.650879	2947.885986	1413.683594	24.283100
723.620789	921.576660	2935.700439	1412.494751	24.373779
723.943115	917.935730	2918.908203	1418.587524	25.020424
724.265381	918.381653	2900.852539	1418.735962	25.238922
724.587585	915.929688	2910.214844	1428.321167	25.692989
724.909790	910.431335	2928.567383	1425.051880	25.499796
725.231873	912.065918	2927.229736	1425.200562	25.463669
725.553894	918.010071	2924.480713	1424.754761	25.255524
725.875916	1054.875732	3048.492188	1573.062988	25.992325
726.197937	1064.609375	3052.207031	1583.168091	26.089724
726.519775	1051.234863	3057.928467	1579.230103	26.311703
726.841675	916.226868	2936.072266	1435.900024	25.728363
727.163513	905.230042	2946.474609	1423.417114	25.385839
727.485291	914.220703	2962.449463	1428.841309	25.125153
727.806946	917.489990	2972.182861	1440.506836	25.454746
728.128662	918.827454	2994.325195	1459.454102	26.048048
728.450256	919.496094	3014.907227	1466.067017	26.084185
728.771790	918.158691	3019.142578	1461.831665	25.877066
729.093323	923.731384	3013.941406	1460.568726	25.683416
729.414795	928.561035	3007.774170	1455.144531	25.326096
729.736145	929.527039	3000.121094	1454.252808	25.341799
730.057495	921.353699	2995.440186	1454.029907	25.682449
730.378845	917.192688	2991.130127	1459.677124	26.157223
730.700134	920.387756	3003.539063	1462.128906	26.005846
731.021301	924.845947	3030.213623	1457.150757	25.283224
731.342468	917.192810	3042.324951	1456.110352	25.359249
731.663574	911.694336	3042.399414	1451.354980	25.327797
731.984680	910.208313	3039.278564	1454.029907	25.542679
732.305664	910.579895	3042.399170	1445.336548	25.084520
732.626648	915.409607	3049.829834	1455.590332	25.308079
732.947571	908.796570	3051.241211	1455.293091	25.508081
733.268433	920.313477	3048.269287	1451.355103	24.955482
733.589233	921.576660	3030.956299	1444.593384	24.794813
733.909973	930.864563	3002.944580	1439.020874	24.523972
734.230713	920.313477	2982.585938	1446.822632	25.530533
734.551331	915.186707	2952.047607	1436.345825	25.586388
734.871948	911.620056	2913.484375	1415.912598	25.191145
735.192505	912.065857	2868.010986	1404.024048	25.151943
735.513062	916.003906	2847.652100	1394.364868	24.764393
735.833435	915.186584	2815.998779	1391.392700	25.052769
736.153931	919.793274	2783.082764	1381.287598	24.767719
736.474304	919.644775	2765.472900	1380.692993	24.977852
736.794617	925.811829	2745.262695	1384.779785	25.225630
737.114807	924.771667	2746.154297	1388.494995	25.459963
737.434998	916.003906	2726.315430	1384.111206	25.857832
737.755188	914.443604	2736.791992	1379.801392	25.536160
738.075256	918.976074	2734.563232	1375.640625	25.152445
738.395325	920.759277	2744.148193	1372.742798	24.788103
738.715271	919.347473	2752.766846	1380.544556	25.155024
739.035278	915.632385	2756.927979	1389.015015	25.709213
739.355164	917.489929	2757.002686	1389.237915	25.645269
739.675049	912.585938	2759.380127	1387.306030	25.705090
739.994873	919.050293	2761.534912	1380.321655	25.035290
740.314636	920.387695	2753.361572	1373.931641	24.743612
740.634277	927.966614	2734.562744	1361.894409	24.019081
740.953979	913.923401	2711.380615	1353.646973	24.463646
741.273499	913.700500	2698.897705	1354.612915	24.698246
741.593140	911.397217	2673.411865	1357.584961	25.322590
741.912598	914.740723	2643.096436	1356.990601	25.587896
742.232117	907.384766	2601.189697	1352.532471	26.280931
742.551453	910.579834	2572.583008	1338.637817	25.755545
742.870850	914.666504	2567.678955	1337.969116	25.607950
743.190063	928.263916	2559.802979	1323.108521	24.200745
743.509338	922.393982	2538.478271	1320.953735	24.662066
743.828552	922.914063	2507.345459	1310.551270	24.465384
744.147705	919.347473	2480.819336	1311.665894	25.124910
744.466797	918.084473	2473.314697	1311.814575	25.316515
744.785828	916.895569	2454.590332	1306.762085	25.353958
745.104858	916.152527	2443.816406	1315.381104	26.133274
745.423706	919.941956	2432.076416	1321.325317	26.544157
745.742615	928.561035	2423.531494	1321.473999	26.282324
746.061401	933.613586	2410.974365	1317.461548	25.982004
746.380249	929.378418	2401.760986	1304.161499	25.454191
746.698975	921.799561	2400.572266	1300.817749	25.630590
747.017639	919.347473	2398.120361	1286.625977	24.836706
747.336304	926.406311	2386.529053	1279.195679	24.161623
747.654907	929.081238	2384.894531	1276.817993	23.886084
747.973389	931.607605	2398.937744	1282.984985	23.946716
748.291931	931.830383	2401.612549	1284.916870	24.023048
748.610352	928.338196	2398.417725	1278.898315	23.846336
748.928711	929.452820	2392.844971	1280.830200	24.011158
749.247070	925.291809	2385.117432	1286.774536	24.762047
749.565308	930.716003	2385.340088	1294.873535	25.034477
749.883545	927.669495	2373.303223	1296.136719	25.488283
750.201782	928.561096	2369.736572	1301.635132	25.886787
750.519836	927.075012	2355.024658	1299.257324	26.064106
750.837952	927.520813	2333.848389	1288.186157	25.645897
751.155884	929.675598	2336.448975	1283.356567	25.141289
751.473877	925.068909	2325.080811	1278.304077	25.230867
751.791809	917.638672	2335.111572	1273.102905	25.077322
752.109619	915.038025	2324.931885	1260.099854	24.474314
752.427490	914.443604	2329.241455	1257.499146	24.247671
752.745300	917.192810	2324.263428	1266.787231	24.845551
753.062988	917.935791	2323.594727	1262.849121	24.537483
753.380615	920.982178	2316.535889	1264.037842	24.582047
753.698303	923.582764	2323.222900	1266.564087	24.504965
754.015808	920.536377	2309.997070	1273.994385	25.438503
754.333374	916.078186	2306.430664	1277.858154	26.020737
754.650757	915.409485	2297.291260	1266.787109	25.427473
754.968262	920.387756	2308.808350	1262.328979	24.628071
755.285583	926.777832	2314.455322	1258.390991	23.896990
755.602905	927.520935	2307.545166	1255.864502	23.792595
755.920105	919.644775	2308.213867	1252.149292	23.945839
756.237305	915.558105	2292.313232	1257.796509	24.858335
756.554443	914.740784	2290.158447	1269.239136	25.773869
756.871582	918.753113	2278.121338	1282.687988	26.772356
757.188599	910.134033	2279.756104	1281.573364	27.119841
757.505615	907.607727	2294.022217	1274.886108	26.491238
757.822510	901.886414	2311.854980	1274.440308	26.422852
758.139465	911.397217	2333.477051	1271.691040	25.335695
758.456238	912.808899	2340.907227	1278.526978	25.608746
758.773010	913.849182	2349.080811	1282.687866	25.698895
759.089783	912.437317	2371.594482	1288.854980	25.796923
759.406433	920.313477	2377.018311	1289.375122	25.335377
759.723145	924.251465	2382.442627	1281.944824	24.529936
760.039673	923.285583	2370.553955	1285.362793	25.017975
760.356201	912.140137	2376.349609	1287.963257	25.667305
760.672668	909.762512	2369.662354	1290.118164	26.053543
760.989136	916.449768	2372.411377	1281.647583	25.082928
761.305481	917.489990	2373.749023	1279.121460	24.832909
761.621826	922.468262	2380.213135	1284.842651	24.858561
761.938049	923.805664	2395.965576	1299.480347	25.518606
762.254333	922.245300	2403.247070	1305.127319	25.852909
762.570496	917.861511	2446.342773	1321.102417	26.381804
762.886597	909.019470	2505.339111	1328.086914	26.252102
763.202637	908.722351	2618.873779	1361.523071	26.477230
763.518677	910.802734	2760.420654	1397.262695	26.300566
763.834656	912.660339	2906.053711	1437.683228	26.338148
764.150574	917.489990	3009.928955	1460.419922	25.947229
764.466370	915.186584	3036.603516	1461.831665	25.767921
764.782288	916.449707	3015.650146	1452.543945	25.538021
765.097961	921.502258	2965.570313	1433.671021	25.056345
765.413696	919.273254	2897.063232	1411.306030	24.877907
765.729309	924.177246	2803.739014	1394.141968	25.003952
766.044861	922.988342	2700.904053	1374.080200	25.371948
766.360474	922.839783	2607.654297	1354.835815	25.640570
766.675903	910.654114	2524.212158	1328.235474	25.879536
766.991394	908.647949	2457.710938	1311.665894	26.016886
767.306763	918.307373	2405.922119	1303.121094	25.867834
767.622131	921.576660	2364.609619	1291.455566	25.632048
767.937378	920.536377	2315.198486	1275.406128	25.444855
768.252625	923.879944	2276.635498	1261.362915	24.947815
768.567810	924.474426	2248.474854	1258.985352	25.265167
768.882996	920.610657	2224.252197	1255.790283	25.711025
769.197998	906.716125	2200.029297	1246.502441	26.272547
769.513062	908.053528	2167.856201	1242.638672	26.558535
769.828064	908.499329	2156.488037	1237.437500	26.357462
770.142944	917.118469	2126.692383	1231.567505	25.996677
770.457825	923.582764	2111.163086	1222.428345	25.164242
770.772705	923.657043	2081.144775	1219.976440	25.600218
771.087402	922.839661	2075.646484	1226.217773	26.316473
771.402100	915.409485	2056.922119	1219.456177	26.635420
771.716736	914.517822	2045.851196	1226.366455	27.564699
772.031372	913.254700	2023.708984	1219.381958	27.567749
772.345947	914.369324	2022.668579	1223.691528	27.909626
772.660461	916.301208	2005.356079	1213.066162	27.249769
772.974854	916.672668	1998.445923	1213.957886	27.481289
773.289246	916.672668	1982.842407	1209.202515	27.437456
773.603638	920.462097	1984.700073	1200.880493	26.349218
773.917908	922.691162	1977.715454	1190.329468	25.367975
774.232178	924.771667	1970.433960	1178.515503	24.266327
774.546265	921.576660	1956.836426	1174.057251	24.388140
774.860474	925.143250	1942.495972	1170.787964	24.145481
775.174561	934.951172	1929.195801	1175.320435	24.176069
775.488586	946.765198	1927.115234	1181.933350	23.988182
775.802551	943.273010	1928.006958	1185.722778	24.620840
776.116516	935.842773	1914.706909	1187.208862	25.679365
776.430359	929.081238	1899.623413	1178.366821	25.685188
776.744202	924.623047	1892.118652	1168.856079	25.243839
777.057922	928.041016	1890.038452	1161.797363	24.299061
777.371704	928.189636	1887.289063	1153.252563	23.466068
777.685303	925.217468	1879.190063	1150.949219	23.662289
777.998962	916.598389	1871.834106	1152.509399	24.696629
778.312500	913.254822	1864.106812	1162.317505	26.193634
778.626038	924.845886	1858.905640	1155.778809	24.723570
778.939453	928.338074	1858.608398	1152.286621	24.073492
779.252869	931.384583	1864.552612	1155.481567	24.014645
779.566223	923.211243	1858.608398	1165.289551	25.879736
779.879578	923.137024	1861.060425	1166.924194	25.992226
780.192749	920.164856	1855.116089	1164.769531	26.162292
780.505920	921.205261	1857.196411	1165.884155	26.141155
780.819031	913.700623	1851.177856	1167.592896	27.082500
781.132141	923.954407	1867.524414	1181.264771	27.269875
781.445190	923.805725	1861.654663	1177.326782	27.032185
781.758118	930.047180	1854.744507	1177.326660	26.741667
782.071045	917.192688	1821.977051	1161.054321	26.952459
782.383911	923.062683	1816.775879	1155.110107	25.964417
782.696838	923.359863	1808.156738	1146.268066	25.193150
783.009583	929.378418	1806.893555	1144.559082	24.521589
783.322266	919.050354	1791.364380	1152.286499	26.737635
783.634888	914.815125	1775.612183	1144.782104	26.715586
783.947510	906.641846	1764.541016	1138.317627	27.005013
784.260132	909.316711	1762.386230	1129.847168	25.851404
784.572571	908.202209	1759.934204	1139.655273	27.174400
784.885010	911.397156	1758.522461	1132.447754	26.094204
785.197449	914.889343	1758.076660	1131.110229	25.643280
785.509766	927.520813	1752.726929	1124.423096	23.860983
785.822083	929.824219	1734.968384	1128.212524	24.640097
786.134277	925.886230	1724.268921	1125.834839	25.044207
786.446533	920.239258	1729.321411	1125.166138	25.328316
786.758606	919.421875	1741.061157	1126.652222	25.221573
787.070740	922.914063	1737.940552	1128.658325	25.243874
787.382690	924.623047	1744.999390	1134.899780	25.631741
787.694641	921.428040	1752.949707	1139.729370	26.253235
788.006653	920.016296	1780.070313	1144.930664	26.151192
788.318481	918.455994	1800.131958	1143.073120	25.476154
788.630310	922.096863	1821.679688	1147.159668	25.018576
788.942017	922.245422	1837.877808	1151.543579	25.042601
789.253784	926.703430	1849.692017	1160.385498	25.317980
789.565430	928.338135	1847.239868	1163.952026	25.640816
789.877014	926.257629	1832.527954	1165.512451	26.399940
790.188538	922.468262	1825.840820	1158.750854	26.155609
790.500061	910.877014	1811.277344	1143.593140	25.845850
790.811462	914.220703	1793.370483	1138.763550	25.540909
791.122925	909.613953	1761.197388	1136.088501	26.594522
791.434204	911.917297	1735.637207	1135.419922	27.133327
791.745483	910.728455	1722.782837	1133.636597	27.449903
792.056702	910.951355	1709.482788	1134.676758	28.017107
792.367920	916.449707	1709.705688	1129.847290	26.901478
792.678955	905.898743	1698.040039	1121.896851	27.267624
792.990112	903.223877	1693.507690	1107.333496	25.827381
793.301086	903.075256	1680.578979	1104.509888	25.907867
793.612122	911.545715	1671.736938	1101.983643	25.051319
793.922974	914.072021	1663.192017	1105.029907	25.490961
794.233826	909.911072	1665.867188	1106.367554	25.987816
794.544556	908.202087	1666.089966	1102.280884	25.607851
794.855286	902.109192	1654.275879	1094.776367	25.614958
795.166016	912.883118	1644.022095	1101.389282	25.782536
795.476624	915.335144	1645.879517	1102.355103	25.600082
795.787292	917.267090	1668.467651	1114.317871	26.231447
796.097778	909.242371	1688.083618	1110.825684	25.882465
796.408264	906.493164	1710.448608	1120.633667	26.635866
796.718689	909.316711	1723.674438	1124.125854	26.377737
797.029053	909.391052	1729.321411	1128.955566	26.778435
797.339355	912.660339	1719.662109	1118.033081	25.448858
797.649658	919.347595	1710.894409	1116.472656	24.903778
797.959839	921.205078	1702.498169	1115.358032	24.850208
798.270020	925.291809	1693.953491	1121.748169	25.558235
798.580078	929.378418	1688.380859	1125.314697	25.814974
798.890137	937.477478	1668.021851	1120.856567	25.101704
799.200195	933.539368	1660.666016	1114.838013	24.933573
799.510071	923.434143	1642.907593	1102.800903	24.930283
799.820007	908.573730	1642.833130	1101.017700	26.209263
800.129883	911.248596	1629.310059	1096.559570	25.807119
800.439575	908.053528	1616.232788	1095.147827	26.419060
800.749329	917.787292	1606.424805	1091.506958	25.226576
801.058960	921.651062	1610.065552	1089.352173	24.360485
801.368591	925.143127	1609.768433	1092.621460	24.462772
801.678162	916.969788	1607.019165	1093.141602	25.530319
801.987671	907.161865	1599.068848	1100.869019	27.996126
802.297119	906.938965	1593.347656	1096.039429	27.549253
802.606506	901.812073	1583.836914	1096.336670	28.521629
802.915894	905.824524	1588.443726	1090.986938	27.125286
803.225159	906.493164	1587.477539	1086.008545	26.361160
803.534424	911.471497	1586.585938	1083.036499	25.412729
803.843628	913.403320	1566.004272	1088.311890	26.801764
804.152771	923.062683	1567.713257	1092.101440	26.221766
804.461792	931.756104	1570.090820	1102.652466	26.772219
804.770874	933.465088	1566.747192	1094.033325	25.354931
805.079773	924.623047	1563.998047	1097.822754	27.088909
805.388733	918.084473	1567.564453	1084.151001	25.569153
805.697571	913.329102	1583.911133	1087.643311	25.994465
806.006470	913.477600	1597.434204	1085.562866	25.160261
806.315125	918.158691	1600.703491	1091.209595	25.353779
806.623901	917.489990	1601.297852	1094.033203	25.817663
806.932495	911.843018	1596.616821	1091.284058	26.204426
807.241150	910.877136	1595.130859	1091.952759	26.463228
807.549622	918.678894	1582.127930	1093.290283	26.318735
807.858154	926.257629	1577.521118	1088.980835	24.985771
808.166565	926.257629	1569.496460	1083.630859	24.465754
808.474915	918.604492	1567.118774	1079.024170	24.736490
808.783264	920.536438	1552.778320	1081.327515	25.431892
809.091492	922.171082	1538.883667	1079.618530	25.530117
809.399719	923.880066	1536.654663	1080.956055	25.633568
809.707825	923.211243	1537.917603	1081.327515	25.722244
810.015930	916.301208	1540.592651	1080.064331	26.231838
810.323975	920.164978	1534.276855	1070.850952	24.537218
810.632080	920.387878	1519.119141	1066.764160	24.447742
810.939880	929.972839	1508.122437	1061.934448	22.824821
811.247864	925.514648	1500.394897	1064.832397	24.234221
811.555664	908.276428	1494.376343	1064.386353	26.635378
811.863464	894.233215	1495.342285	1066.021118	28.578491
812.171143	894.753357	1474.834595	1054.950073	27.616255
812.478882	912.065918	1470.896606	1057.401978	26.007172
812.786438	922.616882	1462.203247	1059.036743	25.282303
813.094055	923.731384	1475.429199	1068.993286	26.329975
813.401489	919.347473	1472.011230	1061.042969	25.638645
813.708984	916.301208	1464.952515	1056.584717	25.568792
814.016357	917.044189	1462.277710	1055.618774	25.415640
814.323730	928.338196	1473.720215	1062.974731	24.686647
814.630981	925.514648	1475.503418	1062.454590	24.898680
814.938232	926.257751	1476.543579	1063.197754	24.885250
815.245361	917.341370	1464.580933	1066.615601	27.277676
815.552490	914.294983	1461.014282	1069.959106	28.472403
815.859619	909.613831	1459.974121	1075.308960	30.106665
816.166565	906.121643	1458.636719	1072.931274	30.190964
816.473572	910.654114	1468.518921	1070.999390	28.742676
816.780457	910.431213	1477.880981	1058.293579	26.057348
817.087341	915.038025	1489.620728	1058.219360	24.919186
817.394043	920.090637	1487.763306	1066.244019	25.746067
817.700806	925.960449	1488.803589	1064.089233	24.541258
818.007507	925.291809	1490.586914	1062.528931	24.277077
818.314209	921.502258	1507.082153	1059.036621	23.486866
818.620667	921.650879	1513.323608	1067.432983	24.638977
818.927246	922.765442	1511.391602	1069.067505	24.854836
819.233704	917.044250	1516.667358	1072.411133	25.910757
819.540161	916.004089	1537.620483	1078.429688	26.129555
819.846497	919.421875	1591.490112	1096.856812	26.401327
820.152832	920.833557	1639.266602	1110.676880	26.424637
820.458984	917.489929	1700.417847	1126.577759	26.705885
820.765259	906.121582	1753.172729	1138.243286	27.403505
821.071350	910.208313	1825.097778	1157.562134	27.036470
821.377502	903.595398	1920.576782	1179.109863	27.091396
821.683472	909.390930	2124.166260	1232.459229	26.594900
821.989441	907.756348	2512.769531	1328.532593	26.216373
822.295349	909.168152	3130.522217	1505.893188	26.863123
822.601196	900.994812	3886.923828	1711.860352	27.156223
822.907043	901.143372	4601.418457	1909.654297	27.255026
823.212769	901.440613	5040.398926	2033.145142	27.342739
823.518494	908.424988	5130.379883	2047.708618	26.984741
823.824097	902.109314	4864.599121	1965.975708	26.848434
824.129700	911.545715	4431.562500	1827.475586	26.020611
824.435242	907.310486	3934.254883	1692.467407	25.938929
824.740723	916.226746	3499.881104	1581.087524	25.733349
825.046082	912.140137	3149.692383	1492.815918	25.951384
825.351501	910.802673	2850.624023	1408.482422	25.655958
825.656799	901.589172	2608.471436	1339.306519	25.644260
825.962036	898.765625	2408.151123	1292.941528	26.114992
826.267212	913.329041	2297.737061	1279.864380	26.475964
826.572449	926.554932	2255.979248	1273.771606	26.117823
826.877502	928.932617	2290.307129	1285.734253	26.208925
827.182495	929.304138	2415.209961	1310.774414	25.672575
827.487488	933.316406	2586.403564	1354.835815	25.498922
827.792419	927.669434	2742.290283	1399.045898	25.976582
828.097290	915.632507	2799.206299	1406.773438	26.074951
828.402100	910.951355	2745.411377	1396.371094	26.461180
828.706848	914.443604	2603.790283	1348.520142	25.694935
829.011597	909.911133	2413.798096	1302.452515	26.101788
829.316223	900.177429	2225.515137	1248.359985	26.271235
829.620789	896.165100	2061.751953	1209.722656	26.901258
829.925354	907.904846	1930.607544	1185.425659	27.136021
830.229797	917.712891	1822.571411	1162.763306	27.081627
830.534302	928.412415	1737.940796	1140.249634	26.167980
830.838562	924.771667	1661.706055	1114.912476	25.801592
831.142944	917.564270	1599.217407	1095.370728	26.084595
831.447144	913.700500	1542.747437	1076.274902	25.844559
831.751404	915.558105	1516.666992	1068.621704	25.463539
832.055542	917.341492	1509.236816	1068.398804	25.520950
832.359619	911.248596	1508.865356	1066.466919	25.972887
832.663635	901.069153	1516.072632	1072.634033	27.896570
832.967651	900.400391	1542.450073	1073.822876	27.010757
833.271545	903.446777	1602.709595	1096.039429	27.542242
833.575439	909.168152	1688.380859	1119.593506	27.004868
833.879211	910.431335	1818.261841	1156.967651	27.156647
834.183044	909.688293	1944.873657	1190.924072	27.167675
834.486694	909.762512	2050.086182	1211.505859	26.461201
834.790344	921.279480	2089.541016	1232.756470	26.661581
835.093933	923.880066	2068.736572	1231.864746	26.901598
835.397522	925.068848	2003.201172	1214.032227	26.802217
835.700928	913.031799	1908.688110	1173.388672	26.149271
836.004395	916.375488	1826.509399	1145.599487	25.185743
836.307739	921.353699	1738.758179	1123.308594	24.706850
836.611023	927.595154	1673.817383	1110.379883	24.494678
836.914307	923.137024	1608.653931	1088.609131	24.138296
837.217529	923.062744	1558.499512	1076.349121	24.122995
837.520691	914.146423	1497.051147	1061.562988	25.289993
837.823730	911.025635	1447.714233	1053.984131	26.637140
838.126831	914.369324	1407.739380	1036.300049	24.713848
838.429749	917.638672	1384.705444	1033.922363	24.896587
838.732727	922.022461	1364.569458	1024.560181	23.169905
839.035522	912.363098	1349.634644	1031.619019	27.272738
839.338379	908.945129	1336.483032	1026.046265	27.389650
839.641113	906.195984	1337.969116	1026.789429	27.929817
839.943848	905.155762	1352.532349	1024.931763	26.772970
840.246460	907.310547	1380.990234	1030.801636	26.070589
840.549072	907.830750	1416.358398	1045.067749	26.987127
840.851563	906.716125	1436.420288	1054.727173	27.942209
841.154053	911.545715	1439.615234	1063.123413	28.704119
841.456482	914.294922	1419.553345	1058.888062	28.617661
841.758850	917.118469	1394.587769	1052.572388	28.369137
842.061157	911.991516	1367.392944	1042.541504	28.667013
842.363403	910.356934	1338.489136	1027.012207	27.247488
842.665588	914.443542	1309.511230	1009.402405	24.036098
842.967712	914.294983	1289.672241	1003.681152	23.812357
843.269775	913.180481	1275.034668	1003.309570	24.907572
843.571777	910.877136	1274.886108	1004.572754	25.739920
843.873840	921.428040	1259.059570	1001.674988	23.767611
844.175659	924.920349	1243.455933	994.764832	21.926744
844.477600	932.127686	1225.623413	1002.938171	24.126581
844.779297	923.731445	1216.038208	993.278809	23.792595
845.081116	921.576599	1213.140503	994.170410	24.898079
845.382751	911.620056	1209.573853	987.854675	25.586054
845.684387	902.703796	1206.453247	990.009521	28.742678
845.985962	902.555176	1191.369751	990.901123	30.589159
846.287537	904.932861	1179.481323	985.848572	29.472286
846.588989	919.050354	1174.503052	984.213867	25.509033
846.890381	920.313538	1169.673462	975.594727	22.169235
847.191711	921.725281	1165.438110	974.257324	21.554895
847.493042	915.409485	1163.877808	975.966309	24.372049
847.794250	919.273254	1173.611450	978.492493	23.283659
848.095459	914.592224	1166.626831	979.384094	25.707529
848.396606	914.295105	1167.964355	968.907471	21.528965
848.697693	913.106140	1156.001831	972.548340	24.472315
848.998657	915.483887	1169.376343	971.953918	22.241713
849.299622	919.719055	1160.608521	983.916687	26.650244
849.600464	913.477600	1160.831421	982.430481	27.876215
849.901367	908.573730	1145.450806	983.619446	31.681292
850.202087	903.892639	1136.608643	978.715393	32.151958
850.502808	908.945251	1136.757202	975.223328	29.093327
850.803467	917.489990	1140.398071	976.337830	26.400047
851.104065	920.387756	1146.936890	981.093079	26.795654
851.404663	916.152527	1140.918335	979.829895	28.330540
851.705139	916.003906	1135.865723	970.913574	24.974627
852.005615	918.158691	1137.277466	954.864258	16.751448
852.306030	916.449768	1149.017212	950.108887	14.472842
852.606384	913.923523	1142.924438	954.046936	17.521070
852.906616	907.236267	1138.466309	960.882751	23.200481
853.206909	911.991699	1130.218628	963.483398	23.595484
853.506958	910.282715	1135.568481	962.517395	23.185965
853.807129	907.979309	1131.184692	961.328613	23.901442
854.107178	908.796631	1129.847168	964.003479	24.974764
854.407166	914.815186	1125.091797	966.752747	24.699638
854.707092	920.313477	1118.255859	971.731018	25.976015
855.007019	918.010071	1114.169312	969.576233	26.287909
855.306763	917.787170	1109.933960	970.393555	27.378227
855.606567	913.403320	1113.054810	968.387390	27.540026
855.906250	915.335205	1107.927856	975.297546	31.134283
856.205933	911.322815	1111.494507	973.662903	31.143309
856.505493	905.230164	1111.345825	976.263428	34.462818
856.805054	903.000977	1110.379883	977.006531	35.686153
857.104492	895.124939	1113.277710	974.554443	36.410038
857.403931	905.973145	1114.763672	977.972412	34.483971
857.703308	903.521057	1119.296265	970.170654	30.888441
858.002563	913.626221	1116.621216	967.198547	26.390959
858.301819	912.883301	1117.438599	966.529785	26.225908
858.601013	911.025696	1118.701660	972.473938	29.588518
858.900208	901.217773	1123.457153	975.520447	33.433620
859.199219	901.589172	1123.159790	967.792969	29.879322
859.498291	908.945129	1119.741943	967.792969	27.916855
859.797302	913.254822	1118.627441	969.724792	27.496347
860.096191	922.394043	1119.444824	978.492493	28.469032
860.395020	913.180481	1124.125854	969.799133	26.840433
860.693787	912.734680	1111.642944	963.557678	25.550974
860.992554	902.480896	1098.862915	948.771423	23.571672
861.291260	906.939026	1098.268555	955.755859	25.514532
861.589844	912.437439	1104.064087	959.768250	24.699493
861.888428	913.849121	1113.649292	972.399658	29.304548
862.186890	924.548767	1105.327271	970.096252	25.195189
862.485413	922.022461	1104.286987	970.987976	26.865082
862.783813	917.861511	1100.423340	961.997314	24.175812
863.082153	913.106140	1106.441895	954.418457	21.368172
863.380371	912.288757	1112.088745	945.576416	16.660490
863.678589	920.685059	1112.311646	945.353516	12.873191
863.976746	922.542664	1112.014526	950.183167	14.588183
864.274902	923.731445	1104.881470	956.127441	17.883518
864.572937	925.514648	1111.865967	949.588867	12.918727
864.870911	924.474426	1113.054810	952.635254	14.933064
865.168884	923.137024	1108.522339	946.616699	12.665338
865.466736	916.969910	1104.584351	949.514465	17.346508
865.764587	911.025696	1099.903198	944.759094	17.859934
866.062317	917.118469	1100.794800	950.851868	18.365675
866.360107	919.867676	1104.435669	954.344177	18.679567
866.657715	920.164856	1104.658569	962.888977	23.157494
866.955322	919.941895	1111.717285	968.164490	25.145351
867.252808	918.976074	1104.435669	968.238770	26.562494
867.550293	920.685059	1103.915649	962.443176	22.789927
867.847717	909.019531	1087.717529	954.195557	25.280655
868.145081	907.161926	1088.906372	959.099548	28.577282
868.442383	902.629395	1082.367798	961.031433	32.492798
868.739624	899.062988	1092.621460	967.049988	35.124786
869.036804	900.400391	1090.020874	965.786804	34.482780
869.333984	903.372498	1088.386108	963.334717	32.409626
869.631042	912.957520	1089.500610	958.430725	25.757566
869.928101	906.121765	1096.411011	958.653625	27.606321
870.224976	904.561340	1102.726685	955.384460	25.646826
870.521851	918.604553	1115.506836	971.953918	27.094336
870.818726	925.811951	1115.358276	970.913757	23.794609
871.115479	934.951172	1118.701782	976.486389	22.604124
871.412231	921.799622	1104.064087	961.031433	21.524662
871.708862	921.428040	1087.494629	955.533020	20.536930
872.005493	918.232910	1088.312012	957.242004	22.935854
872.302063	919.050293	1091.061157	956.424561	21.727854
872.598572	917.415710	1103.989868	961.923035	23.855032
872.895020	918.827454	1099.085815	955.161438	20.156614
873.191406	920.833679	1106.887573	958.505127	20.247601
873.487671	923.137024	1112.237427	959.099609	19.017719
873.783997	919.793274	1116.769897	963.112000	21.991810
874.080200	918.158691	1116.621216	957.539246	19.842815
874.376343	910.431213	1115.952515	951.297791	19.884352
874.672424	914.295105	1117.141479	959.173828	22.124489
874.968445	911.545837	1111.122925	970.393494	29.486179
875.264465	916.226868	1111.345825	981.687500	33.549088
875.560364	906.790344	1105.252930	972.845459	33.283409
875.856201	905.452942	1096.336548	962.517395	29.894896
876.152039	908.350769	1090.318237	953.526855	24.826464
876.447754	909.539551	1097.674072	957.910645	25.710909
876.743469	919.124695	1106.367310	965.192322	24.603174
877.039063	919.124695	1111.345825	965.786682	24.275160
877.334595	923.137024	1098.937256	963.929199	23.203709
877.630127	910.208313	1102.057983	964.672180	28.388824
877.925537	909.019470	1095.073364	975.446106	35.702900
878.221008	905.601501	1099.308716	965.489563	30.916794
878.516296	907.384766	1101.017700	960.511292	27.436720
878.811646	908.945129	1111.642944	955.012878	22.727304
879.106812	909.688171	1123.382690	964.820801	25.799740
879.401978	905.007141	1134.379517	971.433777	28.960173
879.697083	898.988586	1149.611694	976.560608	30.951664
879.992126	896.759583	1173.091431	987.037292	32.670036
880.287109	902.629578	1197.462646	996.622375	31.880005
880.582031	900.474670	1248.508667	1007.619141	30.785633
880.876892	907.087646	1321.102295	1025.972046	28.715023
881.171753	907.830627	1476.023438	1070.628052	28.651793
881.466492	916.375488	1721.891113	1134.825562	27.119284
881.761230	917.638672	2039.906738	1215.815308	26.569109
882.055786	919.198975	2360.225830	1291.827026	25.858509
882.350403	919.124695	2566.638916	1342.352905	25.688896
882.644958	915.632385	2625.486572	1365.238159	26.294977
882.939453	912.214539	2555.642090	1347.331177	26.476170
883.233826	903.818298	2413.872559	1312.185913	27.043242
883.528137	898.468506	2246.691162	1258.539551	26.707090
883.822449	902.778076	2075.794922	1212.249023	26.382481
884.116577	907.310547	1916.712891	1169.450562	25.969824
884.410828	913.254700	1799.463257	1133.042114	24.800867
884.704956	909.985413	1680.281738	1101.017700	24.799845
884.999023	908.870911	1577.744019	1073.971558	24.683403
885.292969	910.728516	1468.816284	1050.789063	25.096508
885.586914	912.660339	1393.027344	1030.653076	24.563040
885.880798	910.505554	1334.105347	1021.736755	26.258558
886.174622	906.493164	1303.343994	1015.495300	27.466778
886.468384	908.796570	1270.502319	1000.486145	25.349216
886.762085	908.053528	1239.592163	990.381042	24.831951
887.055664	907.161926	1220.347778	982.356262	24.009493
887.349304	904.784241	1199.097168	982.579163	26.432724
887.642822	902.555176	1185.574219	978.938293	26.988686
887.936340	907.384827	1170.044922	978.864075	27.213593
888.229736	909.168152	1161.425903	974.480225	25.891006
888.523071	914.295105	1153.401245	969.056091	22.902376
888.816284	914.369324	1144.261841	970.319275	24.337439
889.109619	921.873840	1133.413696	970.467834	22.971556
889.402710	929.527039	1133.710938	972.994141	21.288212
889.695862	928.263855	1120.782227	964.375000	18.757246
889.988892	917.267029	1116.918457	961.923035	22.366985
890.281921	905.007141	1110.082520	958.059387	25.869633
>>>>>End Processed Spectral Data<<<<<
