Jaz Data File
++++++++++++++++++++++++++++++++++++
Date: Fri Jun 04 16:47:17 2021
User: jaz
Dark Spectrum Present: Yes
Reference Spectrum Present: Yes
Processed Spectrum Present: Yes
Spectrometers: JAZA3586
Integration Time (usec): 61000 (JAZA3586)
Spectra Averaged: 10 (JAZA3586)
Boxcar Smoothing: 1 (JAZA3586)
Correct for Electrical Dark: No (JAZA3586)
Strobe/Lamp Enabled: Yes (JAZA3586)
Correct for Detector Non-linearity: No (JAZA3586)
Correct for Stray Light: No (JAZA3586)
Number of Pixels in Processed Spectrum: 2048
>>>>>Begin Processed Spectral Data<<<<<
W	D	R	S	P
191.335022	0.000000	0.000000	0.000000	0.000000
191.713211	226.474716	230.784256	228.109360	37.930813
192.091385	460.008179	466.546783	462.385834	36.363338
192.469528	701.789246	703.349609	703.200928	90.471344
192.847641	722.519592	716.947021	709.813904	228.004074
193.225739	732.847656	724.674377	718.581604	174.545029
193.603790	736.042725	731.287354	723.262695	268.749359
193.981842	737.305969	738.197510	740.055115	308.359009
194.359863	742.284180	741.838379	744.438965	-483.351593
194.737854	745.107666	748.302734	749.714539	144.186981
195.115829	750.680420	744.959167	746.593750	71.429642
195.493774	756.178772	749.120056	744.141785	170.526596
195.871704	764.277832	749.342957	744.141785	134.825684
196.249603	762.420227	752.612305	749.937439	127.272499
196.627457	756.698914	759.596680	759.745361	105.130905
197.005310	758.705078	755.732910	763.980652	-177.499176
197.383133	754.395508	754.172607	764.872253	-4700.191895
197.760910	759.373840	746.519470	762.866028	-27.167316
198.138687	750.977600	752.166443	766.135437	1275.007690
198.516449	752.463623	750.383118	753.949707	-71.428993
198.894180	754.618469	743.101501	746.742371	68.386909
199.271866	752.686584	737.083008	738.866211	88.571831
199.649536	750.308899	740.129395	751.126282	-8.029692
200.027191	745.479187	748.079834	749.045715	137.140045
200.404816	748.005554	754.395569	746.147949	-29.070435
200.782410	751.423401	766.506836	750.977600	-2.955565
201.159988	743.398743	778.469543	763.832031	58.262966
201.537537	738.420471	784.562439	769.404724	67.149834
201.915070	740.203674	782.630615	767.175598	63.572636
202.292557	747.336731	782.036133	762.271667	43.040905
202.670029	753.652527	780.772949	762.345886	32.054661
203.047485	748.377014	781.516052	760.488342	36.547012
203.424911	744.810486	776.240540	760.562683	50.118263
203.802292	741.987000	777.652344	761.008484	53.333241
204.179688	745.553467	774.977356	755.658630	34.343399
204.557037	746.668030	769.999084	751.051941	18.790026
204.934357	743.101563	769.924805	749.863098	25.207748
205.311661	743.695984	763.460449	749.342957	28.571341
205.688934	743.695984	770.519226	751.349121	28.531738
206.066177	740.500977	768.958923	748.674255	28.720551
206.443390	737.157410	773.342712	753.726807	45.790405
206.820587	734.036621	770.445007	760.636963	73.061028
207.197769	740.426575	765.095154	756.773254	66.265182
207.574921	737.974609	766.729797	752.166443	49.353992
207.952042	739.089172	774.828796	744.364746	14.761134
208.329147	740.649475	789.169189	756.996155	33.690800
208.706223	755.435730	809.528137	783.002136	50.961693
209.083267	757.367615	802.617981	787.608826	66.830864
209.460297	753.503906	793.775940	776.240540	56.457623
209.837280	737.677429	772.451111	753.355286	45.085407
210.214264	733.516418	769.776184	753.652527	55.532925
210.591217	726.383484	768.958923	763.311829	86.736259
210.968124	719.919128	766.506836	768.067200	103.349304
211.345016	723.411316	765.540955	771.782410	114.814880
211.721893	735.596863	766.209656	770.742126	114.805809
212.098724	743.175781	767.472839	769.330322	107.644890
212.475555	741.318176	773.342773	769.479004	87.934998
212.852356	736.785828	772.005310	769.033142	91.561012
213.229126	739.757874	772.748352	761.454285	65.765678
213.605865	736.191406	770.519226	753.132324	49.350403
213.982590	725.491760	768.215820	747.336731	51.130371
214.359283	721.851013	766.952637	750.011719	62.438343
214.735931	719.844727	762.271667	750.457520	72.154137
215.112579	731.138733	771.708008	752.092102	51.648369
215.489197	728.463867	770.742126	750.234558	51.493820
215.865799	736.785828	777.949524	749.937317	31.949244
216.242355	737.454529	772.896973	754.692688	48.637051
216.618896	741.392578	768.736023	748.599915	26.358553
216.995407	739.386414	760.636963	750.308899	51.398602
217.371902	730.470032	752.240723	741.987000	52.901249
217.748367	727.497986	768.215820	748.525574	51.642204
218.124802	724.154358	776.612061	748.154053	45.750565
218.501236	729.281250	787.460266	744.513184	26.181147
218.877609	730.321472	778.989746	744.290344	28.702213
219.253983	730.990173	778.841125	744.884766	29.037233
219.630295	733.442139	770.147705	753.429626	54.453560
220.006592	729.206848	765.318054	758.779358	81.892891
220.382889	725.714661	756.104492	760.339783	113.936539
220.759140	720.587708	768.290100	759.076599	80.685455
221.135391	722.891174	772.896912	756.030212	66.270470
221.511581	724.377258	777.726563	752.017883	51.810658
221.887772	718.135803	772.302429	749.268738	57.476231
222.263931	719.621887	773.788574	744.736145	46.364765
222.640060	721.256531	773.491394	749.045715	53.200455
223.016159	730.172852	768.513000	742.655701	32.558167
223.392212	730.841553	762.345886	752.463684	68.632248
223.768265	727.795166	758.779358	749.342957	69.544464
224.144302	731.064453	758.184998	765.912415	128.492859
224.520294	731.658875	760.116882	757.664856	91.383705
224.896286	739.534973	764.797913	762.940369	92.647156
225.272217	735.448303	773.565613	760.265442	65.107269
225.648148	738.717712	775.497559	762.717468	65.252464
226.024048	736.265625	771.039368	757.962097	62.393261
226.399902	734.705261	769.479004	751.720642	48.931694
226.775772	727.795166	768.438721	747.782532	49.177208
227.151581	734.482422	773.714172	750.383118	40.530170
227.527374	729.801270	774.977356	755.807312	57.565948
227.903137	734.110840	771.708008	753.949707	52.766918
228.278870	730.247253	771.559387	753.652527	56.654720
228.654572	737.008728	766.358337	748.376953	38.733822
229.030273	738.717712	770.816406	751.497620	39.814415
229.405930	734.333740	771.410828	751.051941	45.090382
229.781555	735.448303	779.435547	756.104492	46.959499
230.157181	732.996338	776.612061	755.510071	51.618389
230.532761	737.083008	778.395325	749.120056	29.136705
230.908325	740.798157	769.553284	743.473083	9.302434
231.283859	751.497742	776.166260	744.290344	-29.216986
231.659332	743.770264	769.479004	747.633972	15.028774
232.034821	735.448303	769.330383	749.342957	41.008854
232.410263	722.148132	770.816406	751.200500	59.694675
232.785690	730.544373	776.760681	749.640137	41.318237
233.161087	739.906494	780.847229	749.788757	24.137972
233.536469	742.878601	774.680176	753.206726	32.476772
233.911804	737.677429	779.212646	760.488342	54.919449
234.287140	731.436035	776.091980	758.110657	59.733639
234.662430	732.773438	775.348877	758.482239	60.384113
235.037704	738.940613	759.670959	753.801086	71.684639
235.412933	733.813721	765.020813	756.253113	71.904785
235.788162	734.036621	768.364441	750.234558	47.186035
236.163345	729.949890	774.903076	752.463623	50.082619
236.538513	735.225403	772.228210	752.389343	46.385509
236.913635	728.538147	773.268372	756.327393	62.126328
237.288742	729.875671	777.429382	757.070374	57.187340
237.663834	730.767273	776.760559	761.454285	66.720634
238.038879	740.575195	782.704834	763.609070	54.673801
238.413910	740.352356	788.574768	759.968262	40.677986
238.788910	743.398743	794.890564	755.955872	24.386648
239.163879	729.206848	789.837952	750.531738	35.171535
239.538834	722.668274	777.355164	757.070374	62.907398
239.913757	717.095459	772.079590	758.036316	74.459404
240.288651	730.172852	765.615234	758.036316	78.616226
240.663528	734.556641	771.262268	752.537903	48.987755
241.038361	735.968445	768.513000	751.497742	47.717033
241.413177	731.213074	769.479004	757.441956	68.543694
241.787979	729.058350	769.776184	761.974365	80.839310
242.162735	734.853821	775.423157	764.575012	73.260239
242.537476	729.429749	779.881348	760.636902	61.855629
242.912170	743.844482	781.070129	761.528564	47.505104
243.286865	733.367859	780.772949	754.023987	43.573650
243.661514	738.197510	773.862793	750.977539	35.833248
244.036148	721.107849	772.822571	750.160217	56.178139
244.410751	718.581543	769.776184	755.361511	71.843391
244.785339	723.039795	773.788513	750.457520	54.026436
245.159882	728.538147	778.172363	749.863037	42.964092
245.534378	738.494690	778.543945	751.646301	32.838593
245.908890	735.151123	776.314758	759.819641	59.927940
246.283356	732.179016	774.680176	760.636963	66.958046
246.657791	728.909668	781.144531	752.909485	45.945976
247.032196	722.816895	791.844055	749.045715	37.997826
247.406586	722.742493	792.810059	747.931213	35.949188
247.780960	719.993347	792.661438	756.327393	50.000000
248.155289	732.104675	790.209473	754.692688	38.874607
248.529602	735.894104	787.014404	752.612244	32.703526
248.903870	743.621643	786.865906	742.358398	-2.921184
249.278122	741.912598	788.872070	748.228333	13.449331
249.652344	741.615479	785.454102	742.209900	1.355931
250.026550	736.414307	783.076416	753.801086	37.261024
250.400711	739.832214	782.779114	754.767090	34.775211
250.774857	736.785828	791.175354	764.872253	51.639400
251.148987	735.299805	790.655273	763.237549	50.469707
251.523071	726.234863	790.432312	769.033203	66.666733
251.897125	729.727051	789.169189	772.971191	72.749977
252.271164	725.789063	794.890442	772.525391	67.634438
252.645187	724.302917	791.546875	769.999084	67.955795
253.019165	716.724060	792.884338	763.088928	60.878017
253.393112	730.544373	790.580994	766.655518	60.148529
253.767044	730.024231	787.385925	764.872253	60.751381
254.140930	736.191406	793.181458	762.048645	45.371494
254.514801	732.253357	792.141296	757.664795	42.431644
254.888657	737.751709	795.187744	747.633972	17.205685
255.262466	738.643372	783.373535	744.959045	14.119496
255.636276	739.237793	786.791504	748.971436	20.468735
256.010010	742.135559	784.636719	754.692688	29.545380
256.383759	742.209900	788.723450	760.934143	40.255459
256.757446	738.569031	786.568665	756.253113	36.842117
257.131134	738.643372	790.283752	758.259277	37.985596
257.504791	736.934326	786.419983	756.996155	40.540695
257.878418	737.603088	781.664612	752.983887	34.907551
258.252014	734.853943	781.441711	758.556580	50.877380
258.625580	737.083008	797.714050	760.339783	38.357868
258.999115	735.596924	813.540527	764.426453	36.987679
259.372650	737.157288	825.057434	761.157043	27.303431
259.746124	738.346191	829.738464	761.082825	24.878069
260.119598	735.819824	829.441345	761.454346	27.381014
260.493042	732.179016	832.264832	751.051941	18.856743
260.866425	733.813660	831.818909	750.754700	17.285851
261.239838	739.832214	826.023376	748.302673	9.827526
261.613159	740.723816	823.051270	759.448181	22.743769
261.986511	732.922058	813.763428	758.779480	31.985384
262.359802	728.389587	815.769592	767.992920	45.323105
262.733063	730.990173	808.710754	766.729736	45.984684
263.106293	734.185242	810.271179	762.717468	37.500000
263.479523	742.061279	811.311462	761.454285	28.004267
263.852692	741.392578	810.494141	761.454285	29.032204
264.225861	743.472961	809.156738	763.088928	29.864248
264.598969	741.392578	806.778992	758.184998	25.681818
264.972076	738.271790	816.289734	754.246887	20.476183
265.345154	736.785828	822.828308	758.036377	24.697741
265.718201	726.680603	829.069763	760.636902	33.163960
266.091217	724.525696	834.122314	766.952637	38.711906
266.464203	723.634094	840.512390	765.763855	36.045837
266.837158	725.417480	839.026306	758.407898	29.038605
267.210114	733.442200	830.778748	751.200500	18.244226
267.583038	735.225403	836.351379	748.674316	13.299168
267.955902	741.169739	836.277161	758.036438	17.734367
268.328766	732.104797	852.995300	758.705078	22.003614
268.701569	733.442200	844.598938	761.082825	24.866352
269.074371	723.039734	849.354309	753.949707	24.470631
269.447144	722.593933	843.335876	759.671082	30.707762
269.819885	718.358643	850.766113	750.680420	24.410841
270.192596	728.612488	855.001282	753.801086	19.929455
270.565277	732.327637	855.595764	749.714539	14.104945
270.937927	734.928223	859.162292	754.469788	15.729634
271.310577	732.996338	869.862000	753.206726	14.766588
271.683136	733.070618	884.945374	749.565918	10.861120
272.055725	731.064453	891.038269	752.389343	13.330237
272.428284	730.544373	897.354004	751.794922	12.739402
272.800812	733.070618	895.496399	755.435791	13.769472
273.173279	735.076843	892.821533	758.185059	14.649124
273.545776	735.448303	892.152771	750.606140	9.672881
273.918152	737.603088	895.422058	753.801086	10.263658
274.290558	729.355469	897.725403	756.847473	16.328333
274.662964	733.442139	894.307556	764.797913	19.491930
275.035278	728.538147	892.821472	764.575012	21.935802
275.407593	734.928223	893.936035	768.141541	20.887854
275.779907	731.584656	900.697571	780.104248	28.690649
276.152161	734.333801	902.332275	781.738953	28.217607
276.524384	738.049011	909.613953	771.410828	19.445591
276.896606	736.562927	908.573730	763.386169	15.593928
277.268799	737.008728	914.815125	764.797852	15.628866
277.640930	739.163513	923.954407	769.701843	16.525885
278.013031	744.810486	931.830383	768.215820	12.514890
278.385162	733.888000	934.059509	768.438721	17.260559
278.757233	732.104736	928.338196	765.466614	17.001116
279.129272	732.030334	931.607483	772.971191	20.513800
279.501282	747.485352	939.334961	766.209717	9.759918
279.873230	741.541199	946.913818	766.729797	12.264828
280.245178	744.216003	955.607239	761.008484	7.943792
280.617126	736.265625	966.232605	760.042480	10.339248
280.988983	741.764099	972.919739	765.392334	10.221786
281.360870	735.448303	976.634949	753.652527	7.547774
281.732697	737.751770	986.814453	756.104492	7.368716
282.104492	730.321472	1002.418030	752.092102	8.001068
282.476288	727.349304	1026.640625	765.020813	12.586904
282.848053	730.544373	1021.513733	767.844421	12.819236
283.219757	733.739441	1025.749023	769.404724	12.213737
283.591461	735.225403	1016.907043	768.958801	11.975718
283.963135	727.795105	1020.473450	769.553284	14.267601
284.334747	730.395691	1025.451782	767.101257	12.440200
284.706360	732.922058	1037.265991	760.042480	8.911110
285.077942	739.832214	1052.943848	754.618469	4.722359
285.449524	740.203674	1066.244141	755.138611	4.580700
285.821014	734.928223	1066.912720	761.082764	7.878242
286.192535	730.395752	1085.414185	767.992920	10.590201
286.563995	733.888000	1098.119995	766.952637	9.077906
286.935425	738.271912	1108.893677	766.804016	7.698443
287.306824	738.049011	1107.556274	759.002258	5.670591
287.678223	731.510254	1101.463501	753.726807	6.005232
288.049561	734.408020	1097.896973	750.903320	4.538047
288.420898	737.974609	1089.277832	749.491638	3.278373
288.792145	743.324402	1090.986694	760.042480	4.808712
289.163452	741.838379	1100.274780	758.779358	4.726356
289.534668	732.773438	1114.020630	765.838074	8.672755
289.905914	724.748718	1122.565552	756.847473	8.068727
290.277039	726.234802	1140.769653	763.088867	8.890462
290.648193	736.414246	1162.911987	767.918640	7.386767
291.019318	742.432800	1188.769165	772.599670	6.758775
291.390381	740.575195	1194.193237	770.370605	6.568392
291.761475	737.083008	1190.626831	766.581116	6.503916
292.132507	737.974609	1181.116089	761.528625	5.315236
292.503510	747.113953	1177.995239	760.116882	3.017752
292.874481	755.881653	1177.623779	767.324219	2.713166
293.245422	751.720703	1180.595947	772.822571	4.920281
293.616364	746.890930	1186.020020	775.571777	6.531302
293.987213	731.287415	1205.412964	769.404602	8.039472
294.358093	729.281250	1225.994751	763.609070	6.910990
294.728943	721.628113	1255.418823	760.414063	7.266134
295.099731	726.829285	1276.595093	760.562683	6.135958
295.470490	727.795166	1295.319458	761.379944	5.917769
295.841248	725.491760	1309.213867	762.123047	6.275467
296.211975	727.943665	1327.046509	758.259277	5.060168
296.582642	732.699036	1343.095947	762.420227	4.869158
296.953308	739.386414	1367.541626	762.940369	3.749703
297.323883	740.946716	1380.172974	753.949707	2.034177
297.694519	740.946777	1403.355469	748.748535	1.177786
298.065063	740.872375	1406.624634	747.708252	1.026790
298.435608	738.569031	1402.612305	756.476013	2.696659
298.806122	737.454529	1386.488647	757.664856	3.113908
299.176575	739.832214	1368.210327	760.414063	3.275392
299.547028	742.135559	1352.309448	765.169434	3.774969
299.917450	738.494812	1329.498657	772.302429	5.720372
300.287872	734.556702	1321.250977	768.067200	5.711748
300.658234	735.076843	1318.947632	764.277832	5.001276
301.028564	735.745605	1320.433716	765.095215	5.019703
301.398865	733.293457	1325.411987	764.723633	5.308088
301.769135	724.897278	1330.687500	767.027039	6.954513
302.139374	727.720764	1340.049683	762.048767	5.606138
302.509583	723.857117	1338.860718	770.370667	7.563135
302.879791	727.497986	1339.157837	767.770020	6.584057
303.249939	730.544434	1340.569702	765.318054	5.700357
303.620087	737.528809	1345.473633	758.482239	3.446601
303.990173	736.488586	1348.965942	756.698914	3.299767
304.360260	739.163513	1348.743042	764.797913	4.205259
304.730286	740.278015	1347.034058	762.866028	3.722750
305.100281	740.129395	1352.978271	760.191101	3.273516
305.470276	736.711426	1358.476685	758.927979	3.573142
305.840179	735.894226	1374.526001	761.528564	4.013947
306.210144	736.785828	1374.897461	768.735901	5.006972
306.579987	733.813660	1385.002808	768.884521	5.385664
306.949890	726.680664	1386.340210	771.708008	6.825846
307.319702	728.835388	1408.630981	772.153870	6.372281
307.689484	724.451477	1429.287109	778.543945	7.674480
308.059265	727.720764	1452.989624	784.413818	7.816833
308.429016	722.816833	1472.531250	780.475769	7.690786
308.798737	724.005676	1492.667358	777.132141	6.911554
309.168396	725.194580	1515.106812	773.565613	6.123596
309.538055	732.550537	1537.174683	780.698730	5.983936
309.907684	741.020996	1551.812378	774.011414	4.068916
310.277313	738.346130	1572.319946	766.358215	3.358869
310.646851	733.293518	1577.744141	760.116760	3.176413
311.016388	725.120300	1592.827515	756.996094	3.673566
311.385895	727.943848	1586.734741	759.150879	3.633833
311.755371	726.903503	1589.706665	762.123047	4.081991
312.124817	727.423645	1594.239258	765.095032	4.345952
312.494232	728.463867	1603.006836	767.992920	4.519967
312.863617	733.219238	1612.146118	761.454285	3.212445
313.232971	732.847656	1600.480591	771.485168	4.453209
313.602295	735.968445	1596.245239	765.540955	3.437557
313.971619	730.544434	1585.471558	761.677185	3.641568
314.340820	732.996399	1591.415649	749.045715	1.869636
314.710083	731.956116	1610.585815	752.909424	2.384771
315.079285	735.596924	1629.681641	766.061035	3.407296
315.448486	731.956055	1658.065308	768.587402	3.955402
315.817596	727.869446	1650.857910	773.268372	4.918688
316.186707	724.600098	1646.696899	766.878418	4.585020
316.555786	728.761047	1625.223267	762.345886	3.746375
316.924866	732.253235	1618.090454	760.785583	3.220947
317.293884	738.123230	1610.734375	765.095032	3.090930
317.662872	743.324402	1595.651001	774.457275	3.652693
318.031830	742.581360	1596.096680	768.141541	2.994695
318.400757	736.042786	1605.830444	764.203430	3.237646
318.769684	729.578430	1622.028320	764.203430	3.879770
319.138550	723.411316	1638.151978	760.488342	4.053283
319.507416	726.309082	1641.718628	758.630798	3.530848
319.876190	721.479492	1655.984741	754.395569	3.522300
320.244995	734.259521	1660.591431	769.701904	3.826100
320.613770	737.083069	1657.916626	771.708191	3.760193
320.982483	739.757874	1635.402954	775.126038	3.948904
321.351166	726.977844	1621.062500	765.466614	4.304824
321.719818	723.559875	1612.740601	767.249939	4.913519
322.088440	726.234863	1630.944702	764.575012	4.237839
322.457062	732.550537	1642.981812	764.872253	3.550154
322.825623	734.110901	1666.907227	768.290100	3.664165
323.194183	737.454529	1688.975098	770.965027	3.521784
323.562653	743.324402	1725.457642	773.194092	3.041307
323.931183	737.751709	1772.194214	767.770020	2.901883
324.299591	733.516418	1809.419922	761.825745	2.631214
324.668060	726.606384	1850.434937	759.819580	2.955361
325.036407	733.293640	1879.858765	767.398499	2.974524
325.404755	733.665100	1916.861694	769.181824	3.001760
325.773102	733.739441	1926.075195	779.584167	3.844951
326.141388	729.875671	1930.979004	777.057861	3.928238
326.509674	727.423645	1925.629272	776.983582	4.136180
326.877899	723.114075	1932.465210	763.757629	3.360774
327.246124	718.804504	1939.226685	765.243713	3.805176
327.614288	726.011902	1942.050171	771.856689	3.770012
327.982422	728.686768	1938.632202	776.091858	3.917953
328.350525	741.987000	1928.006836	775.646057	2.837985
328.718628	734.779602	1926.595215	768.067200	2.793015
329.086700	736.637207	1926.743774	767.770020	2.615968
329.454712	727.943787	1940.861450	765.392334	3.087476
329.822693	734.036560	1939.375366	775.497559	3.439780
330.190674	726.754883	1944.205078	781.441711	4.491915
330.558563	723.708496	1956.242065	782.481934	4.768506
330.926483	716.426819	1972.142944	774.531555	4.627219
331.294312	720.662109	1994.210571	769.256042	3.815633
331.662231	721.925232	2012.935059	764.797852	3.320859
332.029999	726.011902	2046.222656	771.856689	3.472536
332.397766	726.234802	2072.897217	764.203430	2.819462
332.765503	729.949890	2100.017822	768.215820	2.792995
333.133240	730.024231	2126.172363	768.884521	2.783393
333.500916	734.779602	2157.156494	778.246765	3.055953
333.868561	731.658875	2185.986084	772.674011	2.820214
334.236176	730.618652	2214.146973	769.850525	2.644498
334.603790	723.559875	2226.109619	768.661621	3.001681
334.971344	731.510254	2235.397461	772.971191	2.756918
335.338867	729.504089	2237.775146	771.559509	2.788320
335.706360	734.333801	2240.152588	771.559509	2.472124
336.073853	724.154297	2248.623291	763.460449	2.578350
336.441284	724.823059	2262.517822	761.231384	2.367721
336.808655	721.999512	2256.127686	756.327393	2.237615
337.176086	722.296692	2208.573975	761.974365	2.669601
337.543396	727.572266	2149.354492	763.609070	2.534622
337.910706	730.767273	2108.042480	771.113586	2.929430
338.277954	743.770203	2135.906006	775.794739	2.300389
338.645264	740.946777	2212.957764	775.051758	2.316897
339.012421	738.791931	2320.548096	773.714172	2.207814
339.379669	741.392517	2410.305664	770.667786	1.754152
339.746796	740.277893	2474.206299	772.525391	1.859794
340.113953	734.630920	2509.054443	769.404602	1.959717
340.481018	725.045898	2528.670166	770.890686	2.541815
340.848114	726.086182	2524.806396	773.268372	2.623098
341.215118	734.408142	2523.543213	782.407654	2.682833
341.582153	733.442200	2529.190186	783.002136	2.759849
341.949066	737.677429	2538.998291	778.989746	2.293446
342.316010	738.643372	2565.969971	765.095154	1.447567
342.682922	732.327637	2578.675781	757.070496	1.340097
343.049835	717.912903	2600.520752	756.847473	2.068119
343.416656	726.086182	2634.477295	770.073425	2.304939
343.783478	733.962219	2664.272705	780.401428	2.405790
344.150269	743.993164	2736.791992	783.819336	1.998504
344.516998	734.705322	2802.698486	783.299316	2.349814
344.883728	740.426575	2892.678955	779.064026	1.795210
345.250427	741.169678	2934.511719	778.098145	1.683662
345.617065	741.466858	2949.892334	770.370605	1.308794
345.983704	734.408142	2949.669678	772.525391	1.720666
346.350281	730.247131	2940.901611	773.045471	1.936003
346.716827	728.686829	2924.703857	780.550110	2.361697
347.083405	727.200745	2897.286133	774.234375	2.167363
347.449860	741.243958	2875.366455	779.361328	1.786091
347.816376	744.141785	2856.419922	772.971191	1.364849
348.182770	747.411072	2842.970703	772.674011	1.205546
348.549194	733.962219	2840.295898	767.844421	1.608587
348.915558	730.544250	2859.986328	770.593567	1.880742
349.281921	729.058289	2891.416016	773.417053	2.051407
349.648193	726.531982	2923.143311	769.033203	1.934854
350.014526	736.265625	2953.607422	768.438782	1.450979
350.380737	736.860107	2987.118164	771.856628	1.555223
350.746948	746.816650	3019.068359	781.144531	1.510743
351.113159	742.284180	3042.324951	782.630554	1.754159
351.479309	740.426575	3069.817139	782.927795	1.824564
351.845428	730.395752	3088.912842	778.841125	2.054061
352.211517	728.761169	3119.971436	770.667786	1.752527
352.577576	732.773438	3145.234131	761.082764	1.173463
352.943604	741.764099	3199.475342	756.401672	0.595577
353.309601	738.940613	3259.214844	763.014648	0.955215
353.675537	735.448303	3342.656494	769.404602	1.302401
354.041473	731.956055	3413.466797	771.410828	1.471364
354.407379	728.835388	3480.264893	770.742126	1.523090
354.773254	729.355530	3537.478271	771.782410	1.510863
355.139038	728.166748	3576.190186	768.736023	1.424471
355.504913	731.658936	3650.492432	773.342773	1.428099
355.870636	722.519714	3713.129883	779.509949	1.905639
356.236389	724.971680	3823.989502	780.995911	1.807806
356.602081	725.789001	3908.620361	779.807068	1.697170
356.967804	730.915833	3993.399658	776.314880	1.391549
357.333405	722.593933	4084.272217	778.915466	1.675399
357.699036	722.816895	4204.196289	777.503662	1.570836
358.064606	728.686768	4318.325195	780.550049	1.444805
358.430176	735.671204	4389.878906	785.677002	1.368444
358.795654	738.866211	4421.234863	792.735657	1.462902
359.161163	739.163391	4437.135254	792.661438	1.446686
359.526581	736.191345	4435.426758	789.837891	1.450206
359.892029	732.922058	4468.045410	787.683105	1.466111
360.257416	727.126404	4539.376465	784.339539	1.500771
360.622772	729.578369	4669.331543	782.407654	1.340929
360.988098	727.497864	4834.580566	778.246643	1.235641
361.353394	728.166687	5028.808105	775.794678	1.107462
361.718658	726.457703	5229.351074	775.423157	1.087422
362.083893	730.172852	5386.799316	774.382874	0.949400
362.449097	738.940491	5492.829590	772.896790	0.714285
362.814209	742.284180	5512.296387	771.262207	0.607504
363.179382	739.386414	5409.535645	767.992920	0.612539
363.544434	735.002502	5192.571289	767.324219	0.725097
363.909546	735.448303	4939.421875	767.547058	0.763534
364.274536	737.900391	4722.012207	778.098083	1.008950
364.639587	733.888000	4583.883301	779.807129	1.192706
365.004517	729.949890	4507.128906	775.943359	1.217667
365.369507	727.126404	4461.878418	768.735901	1.114117
365.734344	729.281189	4436.689453	780.401428	1.378867
366.099274	726.829163	4406.448730	789.466370	1.702274
366.464081	726.977844	4395.823242	789.689270	1.709296
366.828918	733.813660	4396.417480	785.454102	1.409938
367.193665	736.191345	4390.845215	778.320984	1.152767
367.558411	741.466797	4420.417480	779.064026	1.021955
367.923126	738.420410	4416.776855	775.200378	0.999902
368.287781	744.438965	4445.011719	778.023743	0.907556
368.652435	751.274719	4408.529297	773.491394	0.607469
369.017059	746.147949	4416.182129	775.497498	0.799708
369.381653	746.519470	4403.848145	780.475830	0.928447
369.746185	732.327637	4401.990723	789.392090	1.555032
370.110687	734.036621	4388.541504	782.110413	1.315467
370.475220	730.470032	4406.002441	775.423157	1.223037
370.839661	733.367859	4452.888184	767.918640	0.928904
371.204041	735.374023	4519.834473	774.160095	1.024877
371.568451	732.327637	4573.778320	781.441711	1.278529
371.932770	730.767273	4633.220703	785.305481	1.397536
372.297150	728.984070	4667.845703	792.884277	1.622301
372.661377	730.395752	4688.947754	787.163025	1.434041
373.025696	732.847717	4703.511230	788.426086	1.399725
373.389862	728.761047	4697.937988	786.197083	1.447052
373.754059	728.835449	4713.615723	793.775940	1.629713
374.118225	728.686829	4726.990723	788.797668	1.503408
374.482361	735.522705	4767.039551	790.729492	1.369380
374.846436	741.541199	4816.896973	783.670715	1.033763
375.210510	740.649597	4892.685547	792.735657	1.254470
375.574524	741.838379	4989.576172	786.717224	1.056535
375.938538	731.881836	5083.346191	791.026672	1.359194
376.302460	729.801270	5178.899902	784.785339	1.235847
376.666412	726.903503	5294.515137	783.447937	1.237943
377.030304	735.671204	5417.188965	779.658447	0.939594
377.394196	733.219238	5550.487793	781.887512	1.010288
377.757996	730.470032	5655.849121	787.980408	1.167634
378.121796	725.937561	5724.652832	791.769836	1.316984
378.485565	734.928223	5722.201172	797.639709	1.257430
378.849304	738.569031	5687.427246	797.491150	1.190620
379.212982	731.807434	5609.706543	794.741882	1.290196
379.576630	726.829163	5501.150391	787.311707	1.266830
379.940277	721.479431	5404.259766	788.426086	1.429635
380.303864	732.699158	5327.728027	787.088684	1.183660
380.667450	735.002502	5309.523926	786.048523	1.115877
381.030945	732.550537	5296.372070	782.036133	1.084302
381.394501	732.253357	5330.477051	790.506653	1.266865
381.757935	735.968445	5361.461426	793.478699	1.243332
382.121399	746.816650	5386.501465	794.296082	1.023333
382.484741	747.188171	5424.024902	787.311707	0.857920
382.848145	745.924988	5460.952637	786.271484	0.855700
383.211487	735.002441	5514.079590	781.367432	0.970166
383.574768	730.692932	5587.861816	781.590332	1.047882
383.938019	726.160583	5657.706543	779.286926	1.077276
384.301270	733.293640	5750.956543	784.562500	1.021768
384.664459	729.578430	5803.042480	781.961914	1.032499
385.027649	723.708496	5855.574219	777.652283	1.051154
385.390778	723.485596	5892.875000	770.890808	0.917037
385.753876	728.983948	5936.044434	772.376770	0.833346
386.116943	735.374023	6010.124512	777.280762	0.794478
386.479980	733.590637	6035.535645	776.612122	0.811428
386.842987	729.058289	6074.173340	774.382996	0.847965
387.205994	722.668274	6090.000000	775.869080	0.991197
387.568909	719.770447	6149.962402	785.899902	1.217811
387.931793	717.392822	6185.404297	793.255859	1.387397
388.294678	722.445374	6217.131348	792.661438	1.277890
388.657471	724.600159	6246.852051	792.587097	1.231145
389.020294	731.138855	6264.610840	795.187683	1.157480
389.383057	737.825989	6302.431152	796.525208	1.054868
389.745819	736.042786	6310.084473	799.943115	1.146391
390.108521	740.278015	6331.558105	797.862610	1.029900
390.471191	733.293518	6365.736816	803.806824	1.251913
390.833801	735.299805	6464.187500	796.971008	1.076495
391.196442	732.996399	6595.777832	797.268250	1.096269
391.558960	737.751709	6728.779785	793.627380	0.932656
391.921509	733.145020	6860.815918	798.457031	1.065854
392.284027	730.544434	7010.461426	794.518982	1.018716
392.646484	728.984070	7142.052246	801.875000	1.136600
393.008911	733.590820	7174.596191	794.890564	0.951711
393.371307	737.157288	7136.775879	798.605652	0.960188
393.733673	733.367859	7073.247559	792.512878	0.932904
394.096008	728.761047	7051.031250	805.590088	1.215213
394.458344	724.451477	7079.562988	801.206238	1.207764
394.820587	725.714661	7088.033691	803.435364	1.221578
395.182831	735.002502	7122.585449	792.067078	0.893367
395.545013	730.693054	7114.634277	795.336365	1.012592
395.907196	724.525879	7096.281250	798.085510	1.154464
396.269287	719.621887	7011.204590	803.361023	1.330971
396.631409	725.789001	6909.929688	802.469421	1.239953
396.993469	729.132629	6803.603027	808.859436	1.312490
397.355530	729.949890	6737.770996	811.905945	1.364156
397.717499	728.389648	6704.482910	822.976990	1.582762
398.079468	730.172852	6720.012207	818.072937	1.467487
398.441376	728.909668	6730.340332	816.512634	1.459701
398.803284	725.120300	6748.395996	815.100830	1.493880
399.165131	730.470032	6760.284668	812.054443	1.353017
399.526978	732.922058	6778.562500	819.707581	1.435506
399.888763	738.197571	6806.352051	819.484680	1.339569
400.250519	730.247131	6812.147949	827.360840	1.596766
400.612244	735.671204	6849.224609	825.057434	1.462099
400.973938	735.374023	6835.553223	832.562012	1.593199
401.335602	729.875671	6869.212402	837.688782	1.756104
401.697205	722.296692	6912.902344	847.719727	2.026022
402.058807	719.101746	6977.025879	851.583496	2.117024
402.420349	728.240967	7047.167480	856.190247	2.024858
402.781860	729.355469	7096.801270	857.081848	2.005928
403.143341	729.875671	7219.920410	857.081848	1.960020
403.504822	726.606262	7333.455566	861.019836	2.034458
403.866241	725.640381	7509.924316	866.369690	2.074343
404.227631	733.144958	7629.626465	883.459290	2.179580
404.588959	746.965271	7796.436035	893.118713	2.073254
404.950287	750.308838	7900.533691	913.774902	2.286167
405.311554	750.754639	8002.477051	926.332031	2.421182
405.672821	743.993164	8047.579590	943.496033	2.731574
406.034027	740.352295	8057.461426	964.895081	3.068736
406.395203	734.110840	8003.294922	991.941406	3.546898
406.756348	732.476257	7939.246094	1027.383789	4.092090
407.117493	733.219238	7898.082031	1066.318359	4.649065
407.478516	730.395752	7906.181152	1093.736084	5.063423
407.839600	729.801453	7935.679688	1130.738892	5.564033
408.200592	721.256592	7934.119141	1156.150391	6.029420
408.561554	723.857178	7924.831543	1206.081665	6.696656
408.922485	725.789001	7911.456543	1262.923218	7.475078
409.283417	735.076843	7924.310547	1327.418091	8.239282
409.644257	741.615479	7992.743652	1405.956055	9.161893
410.005096	741.169678	8101.300293	1485.757324	10.116500
410.365906	742.061340	8230.438477	1586.288696	11.273836
410.726715	738.197571	8327.180664	1681.767700	12.433420
411.087433	734.482422	8390.784180	1784.900024	13.719647
411.448120	724.971680	8442.200195	1894.273804	15.151840
411.808807	723.188293	8471.327148	2011.671997	16.629589
412.169434	720.959290	8444.207031	2137.763916	18.344675
412.530029	730.544373	8410.622070	2262.592285	19.948338
412.890564	730.767273	8380.530273	2416.918945	22.041880
413.251099	733.293518	8382.461914	2581.127930	24.157326
413.611572	730.247131	8425.780273	2747.565674	26.214149
413.972076	730.915833	8481.432617	2899.738037	27.982939
414.332489	728.909729	8561.159180	3051.686768	29.656576
414.692871	734.556824	8644.304688	3234.248779	31.602674
415.053223	733.293640	8749.665039	3438.803955	33.749809
415.413574	733.962341	8890.618164	3675.681396	36.065258
415.773834	730.841614	9043.608398	3881.053955	37.896076
416.134094	732.699219	9180.325195	4097.943359	39.836567
416.494263	738.494812	9324.173828	4287.489746	41.336220
416.854462	736.562927	9545.150391	4561.146973	43.418808
417.214630	746.519470	9777.048828	4810.581055	45.003582
417.574738	748.748535	10026.780273	5072.869629	46.606018
417.934784	751.869141	10240.474609	5309.301270	48.030579
418.294861	739.237793	10556.410156	5581.992188	49.329426
418.654846	731.881836	10919.452148	5906.620605	50.794632
419.014832	730.990234	11319.648438	6238.976563	52.017792
419.374756	733.516418	11721.922852	6593.251953	53.326527
419.734680	737.454529	12146.786133	6940.171875	54.365299
420.094543	736.711487	12562.508789	7304.478027	55.537624
420.454376	742.655762	12953.788086	7628.660156	56.391201
420.814148	738.049011	13349.450195	7938.205566	57.092442
421.173920	736.265625	13772.159180	8256.370117	57.687679
421.533691	738.346130	14187.956055	8586.719727	58.353909
421.893341	738.197510	14513.996094	8873.750977	59.056858
422.253021	735.596985	14745.968750	9088.485352	59.619320
422.612640	723.708496	14847.913086	9216.063477	60.126255
422.972260	721.999512	14839.367188	9303.889648	60.789597
423.331757	726.086182	14782.898438	9339.480469	61.275589
423.691315	730.692932	14769.151367	9409.844727	61.824108
424.050781	730.767273	14856.458008	9524.568359	62.253952
424.410248	721.999512	14954.387695	9672.356445	62.887245
424.769653	725.194580	15048.008789	9821.779297	63.511154
425.128998	735.076843	15116.739258	9909.976563	63.795822
425.488373	738.123230	15079.885742	9902.768555	63.901806
425.847656	733.367859	14956.989258	9857.890625	64.150490
426.206940	719.250305	14796.791992	9793.692383	64.460419
426.566193	721.107910	14524.472656	9692.120117	64.991486
426.925385	722.668274	14286.629883	9539.057617	64.998634
427.284576	734.036621	13896.168945	9341.487305	65.395569
427.643677	743.621643	13618.872070	9166.652344	65.420326
428.002777	737.974609	13314.825195	9020.350586	65.854134
428.361847	742.804382	13027.867188	8846.258789	65.961853
428.720856	738.717590	12761.492188	8720.242188	66.386711
429.079865	738.197510	12534.942383	8594.520508	66.597382
429.438812	729.429871	12405.953125	8509.519531	66.630188
429.797760	726.754944	12343.835938	8428.752930	66.298912
430.156616	734.928223	12221.237305	8358.090820	66.367386
430.515503	737.974609	12152.582031	8326.363281	66.479630
430.874268	735.299744	12083.851563	8328.889648	66.912415
431.233093	728.092346	12101.090820	8363.514648	67.136406
431.591827	728.092285	12122.192383	8428.974609	67.586578
431.950562	733.888000	12154.809570	8488.491211	67.898224
432.309204	732.179016	12210.760742	8536.416992	67.989563
432.667877	727.869446	12312.183594	8592.887695	67.893684
433.026459	723.039795	12435.674805	8669.418945	67.844505
433.385010	718.284363	12577.964844	8781.466797	67.988190
433.743561	720.513489	12743.734375	8911.347656	68.125122
434.102051	724.154297	12909.875000	9034.021484	68.193481
434.460510	736.117126	13097.117188	9147.407227	68.047005
434.818939	735.819885	13145.934570	9215.692383	68.330330
435.177338	736.637207	13196.015625	9261.313477	68.419746
435.535675	728.612488	13133.898438	9256.409180	68.743248
435.894012	729.652649	13126.541992	9226.911133	68.543472
436.252289	731.213074	13129.586914	9230.551758	68.552048
436.610535	731.733215	13120.596680	9246.082031	68.725822
436.968719	735.671204	13217.784180	9327.815430	68.835655
437.326935	732.550476	13294.614258	9395.951172	68.964790
437.685028	732.104675	13412.235352	9460.148438	68.832443
438.043152	728.315247	13469.375000	9521.374023	69.013557
438.401215	732.104675	13627.713867	9640.628906	69.081841
438.759277	736.117004	13843.710938	9788.194336	69.059792
439.117249	739.014832	14214.258789	10050.780273	69.102760
439.475250	732.847839	14483.979492	10254.666992	69.243896
439.833130	737.528809	14803.332031	10502.020508	69.420082
440.191071	736.562805	15003.577148	10661.696289	69.567001
440.548889	733.070618	15281.989258	10862.686523	69.624527
440.906708	730.098572	15609.739258	11073.409180	69.513176
441.264496	732.476257	15845.948242	11215.550781	69.362450
441.622223	743.250183	16046.936523	11325.889648	69.150917
441.979950	743.175781	16109.127930	11392.019531	69.301552
442.337616	733.144836	16165.894531	11441.875977	69.389648
442.695251	731.064453	16067.516602	11396.403320	69.542412
443.052887	726.977844	15928.645508	11301.593750	69.562210
443.410461	735.225403	15782.640625	11189.620117	69.476349
443.768005	727.869446	15648.375000	11103.946289	69.542397
444.125458	731.361633	15544.426758	11007.651367	69.373146
444.482941	718.284363	15544.722656	11022.660156	69.500008
444.840393	724.154297	15616.277344	11078.609375	69.529747
445.197754	727.200745	15829.526367	11255.969727	69.716209
445.555084	737.603210	16041.289063	11401.231445	69.680130
445.912415	734.556702	16402.400391	11682.838867	69.877403
446.269714	730.098572	16664.837891	11876.026367	69.947350
446.626953	726.829285	16977.130859	12071.144531	69.809875
446.984161	730.024231	17242.242188	12252.518555	69.781624
447.341309	732.104736	17510.923828	12408.553711	69.590416
447.698456	729.578430	17724.246094	12600.106445	69.848549
448.055542	728.092285	17867.203125	12680.206055	69.735901
448.412598	730.618652	17855.833984	12696.031250	69.870140
448.769653	733.813660	17730.560547	12611.624023	69.882851
449.126617	739.906494	17482.388672	12436.640625	69.862602
449.483582	742.507080	17254.876953	12300.739258	69.997421
449.840515	745.181946	16979.287109	12106.811523	69.986176
450.197388	738.271790	16754.373047	11974.328125	70.154755
450.554230	734.333801	16631.029297	11856.187500	69.963303
450.911041	730.618652	16510.064453	11787.086914	70.068802
451.267822	726.903503	16387.687500	11703.273438	70.088257
451.624573	727.869446	16177.335938	11601.031250	70.378883
451.981262	733.739319	16085.127930	11522.717773	70.280144
452.337921	732.401855	15938.527344	11452.352539	70.497589
452.694580	732.996338	15896.027344	11407.175781	70.396080
453.051147	734.259460	15892.385742	11396.104492	70.337486
453.407715	738.197510	15887.481445	11359.918945	70.113686
453.764221	740.649475	15944.472656	11389.714844	70.042023
454.120728	737.157227	15769.637695	11268.825195	70.059418
454.477142	734.631042	15726.914063	11244.898438	70.104515
454.833557	727.497986	15522.582031	11123.265625	70.265015
455.189911	726.829285	15398.718750	11079.500977	70.561272
455.546265	734.408142	15226.632813	10957.645508	70.542915
455.902557	730.915833	15094.151367	10896.048828	70.771889
456.258820	728.612488	15056.257813	10862.909180	70.732468
456.615051	723.039734	15101.210938	10895.825195	70.751595
456.971252	729.355469	15089.249023	10875.243164	70.654335
457.327393	724.897400	15227.524414	10973.695313	70.668564
457.683502	738.123291	15452.215820	11133.148438	70.646729
458.039612	733.739441	15850.700195	11394.024414	70.518707
458.395630	742.507141	16260.109375	11684.399414	70.512779
458.751648	736.117004	16626.197266	11954.713867	70.601257
459.107605	738.271790	17199.220703	12370.957031	70.668373
459.463562	732.476257	17738.138672	12751.460938	70.676369
459.819458	724.080017	18330.851563	13167.706055	70.675232
460.175323	724.748718	18849.783203	13503.405273	70.502792
460.531158	726.457703	19401.406250	13866.225586	70.360390
460.886932	728.835449	19754.568359	14152.959961	70.557732
461.242676	726.086243	19942.107422	14317.465820	70.729416
461.598419	723.782898	19821.439453	14273.477539	70.949516
461.954102	723.262756	19509.218750	13997.666992	70.661324
462.309723	726.457703	19000.169922	13639.453125	70.664322
462.665344	737.082947	18413.849609	13246.614258	70.768204
463.020905	740.426575	17931.697266	12946.950195	71.004189
463.376373	740.426575	17506.912109	12675.968750	71.186897
463.731873	737.900391	17168.759766	12444.218750	71.245926
464.087341	737.157288	16846.804688	12239.218750	71.398590
464.442749	738.791931	16707.560547	12115.801758	71.245377
464.798126	736.042725	16581.619141	12028.125000	71.263313
465.153503	737.305847	16669.148438	12034.440430	70.909157
465.508820	732.847717	16696.119141	12055.320313	70.928268
465.864105	731.956055	16866.494141	12131.182617	70.651085
466.219330	733.293518	17083.458984	12330.461914	70.929977
466.574524	737.603210	17264.681641	12444.739258	70.836090
466.929657	737.008789	17440.556641	12578.781250	70.893761
467.284790	726.457703	17611.156250	12690.534180	70.857506
467.639893	726.011902	17824.033203	12856.155273	70.944717
467.994934	727.497986	18064.031250	13023.781250	70.927002
468.349945	730.767273	18167.312500	13116.363281	71.032394
468.704926	724.897278	18137.441406	13139.766602	71.298416
469.059875	722.296692	17953.542969	13042.653320	71.500092
469.414764	728.686768	17715.033203	12858.606445	71.409828
469.769653	737.008606	17569.474609	12719.585938	71.187294
470.124451	736.711487	17462.402344	12652.043945	71.239700
470.479248	726.754883	17337.720703	12557.234375	71.220901
470.834015	720.142029	17239.867188	12479.809570	71.185616
471.188721	718.284424	17281.177734	12493.481445	71.093849
471.543365	729.949951	17370.267578	12556.416992	71.071159
471.898010	734.779602	17473.548828	12670.026367	71.303017
472.252625	730.990173	17592.580078	12784.303711	71.483849
472.607178	727.126465	17859.103516	12976.227539	71.498474
472.961700	732.104675	18058.310547	13127.729492	71.542641
473.316193	734.110840	18326.392578	13308.583008	71.477211
473.670654	731.138733	18462.220703	13457.262695	71.772972
474.025055	715.237976	18722.503906	13613.075195	71.625740
474.379456	719.176025	18925.201172	13749.644531	71.572289
474.733795	722.816833	19097.732422	13864.739258	71.520996
475.088104	729.058289	19227.537109	13969.953125	71.578293
475.442383	729.801270	19241.134766	13999.003906	71.681503
475.796570	728.463867	19319.375000	14025.902344	71.526558
476.150787	724.154297	19460.029297	14132.377930	71.564438
476.504944	721.553711	19694.529297	14270.506836	71.411850
476.859070	719.027405	19943.890625	14446.231445	71.403389
477.213135	729.504089	20149.859375	14601.226563	71.428780
477.567200	728.761047	20533.259766	14889.151367	71.500885
477.921173	730.841553	20938.804688	15162.807617	71.417221
478.275146	725.417480	21413.748047	15500.366211	71.416832
478.629089	732.922058	21727.080078	15691.843750	71.252785
478.983002	730.990234	22106.099609	16012.237305	71.490852
479.336823	732.476257	22481.998047	16277.051758	71.470886
479.690643	733.070618	22834.267578	16582.806641	71.714378
480.044403	740.872498	23274.734375	16893.615234	71.682091
480.398163	744.364685	23805.923828	17291.134766	71.750443
480.751862	739.014893	24630.906250	17870.398438	71.703758
481.105499	733.813660	25573.955078	18592.769531	71.895546
481.459137	730.693054	26882.203125	19529.207031	71.883095
481.812744	728.463867	28476.146484	20672.056641	71.874809
482.166290	729.801331	30368.265625	22072.515625	72.010193
482.519806	727.200745	32700.031250	23798.195313	72.158127
482.873291	722.073914	35370.472656	25790.546875	72.351028
483.226715	724.525879	38597.812500	28085.609375	72.243759
483.580139	731.138733	41831.167969	30523.185547	72.486687
483.933502	734.259460	45228.140625	33065.597656	72.664680
484.286804	730.692932	48298.777344	35567.742188	73.236183
484.640106	722.222473	50963.199219	37732.851563	73.666222
484.993347	723.336975	52715.183594	39389.507813	74.369682
485.346558	723.262695	53484.062500	40115.968750	74.662827
485.699738	723.114075	53169.246094	40002.132813	74.894028
486.052887	728.612488	52069.859375	38993.917969	74.531311
486.405975	733.070618	50431.410156	37626.750000	74.235237
486.759064	737.825989	48609.285156	36007.691406	73.676186
487.112061	742.209900	46922.988281	34631.605469	73.384201
487.464996	735.225403	45817.656250	33607.562500	72.916069
487.817963	737.751770	45395.027344	33210.640625	72.715782
488.170868	730.841553	45394.281250	33160.710938	72.609428
488.523743	730.470032	45570.894531	33330.269531	72.701805
488.876587	724.451599	45644.160156	33351.222656	72.633537
489.229401	735.894104	45514.058594	33268.003906	72.651726
489.582153	741.912598	44882.042969	32800.269531	72.628601
489.934845	745.033386	43938.613281	32189.943359	72.799965
490.287537	734.333801	42786.925781	31338.509766	72.775955
490.640198	736.414307	41843.128906	30639.619141	72.745308
490.992798	737.751770	41058.496094	30036.650391	72.664574
491.345337	740.278015	40719.972656	29804.085938	72.696426
491.697876	733.219299	40690.031250	29713.955078	72.530151
492.050354	730.841553	41089.402344	29936.119141	72.364510
492.402832	721.033691	41526.449219	30176.712891	72.185715
492.755219	725.789063	41659.082031	30361.875000	72.400932
493.107605	724.748779	41330.292969	30171.291016	72.518532
493.459930	733.739441	40451.292969	29598.193359	72.674294
493.812225	728.315247	39116.964844	28547.328125	72.466774
494.164490	735.076843	37295.359375	27274.375000	72.590523
494.516724	737.603210	35251.144531	25820.568359	72.675720
494.868896	739.609375	33335.250000	24440.546875	72.711983
495.221039	735.745605	31802.234375	23279.265625	72.565392
495.573120	731.213074	30613.908203	22387.931641	72.472443
495.925201	731.361633	29866.125000	21861.345703	72.524986
496.277222	735.151123	29441.187500	21537.386719	72.466415
496.629211	732.922058	29299.568359	21421.697266	72.422836
496.981140	733.813721	29234.406250	21402.750000	72.521072
497.333069	730.544373	29304.400391	21446.291016	72.498955
497.684967	736.265686	29441.638672	21502.093750	72.341255
498.036804	733.665039	29584.000000	21551.505859	72.158051
498.388580	735.299622	29571.888672	21547.564453	72.173119
498.740326	730.692871	29440.890625	21517.250000	72.401299
499.092072	726.234802	29171.916016	21320.943359	72.400124
499.443756	716.872559	28899.744141	21129.166016	72.428009
499.795410	718.581543	28639.687500	20891.322266	72.249077
500.147003	724.674377	28323.677734	20683.572266	72.317459
500.498566	731.510254	27973.634766	20443.873047	72.359856
500.850098	730.470032	27541.568359	20148.148438	72.424034
501.201599	729.281189	27249.335938	19938.169922	72.431557
501.553009	728.166687	26901.896484	19704.041016	72.499695
501.904449	731.361633	26712.273438	19569.107422	72.506104
502.255859	735.671204	26468.931641	19389.294922	72.488380
502.607178	741.243958	26389.796875	19313.580078	72.410851
502.958405	736.117004	26255.162109	19225.607422	72.453690
503.309692	733.739441	26204.193359	19200.269531	72.501770
503.660919	720.959290	26203.005859	19160.146484	72.361488
504.012115	729.281189	26248.404297	19198.263672	72.373108
504.363251	722.519714	26323.375000	19264.318359	72.426483
504.714294	730.321472	26393.664063	19347.908203	72.545448
505.065369	725.120300	26468.189453	19387.513672	72.494827
505.416443	729.578430	26531.568359	19403.634766	72.374481
505.767395	730.247253	26572.509766	19424.216797	72.338745
506.118317	728.092346	26547.916016	19443.980469	72.486504
506.469238	730.915833	26550.888672	19478.533203	72.608971
506.820160	728.686829	26552.228516	19498.074219	72.683243
507.170929	729.801331	26610.851563	19532.699219	72.651215
507.521729	736.860107	26689.462891	19604.103516	72.698853
507.872498	738.717590	26752.398438	19655.001953	72.716675
508.223236	746.296448	26908.062500	19750.482422	72.641068
508.573883	737.454407	27086.240234	19864.314453	72.591049
508.924500	733.590637	27277.494141	20000.212891	72.583984
509.275116	723.708496	27426.248047	20153.423828	72.763550
509.625702	719.621826	27642.916016	20318.970703	72.796997
509.976196	725.491760	27922.515625	20513.273438	72.757156
510.326660	728.984070	28197.810547	20743.166016	72.861435
510.677124	733.293518	28402.513672	20889.466797	72.846916
511.027557	734.036621	28613.904297	21044.982422	72.851654
511.377869	731.956055	28846.693359	21158.517578	72.654289
511.728180	733.887939	28997.453125	21292.783203	72.739922
512.078430	733.516418	29124.882813	21387.890625	72.748787
512.428650	734.482361	29223.556641	21457.214844	72.739227
512.778931	735.374023	29363.468750	21525.646484	72.621925
513.129028	737.157288	29397.648438	21580.037109	72.723389
513.479126	737.900391	29478.859375	21614.511719	72.637146
513.829285	739.312073	29447.951172	21623.205078	72.744278
514.179382	737.603027	29462.960938	21613.398438	72.673752
514.529297	741.838379	29363.693359	21585.683594	72.824928
514.879272	744.438965	29396.681641	21617.484375	72.849602
515.229187	742.507141	29292.955078	21545.560547	72.864189
515.579163	739.089172	29336.869141	21561.312500	72.810631
515.928955	735.745544	29338.726563	21556.259766	72.791412
516.278748	736.414307	29523.814453	21716.308594	72.878738
516.628540	735.745605	29762.031250	21909.125000	72.945534
516.978333	731.807556	30155.759766	22197.865234	72.954369
517.327942	729.355469	30661.318359	22561.724609	72.939987
517.677612	725.491760	31214.724609	22949.658203	72.891853
518.027222	729.132568	31768.796875	23344.578125	72.859825
518.376831	726.829163	32445.771484	23829.625000	72.835960
518.726379	732.773438	33130.621094	24321.583984	72.809807
519.075867	729.355469	33703.269531	24726.533203	72.776245
519.425293	738.420471	34199.460938	25056.585938	72.676064
519.774658	736.265625	34453.503906	25288.187500	72.817123
520.124084	735.374023	34636.285156	25459.455078	72.930435
520.473389	731.807434	34447.335938	25390.205078	73.136627
520.822693	728.835449	34182.144531	25186.914063	73.111092
521.171997	733.739441	33754.390625	24886.062500	73.143082
521.521240	735.299622	33337.179688	24579.634766	73.137917
521.870361	737.157227	32927.621094	24284.505859	73.150070
522.219482	733.070618	32541.771484	24041.984375	73.278419
522.568604	737.751709	32227.392578	23819.966797	73.300980
522.917664	745.181946	32033.166016	23666.156250	73.258072
523.266724	748.005432	32038.888672	23639.630859	73.157494
523.615662	738.346130	32213.203125	23761.787109	73.148674
523.964600	732.104675	32581.517578	24023.181641	73.128746
524.313538	731.881836	33048.214844	24364.234375	73.128197
524.662354	732.401917	33666.929688	24814.953125	73.122505
525.011169	740.278015	34429.574219	25413.908203	73.238785
525.359985	741.392578	35400.566406	26108.265625	73.189499
525.708740	742.209900	36578.562500	26972.259766	73.193977
526.057434	732.773438	37868.308594	27914.712891	73.196571
526.406067	730.915833	39320.261719	29018.927734	73.305237
526.754700	726.531982	40861.144531	30224.935547	73.498665
527.103333	727.126404	42628.214844	31606.593750	73.696098
527.451782	720.513489	44585.566406	33180.253906	73.999084
527.800293	726.309082	46703.792969	34799.753906	74.108978
528.148743	725.343079	48831.375000	36537.394531	74.443993
528.497131	727.275085	50810.730469	38191.003906	74.802605
528.845642	726.234680	52506.312500	39784.351563	75.430779
529.193909	730.915833	53910.261719	41226.050781	76.148239
529.542175	736.785828	54959.191406	42391.339844	76.821663
529.890503	735.522644	55554.355469	43158.660156	77.387886
530.238770	733.367920	55617.519531	43312.839844	77.580635
530.586914	727.869446	55199.265625	42883.593750	77.390572
530.934998	733.888000	54266.921875	41856.578125	76.817413
531.283142	736.265625	52922.113281	40457.011719	76.114021
531.631226	733.665039	51090.777344	38713.128906	75.420258
531.979248	728.983948	49128.292969	36971.695313	74.882706
532.327148	730.767273	47236.843750	35300.777344	74.334396
532.675110	740.055115	45791.355469	34058.433594	73.956528
533.023071	737.751709	44954.332031	33351.816406	73.759804
533.370850	730.841614	44613.433594	33115.609375	73.798660
533.718689	726.903564	44792.425781	33238.578125	73.780296
534.066467	728.018066	45085.550781	33438.527344	73.742851
534.414246	728.984070	45349.105469	33571.378906	73.604446
534.761963	738.494812	45382.468750	33621.609375	73.656334
535.109619	743.770203	45253.925781	33546.414063	73.696991
535.457153	750.308899	44795.843750	33231.890625	73.745461
535.804749	735.968506	44069.761719	32708.427734	73.781815
536.152344	736.414307	43134.136719	32038.291016	73.829147
536.499817	727.275085	42194.804688	31300.468750	73.728027
536.847229	728.315247	41231.546875	30552.757813	73.634727
537.194641	724.154358	40327.281250	29825.484375	73.482407
537.542114	730.024231	39641.023438	29360.275391	73.578812
537.889404	737.380188	39143.042969	28975.833984	73.526794
538.236694	726.383362	38791.964844	28709.384766	73.512611
538.583984	726.754883	38457.675781	28496.728516	73.600037
538.931213	721.405090	38249.035156	28358.447266	73.644524
539.278381	730.990173	38049.308594	28243.353516	73.723480
539.625488	729.355530	37956.949219	28141.708984	73.634506
539.972595	724.674500	38034.824219	28234.291016	73.732262
540.319641	723.336975	38494.386719	28531.650391	73.623352
540.666687	726.011902	39265.050781	29096.720703	73.615509
541.013611	728.686768	40372.753906	29877.867188	73.527222
541.360596	733.442200	41650.613281	30846.921875	73.596191
541.707458	724.377197	43123.292969	31848.968750	73.408936
542.054260	730.990234	44394.984375	32886.535156	73.643166
542.401062	723.485657	45575.953125	33850.609375	73.857971
542.747864	727.200745	46334.511719	34540.585938	74.140274
543.094666	717.467041	46647.250000	34831.406250	74.274117
543.441284	717.318542	46362.222656	34587.101563	74.202766
543.787903	719.696106	45553.957031	34041.199219	74.321518
544.134460	724.154297	44453.167969	33113.527344	74.068382
544.481079	732.253357	43027.292969	32054.193359	74.055824
544.827637	728.018066	41479.121094	30816.310547	73.834305
545.174072	734.110901	39788.363281	29577.015625	73.853424
545.520508	730.544434	38336.265625	28474.509766	73.775909
545.866943	730.692932	37083.968750	27547.064453	73.766037
546.213318	729.429749	36236.027344	26898.548828	73.702133
546.559631	732.847656	35457.035156	26313.490234	73.668083
546.905823	737.082947	34814.988281	25845.384766	73.679123
547.252136	744.736145	34274.878906	25391.916016	73.507523
547.598389	736.711426	33827.800781	25027.162109	73.404808
547.944458	737.677429	33484.000000	24770.000000	73.389381
548.290588	729.504150	32998.953125	24446.486328	73.496704
548.636658	733.070618	32481.287109	24090.875000	73.572021
548.982727	729.281189	31853.130859	23593.640625	73.462502
549.328735	723.931396	31224.828125	23112.828125	73.404060
549.674622	721.330811	30495.101563	22580.968750	73.419113
550.020569	729.281189	29762.625000	22080.169922	73.539200
550.366455	732.624817	28981.255859	21526.240234	73.609283
550.712280	738.494690	28259.107422	21014.964844	73.677391
551.058044	736.562927	27687.125000	20590.177734	73.666794
551.403748	740.203796	27234.101563	20254.773438	73.656845
551.749512	729.875671	26914.525391	20011.802734	73.638283
552.095154	723.634094	26700.162109	19816.685547	73.501167
552.440735	728.538147	26602.453125	19773.812500	73.608009
552.786316	735.002441	26620.658203	19741.861328	73.426224
553.131897	740.798096	26634.626953	19785.031250	73.547379
553.477417	729.801270	26668.656250	19799.966797	73.519691
553.822815	724.823059	26664.197266	19828.425781	73.647125
554.168213	717.987244	26636.412109	19812.226563	73.670525
554.513672	715.906738	26573.994141	19768.908203	73.682953
554.859009	723.262695	26448.275391	19653.142578	73.585503
555.204285	727.795105	26300.041016	19519.177734	73.483505
555.549500	732.922058	26112.056641	19331.634766	73.283478
555.894714	731.584534	25870.423828	19208.589844	73.499832
556.239990	726.457703	25560.431641	18998.462891	73.576645
556.585022	728.315247	25300.671875	18848.369141	73.741623
556.930115	725.640381	25027.906250	18599.011719	73.546112
557.275146	727.497986	24797.937500	18422.244141	73.512352
557.620178	730.470032	24524.208984	18223.857422	73.520966
557.965149	736.265625	24315.712891	18162.406250	73.903938
558.310059	741.466858	24132.187500	18061.505859	74.046623
558.654968	746.965271	23998.146484	17958.373047	74.023804
558.999756	743.844543	23885.054688	17803.822266	73.721199
559.344604	740.278015	23818.779297	17718.375000	73.566727
559.689331	730.024231	23758.218750	17630.177734	73.388962
560.033997	733.442200	23716.460938	17600.753906	73.390327
560.378723	731.658875	23706.802734	17570.884766	73.293236
560.723389	728.686768	23692.388672	17579.132813	73.378616
561.067932	725.343079	23742.171875	17614.500000	73.377426
561.412476	719.919006	23705.541016	17634.486328	73.587601
561.757019	722.371033	23691.572266	17662.500000	73.751495
562.101501	718.804504	23686.593750	17629.435547	73.627594
562.445862	723.485596	23697.812500	17599.789063	73.457230
562.790222	717.838623	23712.671875	17579.876953	73.329681
563.134644	719.770508	23664.302734	17598.376953	73.562653
563.478943	726.234802	23680.646484	17652.171875	73.737183
563.823181	736.042786	23660.806641	17658.412109	73.816986
564.167358	740.575195	23717.279297	17681.076172	73.729027
564.511536	737.454529	23745.515625	17675.501953	73.617882
564.855774	738.420410	23780.509766	17713.322266	73.669106
565.199768	726.977844	23844.781250	17734.720703	73.569893
565.543823	725.640381	23940.115234	17815.191406	73.615929
565.887817	719.250305	24158.416016	17960.007813	73.555336
566.231812	724.971619	24335.775391	18105.716797	73.613525
566.575745	727.126404	24555.859375	18275.869141	73.645302
566.919617	718.135742	24745.779297	18420.460938	73.674820
567.263428	711.225647	24902.705078	18544.474609	73.717064
567.607239	711.374207	25003.607422	18651.320313	73.850540
567.950989	717.689941	25040.240234	18689.437500	73.889244
568.294678	733.590759	25120.562500	18733.351563	73.808922
568.638367	731.881836	25073.525391	18676.435547	73.719566
568.981995	743.324402	24971.435547	18560.224609	73.538132
569.325623	741.689758	24779.806641	18445.056641	73.647064
569.669128	740.129395	24643.166016	18310.640625	73.507446
570.012573	728.315247	24510.460938	18242.951172	73.646156
570.356140	721.702332	24422.041016	18151.115234	73.540771
570.699524	722.816895	24351.525391	18116.490234	73.612457
571.042908	729.801270	24393.658203	18135.435547	73.553665
571.386230	737.305969	24487.724609	18199.783203	73.524925
571.729492	739.014893	24679.054688	18334.417969	73.497803
572.072815	735.596924	24842.593750	18462.738281	73.535255
572.416016	732.550537	24971.656250	18580.359375	73.632294
572.759094	728.463867	25106.814453	18698.576172	73.713409
573.102234	729.132568	25199.990234	18763.072266	73.695580
573.445374	729.652649	25292.794922	18818.501953	73.642242
573.788391	734.631042	25294.501953	18811.740234	73.604248
574.131409	738.123230	25290.119141	18828.830078	73.683243
574.474365	741.392578	25272.287109	18798.515625	73.609718
574.817261	737.528809	25162.689453	18714.181641	73.598915
575.160156	740.129395	24992.091797	18565.949219	73.502586
575.502930	734.854004	24784.562500	18411.474609	73.500351
575.845703	735.745605	24590.859375	18283.447266	73.559494
576.188477	738.494812	24387.490234	18107.275391	73.444054
576.531250	738.048889	24112.867188	17942.546875	73.602699
576.873901	741.838379	23848.275391	17729.744141	73.520233
577.216431	736.711487	23600.255859	17565.310547	73.604507
577.559082	735.448425	23377.345703	17367.146484	73.455406
577.901611	730.024231	23079.166016	17161.404297	73.521301
578.244080	729.801270	22759.890625	16955.880859	73.654175
578.586487	729.206848	22433.179688	16735.052734	73.746155
578.928955	797.045349	22146.890625	16592.169922	73.982384
579.271301	800.388916	21777.458984	16324.976563	74.007416
579.613647	802.617981	21387.443359	16046.934570	74.056084
579.955872	737.380188	20994.751953	15667.249023	73.700920
580.298157	731.361633	20723.623047	15436.166992	73.552490
580.640320	732.104675	20454.572266	15267.648438	73.700432
580.982483	728.166687	20238.574219	15121.049805	73.770279
581.324524	732.253235	20023.542969	14976.753906	73.839035
581.666626	728.761047	19899.679688	14853.708008	73.679031
582.008728	735.745605	19794.171875	14791.665039	73.751740
582.350647	728.761047	19709.167969	14709.561523	73.659126
582.692566	729.727051	19622.904297	14646.106445	73.658226
583.034424	728.463867	19510.111328	14603.457031	73.875267
583.376343	731.435974	19364.923828	14580.719727	74.324699
583.718201	731.733215	19282.820313	14534.875000	74.406105
584.059937	731.064453	19200.046875	14434.120117	74.194969
584.401611	727.572205	19140.902344	14352.015625	73.992287
584.743347	732.922058	19049.212891	14278.828125	73.955505
585.085022	729.652649	18964.361328	14230.011719	74.036606
585.426514	732.401917	18878.837891	14170.346680	74.052803
585.768127	729.281250	18775.332031	14106.148438	74.126289
586.109619	729.281250	18713.435547	14021.592773	73.911240
586.451172	732.624817	18675.023438	13968.987305	73.771423
586.792542	727.720886	18636.310547	13939.487305	73.773346
587.133850	733.962219	18577.613281	13948.627930	74.058083
587.475220	728.463867	18560.152344	13921.504883	73.986496
587.816589	729.801331	18608.966797	13934.062500	73.852776
588.157776	723.485657	18645.078125	13952.043945	73.813522
588.498962	729.206848	18694.859375	14021.665039	73.988174
588.840210	731.510254	18665.513672	14030.062500	74.152725
589.181335	738.420410	18747.320313	14081.703125	74.092712
589.522400	739.832214	18802.154297	14093.293945	73.929932
589.863403	738.123230	18871.851563	14116.773438	73.777718
590.204407	737.083008	18850.228516	14113.801758	73.850891
590.545410	729.801270	18881.287109	14158.458008	73.981026
590.886353	730.172852	18905.361328	14182.979492	74.017433
591.227112	730.024231	18919.033203	14155.041992	73.808403
591.567932	727.943848	18868.208984	14111.499023	73.778160
591.908752	726.234863	18819.392578	14076.651367	73.787094
592.249512	723.188416	18784.619141	14078.210938	73.942215
592.590149	732.179016	18671.308594	13983.028320	73.865623
592.930786	741.541199	18546.035156	13931.016602	74.079475
593.271423	744.290344	18449.142578	13855.971680	74.056999
593.612000	739.757874	18403.373047	13812.726563	74.010719
593.952576	730.915833	18387.250000	13790.510742	73.965492
594.292969	724.080017	18392.673828	13789.471680	73.946983
594.633484	726.606262	18451.593750	13830.485352	73.928841
594.973877	729.206848	18548.857422	13873.061523	73.760452
595.314209	729.652771	18685.052734	13955.090820	73.657166
595.654480	725.417480	18847.628906	14102.135742	73.813942
595.994812	729.727051	19050.697266	14236.327148	73.722076
596.335022	725.937561	19240.021484	14385.600586	73.779846
596.675171	729.875549	19390.708984	14496.757813	73.774208
597.015320	722.965393	19559.001953	14595.135742	73.646965
597.355408	730.767273	19718.529297	14673.078125	73.427879
597.695496	732.327637	19851.236328	14751.690430	73.327217
598.035461	730.172852	19859.408203	14801.770508	73.560692
598.375366	730.172852	19833.550781	14806.303711	73.683983
598.715271	727.720886	19771.804688	14756.742188	73.666031
599.055176	735.374023	19595.113281	14640.831055	73.730911
599.395081	734.556641	19376.960938	14497.352539	73.825218
599.734802	732.773438	19085.544922	14296.437500	73.905266
600.074524	731.064514	18749.474609	14054.953125	73.945976
600.414246	735.448303	18356.634766	13786.051758	74.062004
600.753906	734.853943	17994.410156	13499.020508	73.954201
601.093506	737.157227	17678.548828	13261.996094	73.930405
601.433044	736.562805	17416.781250	13065.688477	73.914658
601.772583	739.757813	17216.683594	12952.375977	74.119522
602.112122	740.798096	17199.148438	12873.391602	73.716949
602.451538	737.008606	17241.128906	12891.077148	73.642624
602.790894	730.098633	17330.291016	12966.940430	73.715065
603.130310	720.587830	17451.404297	13113.539063	74.072601
603.469604	710.631287	17605.064453	13250.627930	74.225616
603.808838	715.163757	17861.333984	13436.606445	74.194077
604.148010	715.535217	18121.244141	13611.070313	74.087959
604.487305	717.095520	18413.626953	13801.136719	73.935623
604.826416	714.792175	18645.525391	13964.602539	73.894417
605.165527	714.569153	18881.957031	14124.129883	73.811165
605.504456	716.723938	19060.580078	14267.906250	73.873146
605.843445	717.689941	19186.595703	14352.686523	73.826767
606.182434	723.931396	19228.650391	14392.809570	73.866989
606.521423	726.383484	19161.630859	14337.898438	73.834183
606.860229	723.931458	18998.833984	14235.583008	73.935562
607.199036	718.953125	18767.158203	14079.028320	74.024399
607.537903	721.999512	18534.068359	13895.872070	73.960381
607.876648	732.401917	18237.826172	13671.627930	73.915520
608.215271	735.968445	17940.093750	13435.640625	73.817596
608.553955	735.374023	17650.091797	13241.041992	73.933647
608.892578	732.401917	17429.041016	13063.085938	73.851295
609.231140	736.860107	17280.658203	12973.477539	73.964981
609.569641	736.785828	17183.619141	12894.567383	73.921715
609.908081	739.014832	17158.802734	12880.153320	73.942123
610.246521	733.887939	17133.837891	12875.324219	74.033379
610.584961	739.534912	17182.951172	12905.937500	73.989510
610.923340	736.339905	17233.031250	12904.301758	73.760017
611.261597	742.507080	17194.021484	12858.234375	73.645065
611.599854	740.278015	17100.548828	12813.355469	73.795097
611.938110	735.374023	16970.146484	12761.046875	74.073555
612.276245	732.401917	16797.986328	12649.963867	74.180695
612.614319	724.823059	16503.005859	12450.981445	74.318817
612.952393	725.194519	16166.414063	12215.070313	74.410416
613.290466	720.810730	15868.237305	11983.914063	74.356544
613.628479	727.572266	15576.895508	11728.683594	74.084930
613.966370	740.872375	15315.203125	11488.018555	73.740242
614.304260	742.729980	15034.338867	11287.995117	73.786407
614.642151	741.541199	14819.456055	11136.640625	73.839767
614.979980	725.268860	14630.726563	11026.003906	74.076920
615.317749	725.417480	14506.565430	10936.320313	74.093262
615.655396	725.343201	14423.049805	10834.823242	73.804184
615.993164	727.869446	14358.554688	10774.711914	73.707535
616.330811	718.507324	14298.815430	10713.040039	73.595772
616.668396	713.380371	14237.738281	10702.860352	73.862885
617.005859	719.027344	14179.782227	10686.811523	74.050705
617.343445	728.389587	14173.690430	10679.157227	74.009262
617.680908	727.646545	14197.391602	10672.248047	73.829170
618.018311	726.383362	14223.843750	10690.452148	73.821800
618.355652	731.361633	14215.223633	10730.055664	74.153046
618.692993	738.420471	14211.657227	10722.328125	74.101776
619.030273	737.603088	14227.558594	10718.167969	73.985161
619.367554	733.293518	14280.165039	10704.272461	73.603554
619.704712	733.665039	14295.695313	10725.077148	73.671951
620.041870	734.556702	14257.799805	10725.152344	73.877220
620.379028	732.624817	14173.317383	10694.613281	74.118118
620.716064	734.036621	14117.144531	10655.530273	74.134460
621.053040	728.166687	14069.887695	10601.586914	74.004097
621.389954	734.705261	14025.382813	10516.807617	73.601234
621.726929	732.030334	13949.073242	10465.018555	73.639679
622.063843	732.253357	13883.463867	10398.740234	73.502640
622.400635	721.999512	13824.616211	10378.009766	73.695274
622.737427	722.148132	13785.383789	10361.514648	73.790039
623.074219	725.640381	13766.437500	10332.090820	73.664597
623.410889	729.949951	13719.922852	10306.084961	73.719437
623.747559	728.835449	13670.140625	10271.831055	73.740601
624.084167	731.881836	13607.875000	10253.330078	73.947289
624.420715	730.098572	13586.178711	10260.166016	74.128876
624.757324	726.977844	13596.358398	10249.317383	73.992210
625.093750	722.668274	13611.590820	10275.843750	74.119270
625.430176	718.210144	13643.614258	10294.196289	74.086548
625.766602	726.977844	13658.622070	10344.424805	74.371414
626.102905	722.222473	13729.285156	10398.666016	74.393761
626.439209	723.708496	13829.221680	10457.364258	74.271461
626.775452	716.129700	13960.589844	10547.196289	74.227760
627.111694	719.027405	14049.010742	10585.537109	74.017418
627.447876	725.789001	14134.903320	10656.793945	74.061600
627.783997	730.395691	14174.804688	10666.006836	73.901436
628.120056	727.869446	14260.921875	10735.182617	73.947197
628.456055	730.247131	14262.036133	10734.143555	73.928856
628.792053	730.321472	14276.375977	10734.365234	73.852089
629.128052	732.104675	14174.953125	10692.086914	74.091309
629.463928	735.002625	14098.273438	10608.942383	73.888641
629.799744	730.024231	13989.940430	10525.203125	73.870590
630.135559	733.442200	13877.965820	10432.770508	73.789879
630.471375	728.240967	13722.375000	10343.532227	73.997169
630.807068	732.030457	13523.467773	10226.581055	74.225830
631.142700	731.881836	13382.812500	10094.172852	74.004761
631.478333	729.504150	13229.004883	9978.260742	73.993011
631.813965	729.949951	13121.860352	9881.295898	73.849358
632.149475	730.990234	12980.090820	9806.547852	74.091621
632.484924	736.711487	12904.747070	9756.616211	74.127861
632.820435	734.705322	12830.593750	9670.647461	73.875862
633.155884	738.271790	12780.141602	9589.137695	73.500763
633.491150	739.460693	12724.934570	9534.375977	73.379784
633.826477	739.906494	12634.583008	9489.497070	73.558876
634.161804	735.596924	12549.135742	9461.411133	73.862831
634.497009	730.395813	12457.445313	9390.005859	73.843040
634.832153	728.835449	12393.397461	9326.328125	73.706085
635.167297	733.516541	12338.264648	9258.713867	73.463013
635.502380	737.528809	12270.574219	9227.654297	73.615639
635.837463	740.723816	12204.000000	9190.131836	73.708496
636.172424	737.677429	12114.984375	9132.473633	73.785439
636.507324	734.631042	12030.278320	9056.833008	73.676186
636.842224	737.454529	11902.477539	8988.995117	73.905273
637.177124	733.070618	11767.620117	8912.314453	74.123947
637.511963	725.045898	11647.992188	8822.408203	74.131668
637.846741	719.993408	11529.702148	8739.783203	74.190620
638.181396	714.494934	11426.049805	8646.904297	74.054695
638.516113	714.643616	11306.570313	8566.805664	74.133461
638.850769	718.507324	11224.911133	8490.869141	73.977371
639.185303	722.445313	11119.179688	8416.938477	74.008751
639.519836	727.497986	11047.105469	8358.907227	73.950577
639.854370	724.971680	10943.007813	8265.063477	73.791985
640.188843	730.024170	10866.772461	8216.617188	73.855965
640.523254	731.733215	10762.600586	8148.853027	73.942955
640.857605	731.213074	10663.481445	8087.627441	74.065804
641.191895	729.355469	10588.063477	8012.359375	73.873817
641.526184	729.206848	10523.569336	7945.561035	73.678650
641.860413	734.185242	10488.125977	7912.421875	73.593201
642.194580	732.104675	10429.426758	7886.416504	73.776161
642.528748	729.206848	10351.631836	7831.135254	73.806015
642.862793	727.200745	10273.911133	7795.841309	74.042686
643.196838	730.321472	10221.602539	7730.975098	73.758789
643.530823	732.030457	10177.837891	7714.479980	73.921150
643.864746	723.262695	10138.458008	7675.768066	73.843452
644.198669	730.395752	10082.285156	7649.167969	73.982613
644.532532	730.247131	10023.585938	7600.945313	73.931427
644.866333	737.305908	9978.038086	7571.893066	73.961525
645.200073	736.562927	9941.109375	7538.382813	73.896301
645.533813	740.798157	9943.413086	7532.289551	73.799576
645.867554	741.318298	9929.370117	7518.543457	73.761284
646.201172	737.900330	9927.883789	7525.825684	73.862213
646.534729	742.729980	9908.713867	7524.859375	73.992371
646.868225	740.278015	9931.524414	7553.688965	74.129349
647.201782	737.380188	9905.444336	7549.007813	74.297333
647.535217	730.841614	9930.929688	7573.973145	74.381149
647.868591	740.872498	9939.178711	7562.976563	74.166954
648.201965	748.079773	9970.236328	7556.884277	73.830940
648.535278	747.262451	9943.933594	7518.172363	73.623489
648.868591	735.596985	9924.540039	7500.116699	73.615860
649.201782	724.302917	9884.937500	7483.918457	73.789818
649.534912	723.485657	9870.968750	7471.509766	73.769188
649.868103	719.919128	9823.117188	7442.903809	73.852997
650.201172	726.977783	9800.231445	7425.591309	73.828125
650.534180	729.949890	9748.591797	7394.978027	73.902794
650.867188	743.547363	9723.848633	7376.179688	73.857574
651.200134	737.454407	9680.083984	7362.656738	74.085609
651.533020	730.098450	9632.009766	7351.511719	74.381927
651.865845	731.510254	9583.936523	7304.329590	74.248795
652.198608	737.157288	9553.398438	7256.849609	73.950928
652.531433	746.147949	9514.315430	7221.853027	73.854713
652.864136	735.225403	9462.005859	7198.744629	74.065338
653.196777	1034.145264	9759.588867	7496.475098	74.063057
653.529358	1049.080078	9734.844727	7457.689453	73.782906
653.861938	1052.498047	9686.919922	7420.314941	73.749199
654.194519	757.516296	9288.433594	7052.665527	73.792175
654.526978	739.014893	9224.310547	7023.167480	74.059319
654.859375	734.779602	9177.722656	6999.167480	74.196724
655.191833	734.556641	9124.001953	6970.857910	74.335083
655.524170	733.367859	9082.243164	6918.177246	74.079559
655.856445	736.711426	9039.223633	6866.611816	73.831879
656.188660	740.500916	9016.263672	6850.414063	73.829002
656.520874	743.472961	8991.372070	6832.283691	73.822563
656.853088	739.014893	8974.653320	6834.438965	74.012764
657.185181	731.138733	8973.465820	6810.066895	73.752571
657.517212	729.429871	8993.081055	6829.757324	73.821213
657.849243	735.448303	9005.935547	6853.831543	73.978508
658.181274	730.990173	9027.631836	6902.351563	74.383850
658.513123	727.200684	9069.687500	6932.741699	74.384789
658.844971	732.476257	9149.340820	6968.555176	74.090286
659.176819	732.699158	9224.906250	7016.257324	73.992050
659.508667	735.374023	9289.400391	7069.085938	74.043633
659.840393	727.126404	9372.025391	7109.953125	73.833443
660.172058	729.652771	9444.397461	7148.665527	73.656921
660.503662	732.699219	9503.020508	7194.658691	73.679848
660.835266	729.801331	9535.565430	7238.720215	73.916573
661.166931	735.151123	9495.813477	7219.921387	74.021469
661.498413	734.928223	9468.321289	7181.580566	73.816132
661.829773	738.197510	9392.977539	7124.442871	73.788643
662.161194	734.556702	9293.709961	7047.390625	73.755356
662.492615	728.166687	9160.930664	6940.914551	73.673927
662.823975	733.219238	8978.294922	6810.216309	73.704559
663.155212	734.853943	8839.200195	6696.979004	73.567009
663.486450	745.479187	8660.725586	6595.035156	73.902390
663.817627	748.005554	8515.612305	6491.234375	73.938202
664.148743	754.469910	8368.715820	6405.489746	74.216408
664.479858	746.147949	8266.327148	6317.068848	74.079628
664.810913	743.250183	8183.404297	6250.567871	74.021553
665.141907	735.448303	8119.727051	6174.259277	73.653923
665.472778	738.791931	8027.517578	6120.687012	73.838631
665.803711	746.965271	7964.657715	6091.560059	74.048523
666.134583	749.268616	7915.988770	6062.878906	74.142845
666.465454	749.045715	7897.264160	6045.640625	74.096710
666.796143	743.844543	7862.861816	5994.817871	73.759804
667.126831	744.587585	7848.894043	5987.164551	73.794350
667.457458	747.113831	7827.865723	5957.963379	73.591751
667.788147	738.866272	7812.782715	5952.836426	73.706978
668.118774	735.448303	7773.848145	5935.673340	73.883629
668.449219	736.117004	7765.303223	5928.911621	73.874763
668.779663	744.290344	7767.531738	5927.277344	73.797646
669.110107	739.312073	7762.033691	5905.654785	73.566101
669.440552	731.064453	7736.770996	5886.484375	73.588867
669.770874	726.457703	7685.947754	5856.688965	73.715622
670.101135	726.977783	7647.459473	5836.701660	73.834801
670.431396	731.584534	7605.924316	5813.816406	73.930473
670.761597	728.463867	7573.899902	5792.417480	73.975616
671.091797	729.801270	7545.070313	5775.476563	74.034866
671.421875	724.748779	7489.268066	5753.779785	74.344246
671.751892	723.857117	7467.645996	5734.757813	74.303940
672.081909	729.652649	7449.145020	5712.765137	74.159058
672.411865	728.240967	7412.513672	5684.083984	74.141846
672.741821	735.596924	7367.561035	5633.558594	73.853867
673.071716	733.145020	7306.707031	5591.874512	73.913193
673.401550	744.216064	7287.685547	5550.115723	73.445732
673.731262	733.665039	7238.570801	5530.648438	73.744087
674.060974	727.274963	7200.602051	5499.218750	73.717018
674.390625	722.742615	7193.617676	5492.085449	73.704758
674.720276	724.228577	7170.806641	5476.853027	73.723213
675.049927	735.002502	7135.810059	5453.596680	73.718735
675.379395	733.293518	7056.306152	5405.077637	73.885414
675.708923	737.157227	6995.824219	5357.226074	73.818733
676.038330	729.652649	6937.273438	5318.217285	73.918251
676.367737	731.584534	6894.994629	5293.325684	74.013268
676.697083	736.265625	6859.404297	5281.362793	74.228226
677.026428	742.655762	6824.407715	5256.248535	74.215340
677.355652	737.454529	6804.271973	5239.753906	74.211884
677.684875	735.299744	6808.878418	5246.292480	74.272400
678.013977	731.213074	6827.231934	5250.824707	74.140381
678.343079	734.705322	6847.292969	5255.431641	73.957657
678.672180	729.355469	6846.029785	5240.051270	73.744255
679.001221	726.383362	6865.720215	5247.704590	73.645111
679.330139	726.531982	6897.149902	5270.144043	73.633018
679.659058	731.064453	6932.592285	5290.056641	73.514015
679.987976	732.847839	6975.464844	5328.545410	73.618126
680.316772	732.030457	7015.514160	5364.433594	73.723488
680.645630	728.018066	7062.102051	5402.922363	73.805534
680.974304	729.355530	7087.142090	5418.005859	73.746582
681.302979	729.578430	7110.398926	5436.729980	73.770317
681.631653	726.606262	7145.395996	5442.005371	73.462433
681.960266	719.473206	7175.414063	5463.181641	73.478188
682.288757	721.330811	7194.360840	5473.064453	73.408173
682.617249	728.166687	7185.890137	5474.996094	73.506233
682.945679	732.624817	7172.664551	5472.023926	73.592697
683.274109	732.847717	7138.187988	5445.349121	73.571442
683.602478	729.875671	7092.269043	5431.306152	73.894058
683.930725	727.795105	7037.062012	5372.903809	73.623589
684.259033	727.572205	6956.740723	5318.737793	73.704308
684.587280	727.720764	6865.126465	5244.211914	73.589584
684.915344	737.603088	6772.395996	5201.636230	73.971603
685.243469	736.340027	6707.826660	5160.472656	74.087624
685.571533	739.386414	6649.053223	5104.225098	73.859306
685.899536	730.692932	6582.329590	5057.340332	73.939102
686.227539	724.080078	6506.763672	5012.609863	74.161583
686.555420	720.067688	6462.479004	4988.609863	74.333618
686.883301	714.569153	6441.748535	4971.223145	74.323738
687.211121	716.723938	6441.451660	4974.790039	74.380234
687.538940	713.826172	6452.968750	4977.539063	74.291809
687.866638	723.188416	6461.735840	4990.170410	74.356483
688.194336	725.120300	6476.002441	4976.424316	73.924385
688.521973	728.612488	6473.104004	4976.201660	73.941956
688.849609	728.983948	6435.284668	4949.229980	73.957649
689.177063	737.305908	6396.201172	4925.750488	74.015228
689.504578	740.946716	6342.851563	4892.239746	74.105026
689.832031	738.643372	6295.966797	4857.688965	74.119232
690.159485	735.968506	6205.392090	4803.150879	74.362175
690.486816	730.841553	6133.838379	4744.971680	74.294510
690.814087	737.231628	6075.287598	4687.387207	73.999886
691.141296	729.801331	5997.864746	4627.499512	73.987305
691.468506	730.470154	5878.756348	4555.128418	74.289932
691.795715	723.039795	5775.179199	4477.481934	74.313904
692.122803	728.166687	5709.421387	4409.495117	73.903633
692.449829	737.751648	5676.951172	4369.371582	73.526482
692.776855	746.742371	5615.726074	4319.811523	73.384285
693.103821	746.073547	5542.982910	4274.858398	73.563721
693.430664	733.739441	5460.878418	4216.456543	73.674942
693.757568	726.383484	5392.816895	4177.001953	73.945518
694.084351	724.897400	5340.953613	4145.273926	74.097374
694.411133	731.733215	5305.362793	4122.909668	74.146294
694.737854	735.522644	5260.781250	4093.559570	74.206512
695.064575	737.380188	5249.041016	4075.727295	73.993759
695.391174	731.956055	5217.388184	4056.928711	74.128258
695.717773	725.417480	5205.797363	4051.653076	74.240036
696.044250	721.033630	5184.546875	4031.294189	74.162666
696.370789	723.485596	5194.800781	4033.894531	74.036575
696.697205	722.371094	5208.917969	4032.037109	73.768669
697.023621	730.618652	5264.273926	4059.826172	73.433189
697.349915	733.962219	5302.836426	4102.550293	73.729065
697.676208	739.757874	5381.226074	4157.237305	73.629280
698.002380	735.448303	5442.823242	4204.270996	73.689110
698.328674	738.866211	5535.552734	4256.728516	73.339424
698.654724	739.980774	5632.889160	4328.356445	73.338303
698.980896	737.454529	5748.429688	4405.928223	73.208778
699.306946	733.888000	5836.479004	4474.807129	73.314110
699.632935	730.247131	5906.397949	4523.400879	73.281364
699.958862	731.956116	5944.589355	4558.100098	73.401367
700.284729	725.863281	5948.601563	4548.144043	73.185379
700.610596	723.559875	5908.701172	4536.701172	73.539780
700.936340	724.228699	5846.583984	4491.896484	73.553421
701.262146	727.572266	5760.244141	4421.309082	73.395142
701.587830	730.098572	5638.462402	4306.882813	72.871216
701.913513	734.779602	5479.900391	4204.865234	73.129555
702.239075	728.092468	5337.313477	4115.181641	73.485062
702.564697	729.652771	5215.531250	4034.934814	73.681931
702.890137	727.943665	5078.145020	3946.737549	73.991844
703.215698	735.968445	4946.554688	3866.936523	74.359428
703.541016	735.968445	4843.645508	3803.184814	74.670334
703.866455	734.333801	4767.856934	3731.854248	74.315193
704.191711	736.414307	4708.340332	3673.526611	73.946800
704.517029	738.940613	4631.437012	3592.090820	73.298721
704.842163	736.860046	4569.542969	3561.923828	73.709824
705.167419	733.516418	4529.122559	3531.533936	73.717278
705.492493	728.983948	4490.113281	3508.871338	73.910973
705.817566	730.618652	4453.927734	3467.559570	73.508293
706.142578	736.860046	4414.918945	3443.188232	73.580338
706.467590	750.754700	4403.476563	3438.358643	73.578117
706.792480	753.355286	4384.455078	3441.776123	74.038750
707.117371	744.513245	4384.975098	3432.711182	73.842224
707.442200	732.327637	4376.728027	3435.014893	74.159996
707.766907	727.646545	4376.801758	3419.188232	73.757942
708.091675	727.943665	4369.520020	3403.510498	73.472763
708.416321	734.482361	4362.609863	3398.531982	73.427673
708.741028	736.711487	4372.343262	3410.271729	73.537704
709.065552	745.256287	4394.336914	3430.110596	73.576187
709.390137	737.305908	4412.764160	3425.875732	73.149239
709.714600	745.181946	4441.074219	3446.234375	73.082550
710.039063	740.798157	4457.717773	3462.952148	73.236824
710.363403	745.107727	4486.695801	3506.196533	73.794571
710.687744	733.442139	4531.797363	3530.344971	73.634575
711.012085	731.510254	4575.189941	3578.938721	74.080795
711.336304	727.646667	4641.394043	3613.415283	73.734154
711.660461	731.584656	4685.232910	3641.650391	73.604568
711.984619	731.138733	4715.845703	3662.603760	73.567894
712.308716	725.194580	4719.485840	3675.607178	73.865738
712.632751	716.946960	4730.110840	3678.504883	73.796089
712.956726	719.324646	4712.204102	3658.220459	73.603416
713.280701	723.485596	4681.517090	3630.951172	73.457367
713.604553	736.860107	4622.297363	3604.722412	73.810539
713.928467	729.132629	4588.564453	3568.759766	73.576302
714.252258	726.086182	4534.100586	3536.140625	73.793167
714.575989	726.754883	4461.655762	3495.274414	74.125648
714.899719	728.092468	4388.244629	3442.221924	74.153458
715.223267	732.550537	4335.860840	3398.978271	73.999390
715.546936	726.977844	4297.892090	3356.105469	73.626175
715.870422	728.018066	4255.168457	3338.272705	74.004631
716.193970	730.395752	4214.301758	3313.232666	74.136238
716.517395	729.058289	4195.057129	3299.932373	74.174118
716.840820	731.213074	4180.494141	3281.876709	73.947685
717.164124	733.590759	4153.745605	3255.870850	73.747543
717.487488	739.312073	4108.717773	3218.719727	73.585907
717.810730	737.008728	4063.318604	3181.865479	73.500572
718.133972	732.179016	4012.346924	3145.828857	73.583122
718.457092	725.937561	3966.056396	3119.154053	73.862000
718.780212	734.110901	3924.149658	3072.120361	73.290939
719.103210	728.166687	3868.273682	3030.139404	73.308731
719.426208	729.206848	3818.342529	2970.622314	72.558014
719.749207	724.748718	3769.748291	2944.468018	72.897194
720.072083	732.327637	3724.498047	2921.360107	73.158684
720.394958	735.299744	3674.864014	2900.257813	73.648941
720.717773	732.773438	3621.069092	2868.902344	73.958115
721.040527	732.104675	3601.824219	2844.976563	73.626427
721.363281	725.789001	3573.143555	2827.887451	73.826370
721.685913	728.909668	3547.063232	2808.197266	73.781914
722.008545	732.550537	3501.738525	2785.906250	74.150101
722.331055	737.305847	3460.352295	2773.869141	74.789886
722.653503	741.020996	3428.178955	2748.754639	74.715874
722.976013	745.479248	3410.272217	2733.671631	74.609634
723.298401	740.055115	3407.002686	2720.817139	74.270752
723.620789	737.305908	3397.120361	2708.259766	74.101181
723.943115	726.606262	3377.875977	2696.445557	74.297958
724.265381	735.745605	3352.241455	2667.244629	73.820068
724.587585	733.070618	3335.672119	2664.049805	74.194191
724.909790	732.550537	3338.421631	2655.579102	73.795998
725.231873	721.256531	3339.015625	2666.575928	74.312393
725.553894	726.457703	3351.944336	2671.108398	74.068199
725.875916	809.751038	3434.420166	2753.361572	74.051643
726.197937	809.230957	3453.442139	2757.299561	73.672958
726.519775	802.692383	3449.355469	2760.123047	73.958435
726.841675	722.742615	3384.414795	2691.913330	73.982468
727.163513	735.894226	3390.953125	2690.798584	73.629417
727.485291	737.677429	3417.479492	2696.817139	73.107628
727.806946	738.271790	3440.141846	2709.151611	72.945030
728.128662	731.213074	3482.048584	2745.411133	73.221321
728.450256	728.686768	3503.150391	2778.698975	73.888596
728.771790	728.538147	3497.577881	2779.516357	74.068214
729.093323	737.380188	3494.679688	2756.036377	73.211349
729.414795	738.048889	3498.915039	2744.742432	72.683479
729.736145	732.699158	3527.150146	2745.856689	72.041252
730.057495	731.436035	3521.948975	2751.281250	72.382576
730.378845	733.219238	3510.729248	2752.098389	72.686653
730.700134	742.878601	3500.178467	2752.024170	72.866417
731.021301	741.466858	3495.199951	2746.154297	72.798904
731.342468	737.974609	3492.970703	2745.559570	72.870697
731.663574	733.590820	3497.503174	2747.045654	72.848000
731.984680	725.045898	3511.917969	2755.516602	72.858414
732.305664	727.423645	3536.809326	2762.723877	72.446449
732.626648	721.627991	3537.924072	2777.733154	73.007423
732.947571	720.067688	3541.490479	2797.571533	73.633202
733.268433	724.823059	3535.323486	2800.246826	73.845345
733.589233	728.612488	3529.156250	2769.559570	72.876816
733.909973	732.847839	3513.404297	2752.767334	72.644432
734.230713	733.888000	3478.927734	2724.829346	72.528687
734.551331	732.030457	3442.817139	2705.362061	72.795532
734.871948	739.832214	3397.343750	2677.572998	72.915611
735.192505	734.779602	3349.418213	2651.418213	73.304153
735.513062	744.364685	3305.133545	2633.585693	73.775536
735.833435	737.380188	3256.019531	2596.880127	73.829544
736.153931	739.163513	3213.964111	2552.892822	73.287895
736.474304	733.516541	3173.394775	2511.283203	72.862923
736.794617	738.049011	3147.909180	2482.602539	72.392311
737.114807	742.655762	3110.014893	2464.918457	72.750374
737.434998	740.723877	3101.692627	2463.061279	72.950455
737.755188	740.129395	3082.002686	2460.089111	73.443756
738.075256	734.779602	3110.683350	2467.964844	72.948463
738.395325	734.110901	3106.299561	2457.859863	72.664917
738.715271	733.442139	3129.779053	2466.256104	72.310951
739.035278	728.092346	3143.376709	2481.339355	72.589676
739.355164	738.791992	3166.335938	2519.828125	73.367821
739.675049	731.658936	3172.354736	2531.790771	73.754860
739.994873	737.900330	3159.871826	2524.806396	73.778984
740.314636	730.321472	3139.810303	2502.961182	73.569122
740.634277	730.172852	3118.930908	2478.738770	73.199791
740.953979	725.343201	3099.315186	2469.673828	73.477303
741.273499	731.361633	3084.305908	2445.599854	72.855026
741.593140	737.751709	3057.333984	2425.760742	72.772110
741.912598	741.243896	3034.151611	2396.114014	72.173431
742.232117	730.692932	2988.901123	2377.464111	72.923798
742.551453	724.748718	2941.050049	2353.613037	73.494713
742.870850	729.429749	2890.301514	2333.923096	74.252129
743.190063	739.906433	2864.815430	2299.594971	73.400253
743.509338	743.621582	2840.667236	2271.731201	72.869637
743.828552	729.875671	2820.457031	2238.666748	72.170883
744.147705	723.559875	2785.683350	2209.093994	72.039047
744.466797	722.891113	2754.104736	2190.667236	72.261040
744.785828	731.510254	2721.708740	2179.819092	72.772079
745.104858	730.767273	2706.476563	2184.945801	73.602859
745.423706	730.247070	2707.368164	2186.729248	73.666817
745.742615	729.058289	2692.433350	2174.617920	73.626259
746.061401	737.825989	2678.018799	2168.747803	73.751526
746.380249	733.813660	2651.789795	2153.738525	74.032455
746.698975	732.030457	2640.718750	2150.915283	74.338219
747.017639	720.067627	2624.892334	2131.447998	74.095024
747.336304	728.166565	2617.239014	2122.828857	73.827888
747.654907	734.110840	2605.721924	2120.005127	74.048195
747.973389	740.723877	2617.982178	2121.714111	73.564209
748.291931	739.757874	2609.511475	2115.547119	73.581314
748.610352	733.962219	2624.892334	2107.076416	72.615807
748.928711	731.881836	2623.109131	2099.869141	72.333313
749.247070	729.429871	2641.684570	2101.058105	71.728325
749.565308	733.962219	2639.752686	2095.633789	71.449173
749.883545	726.457703	2623.703369	2096.674316	72.221359
750.201782	732.699158	2612.483398	2093.479248	72.390228
750.519836	734.631042	2600.892334	2095.188232	72.902824
750.837952	742.284180	2600.818359	2092.587158	72.654190
751.155884	741.169617	2583.654297	2077.206787	72.512794
751.473877	745.404846	2560.992188	2057.367920	72.261086
751.791809	741.987000	2533.277100	2040.947144	72.515350
752.109619	735.448303	2524.063232	2037.752319	72.810745
752.427490	720.067688	2521.834229	2037.380493	73.112289
752.745300	722.073914	2516.707275	2048.600342	73.916290
753.062988	720.587708	2507.271240	2047.485718	74.265976
753.380615	728.538147	2500.360596	2041.987305	74.129845
753.698303	731.881836	2503.927246	2022.000000	72.803902
754.015808	732.847717	2509.277100	2004.390137	71.578552
754.333374	729.949951	2497.388672	2001.640991	71.951065
754.650757	722.593994	2487.729248	2004.241577	72.609032
754.968262	720.662109	2482.899658	2004.761597	72.867561
755.285583	728.909668	2492.633301	2003.201294	72.250076
755.602905	731.287354	2493.673584	2000.080688	71.992920
755.920105	731.064453	2488.249268	1993.244751	71.829681
756.237305	722.965515	2474.206055	1989.306763	72.311104
756.554443	728.018066	2458.453857	1980.910522	72.403290
756.871582	736.042725	2435.494629	1981.356323	73.277367
757.188599	743.621582	2430.219238	1971.176758	72.782928
757.505615	735.671204	2443.445068	1976.155151	72.637474
757.822510	738.866211	2453.921631	1984.625610	72.636688
758.139465	736.562805	2465.884521	2005.356079	73.369415
758.456238	737.454529	2481.636475	2015.981445	73.302383
758.773010	731.064453	2501.401123	2032.030884	73.486954
759.089783	731.807434	2528.447266	2037.826538	72.692307
759.406433	732.773438	2532.831055	2037.826660	72.500633
759.723145	732.401917	2548.360352	2045.108032	72.287231
760.039673	733.813660	2546.056885	2059.299805	73.140633
760.356201	736.117004	2547.543213	2071.039795	73.694572
760.672668	730.692932	2542.342041	2063.758057	73.582962
760.989136	728.463867	2543.753662	2043.250488	72.428467
761.305481	731.510315	2542.193359	2038.346680	72.173668
761.621826	734.556702	2551.555420	2049.937744	72.393066
761.938049	734.631042	2556.459229	2073.046143	73.465492
762.254333	735.745544	2563.220947	2083.225586	73.734512
762.570496	736.860107	2596.880127	2104.104736	73.506981
762.886597	728.092346	2658.254150	2148.834717	73.607422
763.202637	727.275085	2780.482178	2224.994873	72.945381
763.518677	723.931396	2916.010498	2318.319092	72.734039
763.834656	730.172852	3075.315186	2415.135742	71.849068
764.150574	724.823059	3192.044922	2507.865479	72.269241
764.466370	736.265625	3277.418701	2574.069336	72.321648
764.782288	732.476257	3314.867188	2616.793213	72.967918
765.097961	733.887939	3336.712158	2627.864502	72.766212
765.413696	725.268860	3308.551514	2604.384766	72.741402
765.729309	726.754883	3230.384766	2537.363770	72.319351
766.044861	727.646545	3111.129150	2458.602783	72.622986
766.360474	731.658936	2958.139893	2361.340576	73.195396
766.675903	738.940491	2817.559326	2267.942139	73.558540
766.991394	742.432800	2689.089844	2173.354492	73.506615
767.306763	736.191345	2588.929932	2093.404785	73.254448
767.622131	730.915833	2499.172119	2027.201172	73.308678
767.937378	725.640442	2429.476318	1963.078003	72.626564
768.252625	731.658936	2396.114258	1930.384766	72.019104
768.567810	737.974670	2350.492188	1886.026001	71.196205
768.882996	743.547363	2305.167480	1861.952026	71.618225
769.197998	738.271790	2238.740967	1826.063843	72.496788
769.513062	733.219299	2208.128174	1803.475586	72.564232
769.828064	731.138855	2179.075928	1781.556274	72.545799
770.142944	730.098572	2163.546631	1768.479126	72.439362
770.457825	731.733215	2125.280518	1744.405151	72.668640
770.772705	725.566101	2096.599854	1728.727173	73.168228
771.087402	730.841553	2072.302734	1702.052368	72.399475
771.402100	721.776672	2059.745850	1701.978149	73.260391
771.716736	725.566101	2044.736328	1687.340454	72.907524
772.031372	724.971680	2023.931641	1672.405762	72.937897
772.345947	731.733154	1996.068359	1658.139648	73.272224
772.660461	729.281189	1982.173828	1629.310181	71.836082
772.974854	724.080017	1965.232788	1611.625977	71.509804
773.289246	724.377258	1955.722046	1596.170898	70.800125
773.603638	729.206970	1939.226685	1596.022461	71.636475
773.917908	733.962341	1924.663574	1601.892456	72.892357
774.232178	733.665039	1921.988647	1596.245483	72.588005
774.546265	726.309082	1908.168091	1591.564087	73.211357
774.860474	714.643555	1900.960938	1570.462280	72.140793
775.174561	713.900574	1895.016602	1563.775024	71.955208
775.488586	717.021240	1888.403687	1555.304321	71.563568
775.802551	727.869446	1868.787720	1550.028931	72.061211
776.116516	724.674500	1843.227661	1541.930054	73.063629
776.430359	722.148132	1825.766479	1534.574219	73.614761
776.744202	726.383362	1826.212280	1534.202637	73.449547
777.057922	725.268860	1817.518921	1524.023071	73.129250
777.371704	729.726990	1808.305298	1515.032593	72.809326
777.685303	719.101746	1787.574829	1504.704468	73.525734
777.998962	722.148132	1772.640015	1490.066772	73.100861
778.312500	722.445313	1767.141602	1489.992554	73.470848
778.626038	727.646545	1767.141479	1488.655151	73.209465
778.939453	725.120300	1776.132202	1493.707642	73.128319
779.252869	725.268860	1779.847290	1495.862305	73.071236
779.566223	720.587830	1778.138306	1498.017090	73.512253
779.879578	726.160461	1781.259155	1491.181274	72.507042
780.192749	729.504089	1759.191284	1471.045288	72.016159
780.505920	731.956116	1755.699219	1463.392090	71.447220
780.819031	732.179016	1737.717773	1466.364258	73.014114
781.132141	740.054993	1748.268677	1480.853149	73.476303
781.445190	744.959045	1727.315430	1470.525024	73.859749
781.758118	741.838379	1724.268921	1454.029907	72.492813
782.071045	737.454590	1710.968750	1439.615234	72.126396
782.383911	731.361633	1710.745728	1433.002319	71.641014
782.696838	738.123230	1690.535522	1435.008423	73.170540
783.009583	730.990173	1671.365356	1418.067383	73.064156
783.322266	730.098572	1661.706055	1405.956055	72.547455
783.634888	720.067627	1652.046509	1387.603394	71.625633
783.947510	719.844727	1642.090210	1391.244141	72.800507
784.260132	718.878723	1626.783691	1382.253540	73.066551
784.572571	726.606262	1631.762085	1380.693237	72.262360
784.885010	722.371033	1620.319336	1374.451782	72.618965
785.197449	727.943787	1616.307129	1373.188843	72.633011
785.509766	723.411316	1607.242188	1373.634399	73.568726
785.822083	731.287354	1614.598145	1360.631470	71.248322
786.134277	733.516418	1612.963501	1361.745972	71.434608
786.446533	736.265686	1610.882935	1347.851318	69.926086
786.758606	734.333801	1600.034790	1341.609863	70.148476
787.070740	737.231628	1600.629272	1344.284912	70.309814
787.382690	743.547363	1604.641602	1352.978394	70.774025
787.694641	746.965271	1617.867554	1358.625366	70.232918
788.006653	745.702148	1636.889038	1369.993652	70.051697
788.318481	741.541199	1652.641113	1396.519653	71.888763
788.630310	737.083008	1677.086792	1425.423340	73.227402
788.942017	733.590759	1703.835571	1431.070313	71.886963
789.253784	730.247131	1724.120483	1449.868774	72.405769
789.565430	734.259460	1722.782837	1453.212524	72.730003
789.877014	736.934326	1720.925293	1460.419922	73.525635
790.188538	740.203613	1709.408569	1429.658691	71.136147
790.500061	737.157288	1695.439453	1419.776367	71.233620
790.811462	737.157227	1664.529419	1401.795044	71.668938
791.122925	742.209778	1638.969360	1386.637329	71.861794
791.434204	742.358459	1618.461792	1358.996704	70.384193
791.745483	742.432800	1596.765259	1344.507690	70.473137
792.056702	730.172852	1577.297974	1333.956665	71.274452
792.367920	732.476257	1567.564453	1329.052734	71.438736
792.678955	739.386414	1552.406738	1311.294434	70.343628
792.990112	742.655701	1554.710083	1299.034546	68.514977
793.301086	740.723816	1539.626831	1291.381226	68.926689
793.612122	732.476257	1533.013672	1298.514404	70.707268
793.922974	731.658936	1500.394897	1292.198608	72.917061
794.233826	726.977844	1495.713867	1294.724976	73.854630
794.544556	727.275085	1483.750977	1287.443237	74.049706
794.855286	725.937561	1491.924438	1299.406128	74.866631
795.166016	738.866272	1495.713867	1297.399902	73.797371
795.476624	738.643372	1522.685547	1304.830200	72.213821
795.787292	744.141785	1534.796875	1304.681519	70.895607
796.097778	737.528809	1546.536743	1318.947632	71.868126
796.408264	737.825989	1549.360352	1313.672241	70.957718
796.718689	735.819824	1561.694702	1324.223145	71.246063
797.029053	735.299744	1572.022827	1321.325317	70.038177
797.339355	742.358459	1571.948608	1327.343872	70.514992
797.649658	743.175781	1563.329468	1327.418091	71.235710
797.959839	740.798157	1554.338501	1330.093018	72.435852
798.270020	728.538269	1544.902222	1322.737061	72.786018
798.580078	732.327637	1547.502930	1308.619507	70.695450
798.890137	730.618652	1535.985962	1291.604126	69.655853
799.200195	732.030334	1522.537109	1283.951050	69.818596
799.510071	725.268860	1502.475464	1273.400024	70.525795
799.820007	723.114075	1485.237183	1268.793335	71.599884
800.129883	734.630920	1478.029785	1261.214355	70.834579
800.439575	736.637146	1470.227905	1256.756226	70.900444
800.749329	741.541077	1464.358032	1253.486938	70.826485
801.058960	734.556641	1449.125977	1252.149536	72.434242
801.368591	731.807434	1433.745483	1249.103027	73.695335
801.678162	725.863281	1427.875366	1240.929810	73.370041
801.987671	722.668274	1427.875366	1232.607788	72.310608
802.297119	721.330811	1430.178711	1224.508911	70.985344
802.606506	730.172852	1424.457397	1218.564575	70.344604
802.915894	730.321472	1421.336792	1225.326172	71.634399
803.225159	738.049011	1409.745483	1228.744019	73.053085
803.534424	736.265686	1401.646484	1229.932983	74.193199
803.843628	729.801453	1385.374390	1219.753540	74.736473
804.152771	722.371094	1396.073853	1216.707153	73.375992
804.461792	721.776611	1404.172852	1219.456299	72.931190
804.770874	719.696106	1412.791992	1210.688599	70.840485
805.079773	720.067688	1406.253296	1206.750488	70.925827
805.388733	721.330811	1409.968384	1194.787720	68.752701
805.697571	735.225403	1426.612305	1209.871216	68.651260
806.006470	738.643311	1435.305664	1223.097168	69.539261
806.315125	733.219238	1439.838257	1241.004028	71.861183
806.623901	728.240967	1431.516235	1245.239258	73.512932
806.932495	730.395752	1427.578125	1243.381714	73.579880
807.241150	740.352295	1418.438965	1237.808960	73.361809
807.549622	740.798096	1412.197632	1236.471558	73.826897
807.858154	729.504150	1413.683594	1235.877075	74.011711
808.166565	716.724121	1404.841675	1232.161987	74.905495
808.474915	723.857117	1396.816895	1212.694702	72.639938
808.783264	735.745605	1386.191528	1202.069336	71.692932
809.091492	737.603088	1380.247437	1189.214966	70.273994
809.399719	727.572266	1379.875610	1190.255249	70.930649
809.707825	723.857117	1371.553833	1187.357422	71.561317
810.015930	723.559875	1363.975098	1182.825073	71.713661
810.323975	732.773438	1347.702759	1182.676392	73.163361
810.632080	737.825989	1335.888794	1174.280151	72.977982
810.939880	738.346191	1340.421143	1179.778564	73.318512
811.247864	733.813660	1348.594360	1171.085083	71.126404
811.555664	732.104736	1341.832886	1169.673340	71.764542
811.863464	735.448425	1334.105469	1158.230835	70.621803
812.171143	740.723816	1326.229370	1156.150391	70.951775
812.478882	738.717590	1326.675171	1144.707764	69.050926
812.786438	735.299744	1321.473999	1139.358032	68.931427
813.094055	727.126465	1313.003296	1141.438477	70.716576
813.401489	726.531982	1311.740112	1148.199829	72.054337
813.708984	732.922058	1297.548462	1148.348633	73.575478
814.016357	735.002441	1299.331665	1144.856323	72.626732
814.323730	735.151062	1291.306885	1139.878052	72.772232
814.630981	726.903503	1301.263428	1133.116577	70.724480
814.938232	725.343201	1297.622681	1132.967773	71.228233
815.245361	727.869446	1299.182983	1136.682983	71.556770
815.552490	730.767273	1292.718628	1138.466187	72.550568
815.859619	737.974609	1292.718750	1138.094727	72.126968
816.166565	737.083008	1299.554565	1137.797607	71.241753
816.473572	742.358459	1306.390503	1139.803711	70.465012
816.780457	735.745544	1308.916748	1139.952515	70.521156
817.087341	732.476257	1317.981689	1136.534424	69.010147
817.394043	730.470032	1326.303589	1145.376465	69.634621
817.700806	731.956055	1341.609985	1149.165894	68.433884
818.007507	734.333801	1339.083496	1160.534302	70.475525
818.314209	737.083008	1343.318970	1165.661133	70.694939
818.620667	740.575195	1336.854614	1171.976685	72.348885
818.927246	741.912659	1347.405640	1172.645508	71.137543
819.233704	738.643372	1365.386719	1175.914917	69.768837
819.540161	728.389587	1399.194702	1199.840332	70.281326
819.846497	726.086243	1436.940430	1231.270386	71.067200
820.152832	726.680664	1491.255737	1272.879883	71.438271
820.458984	736.934387	1547.577148	1307.059204	70.329971
820.765259	736.934387	1614.300903	1351.863647	70.088074
821.071350	738.643372	1699.154663	1410.414185	69.938881
821.377502	736.637207	1844.119141	1527.143921	71.378746
821.683472	742.358398	2126.469727	1727.389648	71.167053
821.989441	736.042725	2593.239258	2054.395996	70.986198
822.295349	736.339905	3266.347656	2502.069824	69.791481
822.601196	732.996338	4010.192139	3007.179688	69.394188
822.907043	736.637207	4682.854492	3484.128906	69.623428
823.212769	730.692932	5119.085938	3787.952881	69.666962
823.518494	727.869446	5264.273438	3916.422119	70.288116
823.824097	725.343079	5132.386230	3827.481689	70.390480
824.129700	723.857117	4827.596191	3633.848633	70.910728
824.435242	721.999512	4482.683105	3393.999268	71.050903
824.740723	718.433044	4172.246582	3180.082031	71.273361
825.046082	722.073914	3877.041748	2983.328369	71.672821
825.351501	721.702393	3571.731689	2769.485352	71.851295
825.656799	733.813721	3230.459229	2542.564941	72.447258
825.962036	733.442200	2905.607666	2306.281982	72.408836
826.267212	739.832214	2648.817627	2114.209473	71.995171
826.572449	737.825989	2503.481689	1993.393188	71.110527
826.877502	737.157288	2481.785400	1960.848633	70.140526
827.182495	733.962219	2547.989258	2010.408813	70.365349
827.487488	728.909668	2674.675049	2088.798096	69.889641
827.792419	731.584534	2775.206299	2178.853027	70.818802
828.097290	733.144958	2817.336182	2209.020020	70.812843
828.402100	734.853821	2767.553467	2196.239990	71.893860
828.706848	736.265625	2665.238525	2113.689453	71.407112
829.011597	737.751709	2515.444336	2010.706055	71.607109
829.316223	734.036621	2360.597412	1900.960815	71.741814
829.620789	734.259460	2219.719482	1814.100952	72.694084
829.925354	731.956116	2090.209717	1723.600220	73.008759
830.229797	732.624817	1960.551758	1625.074829	72.679405
830.534302	737.380188	1819.747925	1525.732056	72.835869
830.838562	727.869446	1693.507446	1428.618286	72.568481
831.142944	734.853821	1578.932739	1350.823364	72.975349
831.447144	735.225403	1507.602173	1270.799316	69.341019
831.751404	745.850769	1451.578003	1231.270264	68.782875
832.055542	738.940613	1419.553589	1203.555542	68.264191
832.359619	729.578430	1396.816895	1206.230347	71.436516
832.663635	729.801331	1396.073853	1206.601929	71.562401
832.967651	726.606262	1423.640137	1221.090942	70.941269
833.271545	721.628113	1487.094727	1255.567383	69.753433
833.575439	713.826233	1584.728516	1332.396240	71.026337
833.879211	714.569275	1707.476563	1422.674194	71.316315
834.183044	720.216309	1821.382690	1510.871460	71.801605
834.486694	721.925293	1915.152710	1563.552124	70.533646
834.790344	728.018066	1955.870483	1598.846069	70.922859
835.093933	730.247131	1956.762085	1585.917358	69.764359
835.397522	733.665039	1912.626343	1566.004272	70.599365
835.700928	730.915955	1853.109741	1520.084961	70.323769
836.004395	739.757874	1778.361328	1495.713867	72.785812
836.307739	737.900391	1715.872681	1439.838013	71.774796
836.611023	741.615417	1647.142700	1394.513550	72.101433
836.914307	736.711426	1580.121704	1333.956665	70.813133
837.217529	740.352295	1510.202759	1288.409180	71.190041
837.520691	737.305908	1436.123047	1232.607788	70.877182
837.823730	731.138855	1362.637573	1184.162476	71.737854
838.126831	730.247131	1296.953979	1137.723267	71.902458
838.429749	734.185242	1258.688110	1114.912231	72.588165
838.732727	737.454529	1225.474731	1084.151001	71.041420
839.035522	736.117004	1204.892944	1069.587646	71.136467
839.338379	731.138733	1185.500000	1051.532227	70.515144
839.641113	733.665039	1188.843506	1058.590820	71.384262
839.943848	733.739319	1202.886597	1060.597046	69.670601
840.246460	734.631042	1228.966919	1071.222290	68.089584
840.549072	732.922058	1262.700439	1082.813477	66.044868
840.851563	731.435974	1282.762207	1094.330444	65.822090
841.154053	733.070618	1281.870483	1107.259155	68.183060
841.456482	739.089172	1269.982056	1104.732788	68.873329
841.758850	739.312195	1249.474487	1105.475830	71.773949
842.061157	740.946777	1232.533569	1086.677246	70.329491
842.363403	731.064453	1210.985718	1073.079956	71.264923
842.665588	725.194519	1190.775391	1057.401978	71.353333
842.967712	724.525818	1173.091309	1050.268921	72.618851
843.269775	724.748718	1148.274292	1038.529175	74.087723
843.571777	729.652649	1123.680054	1019.136047	73.467834
843.873840	731.956055	1102.355103	994.541931	70.892700
844.175659	735.374023	1088.460571	977.675110	68.623711
844.477600	742.878601	1078.726929	968.164368	67.079613
844.779297	738.048889	1066.838501	957.464844	66.734451
845.081116	733.887939	1051.457886	949.291504	67.828697
845.382751	727.423645	1040.015259	942.975830	68.956482
845.684387	726.457703	1032.213501	937.328796	68.967163
845.985962	729.801270	1024.931763	931.756104	68.428993
846.287537	736.860046	1009.996887	922.765442	68.063095
846.588989	739.386414	1003.532471	919.273254	68.101280
846.890381	731.584656	999.668762	921.502380	70.842590
847.191711	731.361633	1001.674988	921.130676	70.203354
847.493042	730.618652	987.854675	927.149231	76.400879
847.794250	735.671204	984.288147	924.697266	76.031044
848.095459	728.909668	979.681335	919.644775	76.059273
848.396606	726.086243	975.446106	905.675842	72.020248
848.697693	728.240967	971.210876	897.428223	69.633011
848.998657	730.395752	975.148926	895.793640	67.577423
849.299622	737.603088	980.870300	893.415955	64.050087
849.600464	739.832214	982.727783	887.174500	60.660755
849.901367	735.076721	969.650452	892.895813	67.279099
850.202087	731.658875	970.542175	896.462341	68.989113
850.502808	723.039795	967.198486	904.932800	74.497864
850.803467	732.550537	969.056152	895.719299	68.991493
851.104065	736.191406	971.210938	898.468445	69.048317
851.404663	737.825989	972.994141	892.375671	65.718796
851.705139	736.488586	977.526611	895.496399	65.967934
852.005615	731.287415	967.718567	893.415955	68.573257
852.306030	729.429871	958.876648	893.044434	71.308289
852.606384	728.241028	957.242004	894.307556	72.517822
852.906616	731.658875	967.792969	896.388000	69.760841
853.206909	733.813660	970.765137	904.412781	71.997490
853.506958	729.652649	959.025208	901.812195	75.056732
853.807129	726.086243	950.629089	895.124939	75.281265
854.107178	732.699158	943.198730	884.053894	71.902634
854.407166	735.671204	949.365906	876.400574	65.855339
854.707092	734.036621	948.325684	881.230286	68.689301
855.007019	733.887939	950.034668	887.100159	70.883430
855.306763	730.767273	952.783752	895.644958	74.263718
855.606567	730.990051	954.046936	896.536621	74.217201
855.906250	729.652649	954.641357	899.583008	75.528397
856.205933	735.151123	952.635193	897.874023	74.820610
856.505493	739.237793	950.926208	892.227051	72.270966
856.805054	733.962219	951.743469	886.431458	70.010269
857.104492	730.395813	948.622864	882.419128	69.662910
857.403931	729.206970	942.827332	889.106384	74.852142
857.703308	734.259521	944.313416	887.323059	72.868698
858.002563	730.024231	949.217285	890.889648	73.389832
858.301819	731.584656	954.269836	883.385071	68.168175
858.601013	731.213135	949.514465	881.750305	68.958427
858.900208	738.866394	938.963379	868.747375	64.909012
859.199219	741.615540	931.161621	867.930115	66.640564
859.498291	744.290344	939.260681	868.673157	63.795761
859.797302	746.073547	944.833435	876.326355	65.532745
860.096191	747.856934	947.879883	883.459290	67.793396
860.395020	748.748535	934.579651	880.412903	70.851624
860.693787	750.606140	932.350586	885.539795	74.243622
860.992554	742.135559	932.647766	873.502747	68.954735
861.291260	741.615417	934.728210	883.013489	73.220459
861.589844	731.435974	932.201904	883.607910	75.795700
861.888428	733.665039	929.452698	888.586243	79.127151
862.186890	731.064453	932.573425	881.824707	74.815651
862.485413	731.807434	939.260559	883.087830	72.922691
862.783813	728.909668	942.752869	884.053711	72.550377
863.082153	728.983948	941.638367	894.084656	77.638031
863.380371	728.240906	936.808655	893.638855	79.301788
863.678589	732.699158	942.307129	897.799805	78.766396
863.976746	730.247131	944.016052	888.883484	74.209267
864.274902	730.767273	948.325623	880.487305	68.818336
864.572937	727.720886	946.542419	885.614075	72.156151
864.870911	726.754883	950.257507	886.580078	71.509315
865.168884	727.572266	948.771484	899.954590	77.930801
865.466736	723.485535	939.632141	892.227051	78.068085
865.764587	726.309082	943.273010	889.775085	75.342476
866.062317	734.333801	954.789978	887.768860	69.598892
866.360107	747.411133	970.765076	884.128113	61.210911
866.657715	746.519470	961.700134	884.796875	64.261070
866.955322	744.141785	950.628967	878.332520	64.987442
867.252808	738.123230	936.957275	883.310730	73.019440
867.550293	730.544434	948.177002	883.162109	70.126305
867.847717	719.398926	949.960266	878.629639	69.062187
868.145081	718.655945	960.659851	873.428467	63.954556
868.442383	727.423645	952.115051	871.422302	64.087303
868.739624	734.036621	953.526855	880.412903	66.689201
869.036804	731.733215	944.981995	889.700867	74.076698
869.333984	725.566101	942.678650	900.549011	80.595482
869.631042	728.240967	938.591980	905.973083	84.493111
869.928101	726.680664	946.542419	901.143372	79.351097
870.224976	731.584656	956.499023	901.589172	75.586327
870.521851	734.779602	967.272949	901.291992	71.620285
870.818726	736.785828	968.461731	902.183594	71.391876
871.115479	738.197571	966.604187	899.805969	70.754692
871.412231	737.305908	958.059326	896.610901	72.164223
871.708862	735.671204	958.282166	888.883484	68.825127
872.005493	736.117004	957.613464	882.121887	65.917480
872.302063	729.652649	967.198547	873.799988	60.681889
872.598572	724.154297	966.529785	880.338623	64.438995
872.895020	725.640381	969.799133	888.511902	66.707222
873.191406	730.395813	968.833191	900.028809	71.143623
873.487671	731.956116	961.551514	899.360107	72.912605
873.783997	722.593994	963.557678	896.016541	71.970406
874.080200	720.662109	957.093445	889.849426	71.558754
874.376343	732.253357	957.762146	902.778076	75.617767
874.672424	734.928223	958.728027	906.121643	76.493996
874.968445	736.042786	964.969482	912.585999	77.117790
875.264465	730.915833	975.074646	912.288757	74.284813
875.560364	736.265625	975.817627	916.003906	75.031006
875.856201	738.940491	971.062317	902.109375	70.294502
876.152039	742.358459	969.799133	894.307617	66.808258
876.447754	739.237732	965.489563	883.013611	63.546837
876.743469	736.562805	971.359436	890.963928	65.759514
877.039063	734.259460	976.709290	886.728699	62.886925
877.334595	727.720886	972.771240	894.902039	68.223183
877.630127	726.754883	971.656677	896.090820	69.144424
877.925537	727.126465	961.923035	903.149597	74.968361
878.221008	734.779602	972.622559	905.898743	71.946274
878.516296	730.321472	974.331543	908.647949	73.081604
878.811646	736.414307	980.052917	914.443542	73.071030
879.106812	736.637207	985.328430	922.393982	74.693741
879.401978	741.987000	996.919617	930.344421	73.885178
879.697083	733.219238	1027.160767	937.254578	69.413582
879.992126	735.151184	1052.646606	945.427734	66.229790
880.287109	729.206848	1089.946655	978.418213	69.083412
880.582031	732.922058	1142.330078	1028.646851	72.232292
880.876892	731.510254	1262.328979	1116.621216	72.550369
881.171753	736.191345	1465.844116	1257.870728	71.496941
881.466492	730.395691	1764.986694	1467.255859	71.222359
881.761230	730.470032	2132.339600	1720.033691	70.588852
882.055786	727.795166	2515.146973	1971.325562	69.573898
882.350403	731.956055	2795.565674	2156.116455	69.013069
882.644958	732.179016	2926.709717	2259.397217	69.592018
882.939453	731.361633	2886.363281	2262.815186	71.065079
883.233826	734.036560	2798.686279	2218.159424	71.882545
883.528137	729.429871	2695.851318	2139.026855	71.683357
883.822449	733.219238	2618.947998	2073.417236	71.070557
884.116577	728.463867	2519.605225	2012.192017	71.670959
884.410828	735.151123	2401.389648	1933.728149	71.933098
884.704956	736.117126	2243.050293	1826.583862	72.363319
884.999023	738.346191	2051.720947	1683.996948	72.001595
885.292969	736.265625	1830.224609	1524.246094	72.030167
885.586914	731.881775	1634.734009	1377.795288	71.541443
885.880798	732.104675	1479.144165	1265.969727	71.464104
886.174622	730.544434	1377.275269	1198.279907	72.323051
886.468384	732.253357	1293.238892	1138.466187	72.410568
886.762085	727.869446	1231.567505	1099.903198	73.860466
887.055664	722.891174	1186.391479	1067.209961	74.286636
887.349304	727.869446	1167.964478	1046.702515	72.446411
887.642822	728.463867	1153.846924	1027.606567	70.323135
887.936340	732.624817	1129.475586	1004.721436	68.563965
888.229736	733.962219	1094.107544	988.077637	70.559135
888.523071	743.398743	1075.011719	969.576233	68.205261
888.816284	751.571960	1051.309204	967.941589	72.186432
889.109619	752.017822	1036.820190	963.706299	74.328201
889.402710	749.342957	1016.684082	954.492737	76.737083
889.695862	741.169617	1015.941101	935.842773	70.849113
889.988892	730.098572	1006.801819	920.833679	68.931290
890.281921	715.535217	989.043457	911.248535	71.556641
>>>>>End Processed Spectral Data<<<<<
