Jaz Data File
++++++++++++++++++++++++++++++++++++
Date: Fri Jun 04 15:59:19 2021
User: jaz
Dark Spectrum Present: Yes
Reference Spectrum Present: Yes
Processed Spectrum Present: Yes
Spectrometers: JAZA3586
Integration Time (usec): 24700 (JAZA3586)
Spectra Averaged: 10 (JAZA3586)
Boxcar Smoothing: 1 (JAZA3586)
Correct for Electrical Dark: No (JAZA3586)
Strobe/Lamp Enabled: Yes (JAZA3586)
Correct for Detector Non-linearity: No (JAZA3586)
Correct for Stray Light: No (JAZA3586)
Number of Pixels in Processed Spectrum: 2048
>>>>>Begin Processed Spectral Data<<<<<
W	D	R	S	P
191.335022	0.000000	0.000000	0.000000	0.000000
191.713211	406.287323	398.113983	405.395660	10.909403
192.091385	811.162842	800.463196	812.946106	-16.666571
192.469528	1212.546265	1209.945435	1218.787598	-239.974655
192.847641	1212.248901	1219.604858	1225.697754	182.829407
193.225739	1210.762817	1231.790405	1228.223999	83.039398
193.603790	1224.286011	1236.694458	1233.648071	75.449089
193.981842	1230.453003	1241.227051	1236.620239	57.241589
194.359863	1241.449707	1247.022583	1235.431274	-107.995094
194.737854	1239.889526	1250.811890	1243.976074	37.414501
195.115829	1238.180542	1254.675659	1240.261108	12.613226
195.493774	1239.889526	1251.777954	1249.400269	80.000000
195.871704	1244.570679	1251.332153	1244.273315	-4.397906
196.249603	1251.035034	1250.440552	1247.765625	549.958923
196.627457	1250.143188	1249.326050	1249.771729	45.458618
197.005310	1247.394043	1244.199097	1245.759277	51.167233
197.383133	1247.914185	1243.530396	1242.341431	127.121857
197.760910	1248.359985	1246.353882	1232.533447	788.919312
198.138687	1240.261108	1248.508667	1234.465332	-70.272629
198.516449	1235.654419	1252.372314	1242.713013	42.221783
198.894180	1235.431396	1252.595215	1242.861572	43.289761
199.271866	1241.969971	1249.548828	1240.632568	-17.646490
199.649536	1251.480713	1243.307495	1240.781128	130.910309
200.027191	1250.514771	1232.905029	1232.087769	104.640961
200.404816	1249.400269	1233.796753	1234.836914	93.333801
200.782410	1236.323120	1246.725220	1236.248657	-0.715845
201.159988	1233.648071	1269.536255	1254.081421	56.936150
201.537537	1227.555298	1287.740356	1256.756226	48.518566
201.915070	1229.561401	1287.740356	1253.858398	41.762520
202.292557	1222.725586	1282.836548	1251.926514	48.578373
202.670029	1230.453003	1278.526978	1256.533325	54.250397
203.047485	1223.245728	1276.966675	1255.641724	60.304214
203.424911	1228.521240	1276.669434	1255.418823	55.864159
203.802292	1223.171387	1272.211060	1249.846069	54.394089
204.179688	1229.041382	1271.245239	1250.366211	50.528152
204.557037	1226.738037	1269.239136	1246.873901	47.377281
204.934357	1223.914429	1269.239014	1254.081299	66.557411
205.311661	1223.988770	1272.062500	1250.143188	54.404804
205.688934	1221.239502	1271.319458	1255.418823	68.249504
206.066177	1224.062988	1272.211182	1244.942017	43.364094
206.443390	1225.028931	1276.372070	1243.604614	36.179485
206.820587	1228.669800	1278.824097	1235.579956	13.777795
207.197769	1231.344604	1279.270020	1239.443726	16.899427
207.574921	1228.669800	1274.886108	1238.031860	20.257050
207.952042	1225.994751	1276.669434	1238.180542	24.047098
208.329147	1214.329468	1279.715820	1237.140259	34.886166
208.706223	1224.137329	1287.591919	1247.839844	37.353508
209.083267	1230.378784	1281.573364	1252.520996	43.251087
209.460297	1235.951416	1276.372192	1253.041138	42.279549
209.837280	1227.629517	1266.564087	1246.502441	48.473438
210.214264	1223.319946	1266.415649	1252.966797	68.793053
210.591217	1226.812134	1266.712891	1255.493042	71.880615
210.968124	1229.635742	1274.068726	1248.062866	41.471722
211.345016	1222.948364	1274.886108	1238.626343	30.186098
211.721893	1219.827759	1275.480591	1234.985474	27.236197
212.098724	1215.666870	1275.480469	1244.124878	47.577824
212.475555	1219.902100	1274.440308	1244.347656	44.822807
212.852356	1221.536743	1277.783813	1249.548950	49.802074
213.229126	1222.205566	1267.901611	1248.508667	57.561001
213.605865	1229.189941	1270.279297	1245.908081	40.687275
213.982590	1231.270386	1261.363037	1238.551880	24.196918
214.359283	1233.722290	1261.140137	1234.614014	3.252347
214.735931	1223.840088	1262.180298	1246.799683	59.883854
215.112579	1221.388184	1271.393921	1249.548828	56.314827
215.489197	1210.911499	1270.056519	1253.932739	72.738571
215.865799	1210.317017	1268.793335	1240.409668	51.461262
216.242355	1208.533813	1268.496094	1241.375610	54.770760
216.618896	1213.883545	1276.446411	1238.923462	40.023609
216.995407	1221.982544	1283.356567	1248.434204	43.099113
217.371902	1221.165161	1280.904663	1245.685059	41.044697
217.748367	1220.942261	1270.650879	1251.703613	61.883339
218.124802	1214.477905	1265.523926	1248.657227	66.957855
218.501236	1212.620361	1270.873779	1250.588989	65.178368
218.877609	1213.289063	1283.876831	1240.855469	39.052666
219.253983	1215.963989	1275.480469	1237.066040	35.455811
219.630295	1220.868042	1276.000610	1235.282715	26.145477
220.006592	1222.502686	1272.879883	1231.864868	18.584167
220.382889	1216.929932	1283.653809	1230.304443	20.044567
220.759140	1218.564575	1279.864380	1232.607910	22.909266
221.135391	1218.341797	1275.034668	1241.672729	41.153202
221.511581	1218.936157	1268.570313	1245.685059	53.892124
221.887772	1217.227051	1265.449585	1242.118530	51.617943
222.263931	1215.889771	1274.365967	1240.781128	42.566650
222.640060	1225.103271	1272.731323	1244.050415	39.781479
223.016159	1226.069214	1265.152344	1244.793579	47.909073
223.392212	1229.932983	1260.174194	1240.038208	33.415409
223.768265	1224.062988	1267.604492	1237.511841	30.887432
224.144302	1218.861694	1274.366089	1241.524292	40.830276
224.520294	1214.032104	1276.595093	1243.827637	47.624855
224.896286	1214.255005	1282.167847	1242.787231	42.013008
225.272217	1224.880371	1287.740356	1250.886353	41.371281
225.648148	1227.332397	1293.238770	1250.291992	34.836685
226.024048	1224.657349	1285.511353	1251.034912	43.345650
226.399902	1219.753540	1288.483521	1243.901855	35.135052
226.775772	1217.821533	1286.402954	1248.062744	44.095341
227.151581	1224.954590	1289.895264	1247.839844	35.240246
227.527374	1216.632813	1295.616577	1247.616821	39.228325
227.903137	1208.533813	1300.074829	1246.502441	41.477177
228.278870	1203.555542	1302.601074	1246.725342	43.585812
228.654572	1210.168457	1310.328491	1243.381714	33.160191
229.030273	1221.908203	1324.520386	1248.285767	25.706074
229.405930	1225.548950	1344.359131	1242.341431	14.133873
229.781555	1222.874146	1355.950439	1245.165039	16.750462
230.157181	1212.620361	1364.940918	1245.462280	21.561054
230.532761	1215.592529	1365.981323	1249.028809	22.233225
230.908325	1213.883545	1361.374390	1244.793579	20.957256
231.283859	1212.397461	1352.978271	1240.706787	20.137403
231.659332	1214.998169	1341.684326	1236.991699	17.360641
232.034821	1212.620483	1329.572998	1243.010132	25.984604
232.410263	1223.691406	1315.901245	1243.901855	21.917889
232.785690	1214.180786	1315.678223	1254.973022	40.190411
233.161087	1222.056885	1322.439819	1248.582886	26.424810
233.536469	1217.747192	1330.315918	1241.004028	20.660122
233.911804	1221.388184	1331.058960	1230.898926	8.672084
234.287140	1219.233276	1337.820435	1229.412842	8.584037
234.662430	1219.456177	1338.637817	1231.121704	9.788024
235.037704	1214.180786	1342.798828	1234.836792	16.059959
235.412933	1212.174561	1340.941162	1237.214478	19.445972
235.788162	1213.586426	1345.102173	1241.598267	21.299229
236.163345	1216.484131	1343.616089	1236.099976	15.429515
236.538513	1221.611084	1343.170288	1233.648071	9.902161
236.913635	1224.211792	1338.489258	1235.802856	10.142914
237.288742	1225.623535	1345.622192	1242.341431	13.931735
237.663834	1218.713257	1341.609863	1247.988403	23.820955
238.038879	1213.883423	1336.854492	1248.211426	27.915512
238.413910	1213.734863	1337.820435	1246.279541	26.227608
238.788910	1219.753540	1338.637695	1250.589233	25.937597
239.163879	1225.028931	1348.520020	1245.685181	16.726915
239.538834	1225.697632	1348.817261	1250.811890	20.398256
239.913757	1223.245728	1361.002808	1248.657104	18.446512
240.288651	1213.066284	1368.730347	1242.935913	19.188519
240.663528	1212.248901	1380.321655	1243.456055	18.567646
241.038361	1214.477905	1388.940796	1240.781128	15.076686
241.413177	1226.515137	1409.894165	1249.771729	12.682253
241.787979	1228.595459	1430.698853	1248.285645	9.742630
242.162735	1221.090942	1461.906250	1250.589111	12.249291
242.537476	1217.895874	1476.692261	1252.075195	13.207032
242.912170	1212.100342	1506.413452	1251.332153	13.329957
243.286865	1225.697754	1524.617554	1244.570679	6.313708
243.661514	1221.908203	1541.335571	1246.502441	7.699478
244.036148	1228.149658	1525.137695	1249.325928	7.130344
244.410751	1227.926758	1496.456665	1258.093628	11.234082
244.785339	1227.332397	1479.515625	1256.458984	11.549771
245.159882	1225.623413	1466.587036	1255.716064	12.488462
245.534378	1222.428345	1478.326782	1254.824341	12.659708
245.908890	1225.103271	1486.648804	1250.291870	9.630674
246.283356	1225.548950	1514.215210	1248.731567	8.030941
246.657791	1222.279663	1556.344727	1241.004028	5.605006
247.032196	1220.422119	1624.480469	1246.651001	6.491360
247.406586	1214.329346	1706.064819	1243.678833	5.968552
247.780960	1209.425293	1752.132446	1250.589111	7.584904
248.155289	1210.762817	1768.479126	1242.341553	5.662150
248.529602	1212.843262	1744.330688	1247.468384	6.514759
248.903870	1214.998047	1708.293945	1242.415771	5.558069
249.278122	1218.490234	1659.700073	1256.310425	8.571928
249.652344	1223.914429	1619.279297	1252.743896	7.291864
250.026550	1221.165161	1591.861450	1256.310425	9.480878
250.400711	1222.948608	1571.874023	1246.799683	6.835579
250.774857	1227.406616	1553.744141	1243.753296	5.009133
251.148987	1240.260986	1548.171509	1238.849243	-0.458491
251.523071	1235.134155	1541.409790	1240.484009	1.746745
251.897125	1221.090942	1552.406738	1249.994751	8.723946
252.271164	1206.378906	1565.929688	1255.047363	13.535907
252.645187	1205.635986	1594.239258	1255.047363	12.715121
253.019165	1217.821655	1611.774780	1250.812134	8.374214
253.393112	1229.635742	1607.167847	1248.657349	5.038408
253.767044	1231.196167	1583.390991	1245.016479	3.924053
254.140930	1226.292114	1556.047485	1245.239258	5.745818
254.514801	1218.044556	1541.707153	1241.078369	7.116613
254.888657	1219.530640	1530.338867	1239.592285	6.454670
255.262466	1220.422241	1529.075684	1231.567505	3.610931
255.636276	1214.923828	1523.205933	1236.322998	6.941425
256.010010	1210.242798	1537.694824	1237.214722	8.236909
256.383759	1213.809204	1547.279907	1235.654297	6.550828
256.757446	1220.422241	1572.245483	1231.419067	3.125668
257.131134	1219.381958	1586.363159	1226.737915	2.004451
257.504791	1218.564575	1610.288574	1234.019653	3.945400
257.878418	1220.570801	1634.882813	1240.558228	4.824245
258.252014	1226.440796	1676.789429	1245.833740	4.306207
258.625580	1221.536743	1724.120483	1254.973022	6.652877
258.999115	1230.824585	1784.528442	1256.607544	4.656453
259.372650	1231.121704	1860.614380	1265.449585	5.453261
259.746124	1232.682129	1951.263672	1264.557983	4.435941
260.119598	1223.319946	2049.120361	1268.198853	5.434595
260.493042	1216.335571	2127.435547	1263.294800	5.154125
260.866425	1216.409912	2168.004883	1259.802612	4.559997
261.239838	1213.512085	2137.466553	1252.223755	4.189781
261.613159	1219.307617	2063.609375	1256.607544	4.417843
261.986511	1216.558472	1966.793091	1253.932739	4.981677
262.359802	1221.090942	1897.988770	1250.291870	4.313934
262.733063	1222.502808	1845.530884	1243.307495	3.339286
263.106293	1227.926758	1832.973755	1240.112549	2.014024
263.479523	1221.759644	1825.840698	1242.192993	3.382551
263.852692	1218.713135	1821.679688	1250.291870	5.237228
264.225861	1217.598633	1801.618042	1254.081299	6.246824
264.598969	1218.861938	1785.048462	1258.911011	7.073477
264.972076	1213.437866	1787.277710	1253.338379	6.953249
265.345154	1208.013672	1806.224976	1251.703735	7.303450
265.718201	1205.264526	1829.556030	1258.762329	8.569363
266.091217	1214.180786	1856.156250	1255.195801	6.388876
266.464203	1212.768921	1882.310913	1256.236084	6.492074
266.837158	1215.592407	1915.003906	1243.901733	4.047592
267.210114	1210.465576	1957.059204	1246.576782	4.836795
267.583038	1215.815308	1983.734009	1249.846069	4.431558
267.955902	1220.199341	2005.504883	1254.155640	4.323960
268.328766	1221.462402	2002.458374	1256.830444	4.528582
268.701569	1225.549194	2003.052734	1249.474487	3.077194
269.074371	1221.090942	2008.179688	1254.081177	4.191425
269.447144	1218.713257	2017.913452	1250.440430	3.969866
269.819885	1208.385132	2035.151733	1254.452759	5.572023
270.192596	1207.047729	2064.129639	1250.217651	5.036849
270.565277	1209.276855	2104.327393	1251.332153	4.698651
270.937927	1208.682373	2156.041992	1250.440552	4.407849
271.310577	1211.060181	2222.468750	1248.211304	3.673206
271.683136	1207.865112	2295.582764	1247.765503	3.668267
272.055725	1215.889771	2373.823486	1247.765625	2.752822
272.428284	1212.100342	2408.894287	1250.143188	3.178730
272.800812	1210.317017	2415.209717	1249.771851	3.274552
273.173279	1208.533813	2382.219482	1249.326050	3.475567
273.545776	1217.672974	2359.111328	1250.663452	2.890255
273.918152	1230.230103	2326.121094	1253.412598	2.115402
274.290558	1230.973145	2298.777588	1259.728394	2.692932
274.662964	1227.035034	2270.171143	1260.025635	3.162636
275.035278	1219.233276	2258.356934	1266.341309	4.533439
275.407593	1220.942261	2259.694336	1264.112305	4.155952
275.779907	1223.022827	2277.229492	1267.901611	4.257114
276.152161	1229.189819	2301.898193	1261.957397	3.054659
276.524384	1228.298218	2347.891846	1265.598145	3.331559
276.896606	1225.251953	2370.331055	1259.876953	3.023808
277.268799	1221.610962	2393.959473	1259.505371	3.232350
277.640930	1219.753540	2413.724121	1255.418823	2.987116
278.013031	1214.626587	2432.002441	1260.397095	3.759768
278.385162	1212.100342	2443.073486	1262.328857	4.080391
278.757233	1211.357300	2427.544189	1263.963501	4.325503
279.129272	1218.118774	2420.188477	1259.951294	3.480041
279.501282	1214.552368	2425.984131	1258.167969	3.600335
279.873230	1219.159058	2453.475830	1255.418823	2.937639
280.245178	1225.251831	2494.862549	1255.567383	2.387783
280.617126	1227.406616	2543.382080	1255.715942	2.151205
280.988983	1228.446899	2605.276123	1255.641724	1.975178
281.360870	1228.744019	2671.925781	1262.180298	2.316845
281.732697	1226.366333	2734.340088	1265.821167	2.616414
282.104492	1223.319946	2791.033203	1264.335083	2.616240
282.476288	1217.970093	2834.128906	1258.019409	2.478056
282.848053	1217.375854	2879.676025	1259.134033	2.512072
283.219757	1215.592651	2895.948486	1249.474609	2.016356
283.591461	1216.632690	2887.552002	1241.227051	1.471906
283.963135	1220.793823	2860.803467	1238.180542	1.060160
284.334747	1221.610962	2850.623779	1242.787231	1.299945
284.706360	1219.381958	2881.831055	1247.022583	1.662645
285.077942	1216.632813	2936.815186	1236.322998	1.144657
285.449524	1219.307739	3003.539063	1243.530273	1.357589
285.821014	1216.929932	3052.653076	1246.428101	1.606896
286.192535	1214.477905	3111.129639	1253.041138	2.033227
286.563995	1212.768921	3152.813232	1252.372437	2.041372
286.935425	1215.592407	3199.697998	1247.839844	1.625288
287.306824	1217.895996	3203.413086	1252.743896	1.755105
287.678223	1216.261230	3167.004639	1250.588989	1.759727
288.049561	1218.193115	3114.844482	1256.384644	2.013629
288.420898	1226.366333	3056.071045	1254.452881	1.535032
288.792145	1217.598633	3032.294189	1257.796509	2.215131
289.163452	1217.227173	3023.823486	1254.824341	2.081105
289.534668	1212.248901	3065.210205	1252.669678	2.181415
289.905914	1223.468628	3114.992920	1241.895630	0.974188
290.277039	1216.112671	3184.837646	1240.929810	1.260569
290.648193	1214.180786	3263.449951	1245.833740	1.544597
291.019318	1209.276733	3343.399658	1256.533325	2.214333
291.390381	1214.180786	3390.432861	1264.929565	2.331935
291.761475	1216.781372	3375.052490	1263.072021	2.144803
292.132507	1222.056885	3350.680908	1265.672607	2.049010
292.503510	1228.075317	3312.786865	1262.997681	1.675165
292.874481	1230.453125	3284.328857	1273.622925	2.101870
293.245422	1231.344727	3271.325439	1276.372192	2.207250
293.616364	1230.081543	3286.557861	1273.994507	2.135350
293.987213	1230.898926	3346.223389	1264.037964	1.566617
294.358093	1232.607910	3427.287354	1253.189575	0.937798
294.728943	1224.211548	3545.874268	1259.282593	1.510600
295.099731	1217.227173	3649.972656	1262.180298	1.847835
295.470490	1212.100220	3724.498047	1269.982178	2.303853
295.841248	1214.849609	3773.315186	1266.787109	2.030025
296.211975	1211.505859	3829.785156	1261.957520	1.926901
296.582642	1213.809204	3901.487305	1260.174194	1.725095
296.953308	1215.518188	3986.043701	1257.722168	1.523320
297.323883	1222.354126	4061.460938	1256.458984	1.201253
297.694519	1220.645020	4114.958984	1260.322754	1.370886
298.065063	1213.883667	4124.543945	1261.660156	1.641431
298.435608	1212.323120	4075.281250	1271.245239	2.058085
298.806122	1214.998047	3969.474365	1269.313354	1.971892
299.176575	1213.289185	3841.599365	1269.239136	2.128742
299.547028	1208.905273	3736.014893	1258.985352	1.981714
299.917450	1207.716431	3677.167236	1252.669556	1.820369
300.287872	1212.546143	3636.523682	1254.750122	1.741104
300.658234	1217.821655	3614.455811	1258.167969	1.683457
301.028564	1216.038330	3584.140381	1260.545776	1.879456
301.398865	1223.097046	3568.982422	1256.607666	1.428485
301.769135	1226.069214	3551.298828	1251.629517	1.099259
302.139374	1223.765869	3560.809326	1253.115479	1.255844
302.509583	1224.657471	3569.354248	1260.099976	1.511603
302.879791	1224.360229	3567.273438	1265.895386	1.772800
303.249939	1222.948486	3541.267578	1264.632202	1.798015
303.620087	1218.936157	3504.190674	1252.223755	1.456625
303.990173	1215.666870	3493.194092	1251.183472	1.559437
304.360260	1219.381958	3481.305420	1249.771851	1.343542
304.730286	1221.016602	3484.872070	1254.452759	1.476956
305.100281	1228.744141	3474.692627	1253.264038	1.091739
305.470276	1233.053711	3495.125732	1254.601440	0.952566
305.840179	1226.589355	3508.722900	1251.406372	1.087448
306.210144	1225.994995	3534.803467	1249.623169	1.023392
306.579987	1216.484253	3541.936279	1246.353882	1.284465
306.949890	1230.230347	3552.784424	1254.229858	1.033324
307.319702	1226.812256	3584.511719	1255.641724	1.222780
307.689484	1230.304443	3606.208252	1257.424927	1.141481
308.059265	1222.279785	3665.427490	1251.852173	1.210422
308.429016	1215.666748	3720.634521	1255.047241	1.572096
308.798737	1209.202393	3817.079346	1259.208130	1.917488
309.168396	1210.019775	3901.041748	1267.381470	2.131595
309.538055	1216.038208	3955.059570	1268.124512	1.901639
309.907684	1219.233398	3989.981689	1267.381592	1.737733
310.277313	1215.889771	4014.055908	1266.192749	1.797712
310.646851	1210.094116	4046.526123	1265.078125	1.938492
311.016388	1208.831055	4087.466797	1265.895508	1.982344
311.385895	1209.648315	4092.667969	1261.214478	1.788616
311.755371	1217.301392	4094.079834	1269.536255	1.815742
312.124817	1222.502563	4079.888428	1271.170898	1.703247
312.494232	1215.146606	4073.349365	1269.164673	1.889931
312.863617	1209.871216	4051.727295	1263.071899	1.872040
313.232971	1208.831055	4030.031006	1257.722046	1.732986
313.602295	1217.078613	4008.854736	1261.140015	1.578257
313.971619	1222.056763	4009.969482	1258.167969	1.295278
314.340820	1225.029175	3988.124268	1260.174194	1.271944
314.710083	1223.988770	4017.399414	1257.573730	1.202292
315.079285	1222.428467	4055.888428	1258.465210	1.271828
315.448486	1217.301636	4114.661621	1257.053467	1.372002
315.817596	1220.570801	4100.023926	1261.957397	1.437307
316.186707	1223.394287	4050.687256	1259.133911	1.264093
316.555786	1228.149780	3975.567139	1261.214355	1.203478
316.924866	1229.041382	3906.242920	1260.545532	1.176757
317.293884	1222.948608	3867.754150	1262.180298	1.483349
317.662872	1218.787598	3852.447510	1261.883179	1.636338
318.031830	1218.490234	3873.697998	1261.214355	1.609069
318.400757	1220.422241	3895.394531	1259.728394	1.469404
318.769684	1225.623413	3910.923584	1257.424927	1.184281
319.138550	1221.611084	3923.109375	1265.226685	1.614497
319.507416	1217.301392	3927.492920	1271.170898	1.987664
319.876190	1212.026001	3946.143311	1269.387817	2.098001
320.244995	1210.316895	3941.239258	1263.740845	1.956260
320.613770	1209.796875	3929.945313	1255.047241	1.663526
320.982483	1212.248901	3910.700928	1256.979126	1.657625
321.351166	1217.672974	3878.082031	1248.359985	1.153470
321.719818	1226.812134	3847.246338	1253.412598	1.015117
322.088440	1224.880371	3843.753906	1258.465210	1.282416
322.457062	1223.468750	3870.428955	1260.991333	1.417573
322.825623	1219.530640	3926.898682	1260.471313	1.512195
323.194183	1221.313843	3987.826904	1250.960571	1.071628
323.562653	1218.193115	4079.293701	1252.669556	1.205006
323.931183	1218.936157	4146.611816	1251.109253	1.098930
324.299591	1217.747314	4236.964355	1263.220581	1.506128
324.668060	1220.273560	4292.988770	1268.644653	1.574213
325.036407	1213.066284	4365.285156	1272.359741	1.881007
325.404755	1216.929810	4392.182129	1270.650757	1.691864
325.773102	1211.654541	4420.789063	1266.489868	1.708726
326.141388	1214.626587	4397.606445	1266.489868	1.629394
326.509674	1208.236572	4381.705566	1266.564087	1.837973
326.877899	1211.208618	4371.451660	1265.152466	1.706952
327.246124	1222.948364	4396.343750	1260.397095	1.180084
327.614288	1234.242554	4380.368652	1265.152466	0.982475
327.982422	1230.378784	4362.684082	1271.914063	1.326029
328.350525	1222.651245	4327.167480	1278.378296	1.795032
328.718628	1214.106445	4331.180176	1281.424683	2.159661
329.086700	1221.016602	4331.031738	1278.824097	1.858753
329.454712	1220.570801	4341.359375	1273.474243	1.695195
329.822693	1226.886475	4349.160645	1268.570313	1.335047
330.190674	1231.195923	4371.674805	1260.991577	0.948761
330.558563	1228.298218	4405.705566	1260.025513	0.998528
330.926483	1212.917603	4456.677246	1255.864624	1.323989
331.294312	1213.586304	4498.955566	1262.848999	1.499457
331.662231	1215.221069	4547.475098	1268.495972	1.598765
332.029999	1231.493286	4592.205566	1269.684937	1.136415
332.397766	1219.307617	4652.093262	1269.313354	1.456710
332.765503	1219.233276	4716.439453	1270.799438	1.474496
333.133240	1208.756714	4783.980469	1267.158691	1.633520
333.500916	1213.214844	4834.951660	1263.889282	1.399175
333.868561	1214.180664	4885.552246	1264.260864	1.364073
334.236176	1218.415894	4920.623535	1273.994385	1.501226
334.603790	1216.335571	4940.090332	1280.533081	1.723999
334.971344	1215.518188	4932.585938	1273.251343	1.553191
335.338867	1217.004272	4902.270020	1265.003784	1.302471
335.706360	1216.187012	4900.041504	1260.917114	1.214220
336.073853	1213.140503	4902.939453	1268.718872	1.506271
336.441284	1211.060059	4911.781250	1265.375366	1.467695
336.808655	1214.626587	4882.729004	1254.750122	1.093850
337.176086	1221.239502	4827.225098	1248.880249	0.766524
337.543396	1222.502563	4746.309082	1253.189819	0.870855
337.910706	1227.703979	4676.538574	1260.248413	0.943636
338.277954	1224.211670	4678.693848	1260.248413	1.043188
338.645264	1220.570801	4755.151367	1261.288574	1.151983
339.012421	1214.403687	4897.960938	1264.632202	1.363587
339.379669	1217.598633	5027.471191	1267.381470	1.306680
339.746796	1224.954712	5134.764160	1265.300903	1.031922
340.113953	1230.081665	5208.397949	1265.300903	0.885280
340.481018	1230.304443	5267.988770	1263.071899	0.811541
340.848114	1229.115601	5287.679199	1268.718872	0.975795
341.215118	1228.669800	5306.774902	1266.341309	0.923750
341.582153	1223.765747	5314.799316	1273.028564	1.204166
341.949066	1221.090942	5347.269531	1268.496094	1.148888
342.316010	1217.747192	5370.452148	1272.211182	1.311530
342.682922	1213.586304	5397.869629	1268.867554	1.321164
343.049835	1206.007446	5461.621094	1268.124512	1.459650
343.416656	1204.818726	5527.230469	1264.260742	1.375205
343.783478	1210.094116	5626.870605	1264.186401	1.224701
344.150269	1220.719360	5760.095703	1263.592041	0.944462
344.516998	1222.576904	5935.821777	1271.988403	1.048354
344.883728	1224.285889	6081.752441	1276.446411	1.073822
345.250427	1213.066162	6169.280762	1274.886108	1.247322
345.617065	1211.134399	6198.556152	1270.725098	1.194820
345.983704	1211.134399	6187.781250	1273.102905	1.245186
346.350281	1222.056885	6159.250000	1273.845825	1.048955
346.716827	1229.041382	6087.027344	1275.926270	0.965110
347.083405	1232.087769	6004.923340	1270.205078	0.798630
347.449860	1228.595459	5917.691895	1275.406128	0.998288
347.816376	1223.171387	5853.939941	1268.273071	0.973957
348.182770	1220.199219	5812.925293	1270.204956	1.088803
348.549194	1217.970093	5771.910156	1263.592041	1.001813
348.915558	1213.066040	5781.346191	1270.502197	1.257282
349.281921	1216.855591	5788.851074	1264.632324	1.044986
349.648193	1209.053833	5845.840332	1263.146362	1.166595
350.014526	1212.546143	5894.583496	1262.774780	1.072795
350.380737	1206.304810	5981.442871	1267.827271	1.288391
350.746948	1221.388184	6041.628906	1272.359741	1.057448
351.113159	1221.833984	6080.637207	1275.183228	1.097991
351.479309	1225.697754	6133.837891	1271.913940	0.941623
351.845428	1228.372681	6182.283691	1270.130737	0.842931
352.211517	1227.109497	6245.886719	1267.455933	0.803910
352.577576	1225.400391	6283.112793	1274.143066	0.963730
352.943604	1219.827759	6347.607422	1280.830444	1.189651
353.309601	1221.090942	6409.873047	1274.514648	1.029600
353.675537	1221.610962	6521.178223	1271.171021	0.935172
354.041473	1214.106323	6655.666504	1272.805664	1.078723
354.407379	1218.415894	6801.150879	1274.440308	1.003530
354.773254	1214.403687	6943.515137	1275.257690	1.062189
355.139038	1221.908203	7037.953613	1275.480469	0.921112
355.504913	1213.734985	7170.807129	1283.579468	1.172463
355.870636	1216.261108	7285.084473	1281.276001	1.071293
356.236389	1220.719360	7433.541504	1277.635132	0.916102
356.602081	1222.205444	7595.001465	1269.833374	0.747363
356.967804	1221.388062	7769.909668	1269.462036	0.734120
357.333405	1217.970215	7960.719238	1268.941895	0.755948
357.699036	1219.381958	8150.562500	1270.353638	0.735397
358.064606	1219.530762	8351.253906	1277.263794	0.809524
358.430176	1220.347900	8489.234375	1283.208008	0.864783
358.795654	1218.564575	8579.363281	1281.499023	0.854995
359.161163	1219.604858	8575.202148	1277.486694	0.786909
359.526581	1217.672974	8584.043945	1270.725098	0.720194
359.892029	1215.295288	8618.149414	1276.595093	0.828056
360.257416	1214.923828	8758.210938	1274.960327	0.795893
360.622772	1211.060059	8985.280273	1274.811768	0.820040
360.988098	1214.775269	9300.695313	1276.297974	0.760862
361.353394	1207.790649	9658.611328	1276.743652	0.815933
361.718658	1210.985840	9969.196289	1273.920166	0.718575
362.083893	1218.564575	10201.615234	1270.502319	0.578175
362.449097	1227.852417	10348.139648	1273.177124	0.496966
362.814209	1226.663574	10369.166992	1276.372192	0.543709
363.179382	1223.245728	10154.655273	1281.722046	0.654727
363.544434	1223.691528	9759.439453	1279.121338	0.649384
363.909546	1227.406616	9283.381836	1274.588867	0.585680
364.274536	1229.338501	8875.905273	1271.765381	0.554849
364.639587	1223.988770	8535.821289	1268.273315	0.605656
365.004517	1225.326050	8327.848633	1274.068726	0.686273
365.369507	1215.443970	8169.509277	1276.297852	0.875084
365.734344	1213.214844	8107.912598	1282.984985	1.011939
366.099274	1211.951660	8032.421387	1281.647583	1.021864
366.464081	1214.180664	7999.802246	1275.851929	0.908852
366.828918	1218.193115	7965.622559	1270.650757	0.777446
367.193665	1213.883667	7978.105469	1267.455933	0.791995
367.558411	1222.354126	7981.375000	1273.994507	0.764022
367.923126	1223.617188	7960.273438	1275.034668	0.763249
368.287781	1222.428345	7915.022949	1281.276123	0.879297
368.652435	1217.078613	7883.518066	1280.533081	0.951849
369.017059	1219.901978	7865.686035	1282.316406	0.939158
369.381653	1223.022827	7824.299316	1280.681763	0.873451
369.746185	1221.908325	7802.083496	1287.145996	0.991428
370.110687	1221.388062	7810.701660	1291.827026	1.068988
370.475220	1222.948364	7860.856934	1294.799194	1.082432
370.839661	1225.697754	7926.837402	1289.746704	0.955792
371.204041	1225.474731	7982.712891	1282.464966	0.843395
371.568451	1219.679199	8059.690918	1281.944824	0.910315
371.932770	1218.118774	8112.594238	1280.755981	0.908513
372.297150	1213.066284	8159.182129	1282.762207	1.003380
372.661377	1217.152832	8195.218750	1284.619751	0.966843
373.025696	1213.660645	8239.725586	1294.427612	1.149534
373.389862	1213.660645	8226.425781	1299.182983	1.219524
373.754059	1212.917603	8215.131836	1289.895264	1.099333
374.118225	1219.381958	8204.061523	1283.059448	0.911674
374.482361	1221.313843	8272.641602	1279.938843	0.831404
374.846436	1222.354004	8346.350586	1292.272949	0.981457
375.210510	1223.022827	8478.535156	1291.604248	0.945232
375.574524	1227.778198	8615.772461	1289.226563	0.831733
375.938538	1227.778198	8789.268555	1281.053345	0.704559
376.302460	1223.171387	8963.137695	1273.920288	0.655673
376.666412	1223.988770	9156.250000	1279.567261	0.700664
377.030304	1219.902100	9325.363281	1285.437134	0.808529
377.394196	1221.833984	9491.429688	1288.632202	0.807757
377.757996	1215.741089	9628.147461	1283.356689	0.803761
378.121796	1216.781250	9711.291992	1289.820923	0.859846
378.485565	1216.632690	9706.164063	1296.136719	0.936495
378.849304	1219.456177	9622.648438	1298.142944	0.936391
379.212982	1224.508911	9491.875977	1294.947876	0.852012
379.576630	1222.056885	9286.726563	1290.861206	0.853157
379.940277	1218.639038	9119.470703	1300.446167	1.035424
380.303864	1218.341675	8954.370117	1300.743530	1.065170
380.667450	1217.598755	8906.147461	1301.635132	1.093007
381.030945	1219.084839	8873.379883	1301.560669	1.077510
381.394501	1214.255005	8917.144531	1294.427612	1.040812
381.757935	1220.942261	8932.153320	1302.080933	1.052217
382.121399	1224.360352	8947.013672	1311.591553	1.129550
382.484741	1222.279785	8999.916992	1332.024780	1.411033
382.848145	1217.301514	9038.925781	1348.668701	1.679538
383.211487	1215.592407	9100.374023	1369.027710	1.945968
383.574768	1214.477905	9196.967773	1393.250366	2.239558
383.938019	1211.282959	9302.032227	1417.621704	2.550305
384.301270	1213.214844	9435.851563	1449.125977	2.869045
384.664459	1213.512207	9503.168945	1488.060547	3.311939
385.027649	1219.902222	9575.391602	1535.614258	3.778498
385.390778	1215.369629	9638.994141	1587.700562	4.420080
385.753876	1222.874146	9683.874023	1649.817505	5.046015
386.116943	1225.920532	9758.696289	1718.101685	5.768125
386.479980	1231.939087	9784.479492	1786.386108	6.482834
386.842987	1235.505615	9830.174805	1861.283081	7.280995
387.205994	1230.453125	9890.731445	1946.805542	8.271702
387.568909	1225.028931	9950.545898	2042.358887	9.367124
387.931793	1217.672974	9998.620117	2147.720215	10.591650
388.294678	1216.186890	10034.731445	2253.452881	11.762326
388.657471	1217.227173	10064.526367	2360.597412	12.923382
389.020294	1220.050781	10069.727539	2464.844238	14.065976
389.383057	1224.062988	10072.030273	2577.487305	15.296444
389.745819	1219.233398	10094.842773	2697.263428	16.652716
390.108521	1220.570801	10126.420898	2820.382813	17.963610
390.471191	1213.066284	10208.154297	2948.777588	19.296213
390.833801	1216.409790	10320.425781	3086.980469	20.546656
391.196442	1212.991943	10515.692383	3254.087646	21.940895
391.558960	1214.032104	10690.081055	3427.212891	23.355522
391.921509	1213.809204	10894.635742	3605.614014	24.706617
392.284027	1215.369629	11064.864258	3769.971680	25.936378
392.646484	1213.066162	11225.655273	3918.651367	27.021835
393.008911	1218.713257	11236.949219	4034.117920	28.102798
393.371307	1214.998169	11210.200195	4137.621582	29.240265
393.733673	1220.570801	11108.703125	4241.719727	30.553280
394.096008	1217.152954	11063.081055	4336.158203	31.678125
394.458344	1218.638916	11067.835938	4462.992676	32.940285
394.820587	1223.542847	11069.321289	4558.620605	33.873173
395.182831	1221.462402	11092.801758	4682.186035	35.058296
395.545013	1223.097046	11012.926758	4764.736328	36.176716
395.907196	1218.044434	10898.426758	4855.979980	37.580494
396.269287	1215.443848	10755.245117	4919.954590	38.832161
396.631409	1211.282837	10631.679688	4961.044434	39.804714
396.993469	1207.047607	10491.172852	5005.551270	40.913963
397.355530	1207.716431	10351.929688	5048.201660	41.999081
397.717499	1209.053833	10262.691406	5119.680176	43.193981
398.079468	1212.769043	10241.589844	5192.868652	44.082165
398.441376	1219.456299	10253.552734	5273.041016	44.869839
398.803284	1224.360352	10274.059570	5352.619141	45.617634
399.165131	1227.555298	10299.026367	5441.782227	46.455830
399.526978	1224.806030	10295.385742	5522.697754	47.382763
399.888763	1220.868042	10283.050781	5609.632813	48.429443
400.250519	1217.301636	10294.196289	5695.303223	49.334068
400.612244	1216.112671	10307.050781	5786.472656	50.273796
400.973938	1216.187012	10300.512695	5845.915527	50.963917
401.335602	1216.558472	10317.378906	5910.632813	51.578583
401.697205	1211.431519	10391.533203	5994.148926	52.098740
402.058807	1210.762817	10500.907227	6100.029785	52.628536
402.420349	1222.057007	10586.428711	6217.651855	53.346821
402.781860	1223.468628	10690.453125	6317.291016	53.806175
403.143341	1228.967041	10854.215820	6468.943359	54.439907
403.504822	1218.787598	11049.260742	6618.217285	54.925434
403.866241	1221.388184	11230.632813	6787.851074	55.613220
404.227631	1225.251831	11361.480469	6912.976563	56.112831
404.588959	1227.778198	11559.125000	7068.492188	56.533905
404.950287	1224.583130	11732.995117	7206.025879	56.920521
405.311554	1221.611084	11855.370117	7312.799316	57.281612
405.672821	1215.889771	11900.026367	7367.931641	57.581085
406.034027	1225.549194	11882.492188	7381.603516	57.765663
406.395203	1218.490356	11813.612305	7383.460938	58.186878
406.756348	1220.050781	11706.691406	7380.860840	58.749130
407.117493	1214.998047	11630.307617	7402.854004	59.411156
407.478516	1217.672974	11597.688477	7438.371094	59.929565
407.839600	1222.874146	11584.760742	7474.779297	60.335587
408.200592	1220.942383	11579.261719	7503.236816	60.649746
408.561554	1220.719360	11573.911133	7522.853027	60.871410
408.922485	1216.929932	11597.540039	7550.864746	61.016975
409.283417	1221.536743	11608.239258	7584.152344	61.257324
409.644257	1226.812134	11709.515625	7681.415527	61.573845
410.005096	1237.511841	11829.215820	7783.209473	61.800232
410.365906	1234.316772	11962.515625	7883.443848	61.978035
410.726715	1231.344727	12081.399414	7952.768066	61.948292
411.087433	1221.016724	12144.928711	8027.294434	62.306229
411.448120	1225.400513	12200.135742	8119.578613	62.818630
411.808807	1223.840210	12183.045898	8183.627441	63.506310
412.169434	1218.044556	12121.596680	8188.605957	63.929276
412.530029	1213.586426	12106.958008	8172.854004	63.885345
412.890564	1214.552368	12075.528320	8157.324219	63.924019
413.251099	1219.084839	12078.651367	8176.419922	64.066414
413.611572	1221.090942	12073.746094	8238.240234	64.658363
413.972076	1220.570801	12126.203125	8317.744141	65.078049
414.332489	1221.536621	12226.066406	8386.176758	65.106285
414.692871	1220.273560	12378.981445	8507.735352	65.307396
415.053223	1216.855591	12549.729492	8606.334961	65.203934
415.413574	1215.741089	12768.328125	8776.192383	65.443794
415.773834	1219.827759	12953.491211	8899.237305	65.447678
416.134094	1226.366455	13118.813477	9038.851563	65.692833
416.494263	1228.521240	13285.176758	9181.364258	65.962265
416.854462	1226.366455	13574.215820	9381.164063	66.042252
417.214630	1229.412842	13881.382813	9619.750977	66.316452
417.574738	1230.304443	14218.791992	9860.343750	66.443756
417.934784	1226.737915	14529.672852	10096.700195	66.676735
418.294861	1222.056763	14929.644531	10382.839844	66.830017
418.654846	1223.171387	15400.203125	10719.356445	66.982895
419.014832	1224.583130	15904.645508	11061.074219	67.005783
419.374756	1217.747314	16441.632813	11431.027344	67.087212
419.734680	1211.951660	17002.542969	11821.488281	67.188980
420.094543	1217.227173	17562.117188	12228.741211	67.369766
420.454376	1230.081543	18076.142578	12598.250000	67.482651
420.814148	1240.558228	18590.390625	12964.041992	67.571167
421.173920	1239.295044	19095.353516	13325.226563	67.685326
421.533691	1227.555176	19616.585938	13693.618164	67.790749
421.893341	1225.623413	20006.230469	13981.245117	67.919113
422.253021	1221.165161	20288.134766	14188.401367	68.008904
422.612640	1224.286011	20380.865234	14298.295898	68.248138
422.972260	1215.072510	20358.353516	14302.604492	68.366188
423.331757	1215.221069	20291.406250	14273.329102	68.452408
423.691315	1223.617310	20265.994141	14253.268555	68.424500
424.050781	1232.607910	20364.148438	14314.121094	68.376686
424.410248	1237.065918	20445.658203	14374.159180	68.391762
424.769653	1225.251831	20528.951172	14419.484375	68.350800
425.128998	1216.855591	20549.679688	14453.067383	68.464966
425.488373	1214.923828	20468.763672	14401.426758	68.487656
425.847656	1217.450195	20275.279297	14307.434570	68.685600
426.206940	1222.651245	20017.154297	14147.609375	68.769882
426.566193	1222.131104	19639.027344	13909.395508	68.889267
426.925385	1224.657349	19275.759766	13649.335938	68.830582
427.284576	1220.793579	18708.904297	13298.924805	69.064812
427.643677	1217.375732	18307.818359	13056.250977	69.271904
428.002777	1220.719360	17925.236328	12763.499023	69.099747
428.361847	1223.022705	17587.158203	12488.875000	68.844772
428.720856	1228.595337	17220.027344	12236.692383	68.837471
429.079865	1226.886597	16935.595703	12067.877930	69.012619
429.438812	1231.418945	16710.162109	11952.708008	69.264595
429.797760	1227.703857	16594.474609	11876.174805	69.295433
430.156616	1227.926758	16371.268555	11761.898438	69.561737
430.515503	1224.508667	16296.147461	11688.487305	69.428276
430.874268	1226.663452	16187.589844	11610.765625	69.408150
431.233093	1222.354126	16199.329102	11616.487305	69.400749
431.591827	1225.028931	16234.252930	11672.809570	69.609062
431.950562	1218.936157	16289.385742	11730.617188	69.750282
432.309204	1225.251831	16350.684570	11783.519531	69.804733
432.667877	1221.165283	16467.710938	11826.838867	69.561157
433.026459	1228.446899	16617.357422	11901.363281	69.354591
433.385010	1224.211548	16747.386719	11994.242188	69.380333
433.743561	1230.898804	16875.337891	12114.092773	69.565895
434.102051	1228.818481	17014.283203	12200.507813	69.505013
434.460510	1231.716187	17200.857422	12345.323242	69.594269
434.818939	1225.994873	17279.767578	12395.551758	69.575897
435.177338	1219.753418	17326.578125	12425.049805	69.568626
435.535675	1214.032104	17260.001953	12366.945313	69.506012
435.894012	1213.066162	17195.208984	12335.514648	69.592972
436.252289	1217.598755	17197.291016	12366.497070	69.769165
436.610535	1219.679077	17170.615234	12346.734375	69.758011
436.968719	1220.347778	17300.052734	12441.692383	69.785759
437.326935	1220.793701	17417.375000	12545.047852	69.917557
437.685028	1221.388184	17580.841797	12660.737305	69.925011
438.043152	1225.326172	17704.183594	12678.199219	69.500404
438.401215	1231.270386	17901.234375	12811.202148	69.465843
438.759277	1227.332397	18174.222656	12988.710938	69.401398
439.117249	1225.994995	18576.126953	13330.055664	69.763504
439.475250	1216.335571	18908.556641	13520.569336	69.546005
439.833130	1221.685303	19290.250000	13816.590820	69.706177
440.191071	1217.598633	19550.679688	13998.335938	69.714066
440.548889	1225.623413	19864.533203	14234.840820	69.796021
440.906708	1222.948608	20154.462891	14417.922852	69.698463
441.264496	1224.286011	20365.482422	14587.184570	69.812241
441.622223	1224.731812	20513.273438	14715.059570	69.939598
441.979950	1222.279785	20601.990234	14753.918945	69.823738
442.337616	1220.719360	20696.875000	14770.786133	69.572594
442.695251	1217.450073	20606.595703	14700.644531	69.539909
443.052887	1223.691528	20452.714844	14594.987305	69.537048
443.410461	1224.731812	20277.285156	14512.510742	69.742775
443.768005	1223.988770	20103.492188	14416.585938	69.877884
444.125458	1222.948486	19983.642578	14364.200195	70.046730
444.482941	1228.298340	19973.314453	14343.471680	69.966194
444.840393	1230.230103	20101.337891	14405.291992	69.816048
445.197754	1234.465454	20343.416016	14580.868164	69.843719
445.555084	1230.453003	20573.976563	14764.098633	69.964737
445.912415	1227.406616	20952.326172	15022.450195	69.937134
446.269714	1218.639038	21237.425781	15213.258789	69.907433
446.626953	1215.666870	21559.529297	15460.835938	70.021942
446.984161	1215.518188	21863.130859	15687.235352	70.089050
447.341309	1217.524292	22129.431641	15888.596680	70.156548
447.698456	1223.468628	22340.525391	16018.700195	70.062943
448.055542	1227.406616	22436.748047	16135.207031	70.288841
448.412598	1225.177612	22406.134766	16139.590820	70.414253
448.769653	1220.570801	22260.648438	16077.028320	70.610275
449.126617	1219.827759	21935.947266	15839.036133	70.569244
449.483582	1225.103149	21692.158203	15629.206055	70.377014
449.840515	1229.635742	21344.050781	15375.165039	70.325333
450.197388	1230.750366	21103.904297	15184.059570	70.211853
450.554230	1225.400513	20863.980469	15043.700195	70.363029
450.911041	1218.564575	20686.843750	14888.333008	70.215599
451.267822	1216.038208	20466.314453	14812.543945	70.630188
451.624573	1217.227173	20214.798828	14687.641602	70.905975
451.981262	1218.564575	20002.738281	14605.016602	71.264526
452.337921	1221.462524	19798.406250	14451.730469	71.218758
452.694580	1222.428345	19684.572266	14343.620117	71.070786
453.051147	1222.577026	19675.138672	14305.578125	70.900726
453.407715	1216.632813	19574.085938	14257.949219	71.040993
453.764221	1221.610962	19561.751953	14294.727539	71.281441
454.120728	1226.663696	19310.832031	14166.706055	71.554535
454.477142	1227.852417	19263.205078	14119.820313	71.481644
454.833557	1228.001099	19072.095703	13982.583008	71.477890
455.189911	1227.703979	18903.501953	13851.067383	71.416084
455.546265	1225.400513	18693.673828	13715.835938	71.503548
455.902557	1219.604858	18522.109375	13622.585938	71.683159
456.258820	1216.855713	18521.216797	13622.734375	71.692207
456.615051	1210.911499	18555.695313	13689.905273	71.946671
456.971252	1214.106445	18554.580078	13696.666992	71.985123
457.327393	1217.672974	18724.730469	13850.918945	72.160881
457.683502	1229.635620	19028.257813	14031.918945	71.928505
458.039612	1233.722290	19532.177734	14378.839844	71.837303
458.395630	1237.883301	20031.791016	14743.961914	71.864128
458.751648	1230.007202	20476.494141	15083.526367	71.979477
459.107605	1228.892700	21119.359375	15553.863281	72.019279
459.463562	1222.502563	21740.828125	15986.453125	71.954941
459.819458	1223.691528	22345.353516	16414.363281	71.919868
460.175323	1210.465576	22873.275391	16737.283203	71.674988
460.531158	1209.722534	23373.703125	17109.539063	71.737190
460.886932	1210.614258	23744.697266	17394.861328	71.821198
461.242676	1223.394287	23926.666016	17569.992188	72.001068
461.598419	1221.090942	23784.451172	17465.001953	71.992432
461.954102	1220.422241	23422.447266	17191.419922	71.934868
462.309723	1216.484253	22794.736328	16739.808594	71.939674
462.665344	1214.255127	22103.945313	16270.661133	72.075775
463.020905	1215.443970	21503.951172	15865.191406	72.207123
463.376373	1221.536743	21011.173828	15553.120117	72.419640
463.731873	1229.858521	20617.521484	15281.320313	72.476311
464.087341	1240.632568	20267.775391	15034.190430	72.494110
464.442749	1234.093872	20057.648438	14877.187500	72.478836
464.798126	1232.013550	19943.074219	14796.792969	72.496048
465.153503	1223.394287	20011.134766	14853.930664	72.550163
465.508820	1220.942261	20050.142578	14876.742188	72.524582
465.864105	1213.586304	20179.058594	14970.289063	72.535515
466.219330	1215.220825	20466.164063	15152.108398	72.395866
466.574524	1220.273560	20645.382813	15280.280273	72.380577
466.929657	1223.617188	20848.228516	15391.437500	72.194145
467.284790	1229.710083	20932.267578	15488.476563	72.370132
467.639893	1215.666870	21084.585938	15590.940430	72.350555
467.994934	1223.319946	21205.998047	15725.354492	72.573029
468.349945	1214.998169	21247.310547	15746.678711	72.541206
468.704926	1223.320068	21241.958984	15764.437500	72.637894
469.059875	1215.592529	21094.021484	15621.331055	72.469200
469.414764	1215.741089	20890.507813	15456.081055	72.378693
469.769653	1219.456299	20691.970703	15303.536133	72.328003
470.124451	1217.227173	20558.671875	15226.484375	72.431282
470.479248	1213.734985	20372.617188	15094.226563	72.449379
470.834015	1212.323242	20263.837891	15025.645508	72.505112
471.188721	1213.660645	20300.023438	15054.176758	72.515205
471.543365	1216.855713	20420.837891	15163.550781	72.623978
471.898010	1218.787598	20578.062500	15242.163086	72.437500
472.252625	1216.186890	20702.445313	15355.401367	72.559929
472.607178	1213.140503	20938.730469	15514.110352	72.499580
472.961700	1215.295410	21127.384766	15666.877930	72.576920
473.316193	1217.524414	21423.779297	15824.695313	72.290344
473.670654	1226.440796	21579.441406	15930.651367	72.245911
474.025055	1225.326172	21789.421875	16145.237305	72.553207
474.379456	1230.007446	21941.818359	16291.614258	72.719894
474.733795	1230.973267	22116.798828	16427.736328	72.761131
475.088104	1229.338501	22279.296875	16498.027344	72.535477
475.442383	1229.189819	22319.869141	16545.728516	72.622314
475.796570	1224.657349	22452.947266	16638.310547	72.609024
476.150787	1221.016602	22673.773438	16769.677734	72.478615
476.504944	1215.443970	22918.007813	16936.931641	72.440689
476.859070	1209.945435	23135.044922	17113.923828	72.537773
477.213135	1218.193237	23339.970703	17292.099609	72.661011
477.567200	1227.406616	23780.064453	17587.304688	72.540886
477.921173	1235.059692	24234.648438	17903.091797	72.471001
478.275146	1228.521240	24760.859375	18299.498047	72.542625
478.629089	1225.474854	25098.937500	18586.230469	72.719887
478.983002	1220.793823	25562.218750	18959.453125	72.874367
479.336823	1221.908203	25976.380859	19264.763672	72.887253
479.690643	1217.672974	26438.392578	19598.531250	72.879990
480.044403	1220.199219	26951.677734	19946.193359	72.774651
480.398163	1222.948486	27666.468750	20460.146484	72.748245
480.751862	1228.669800	28646.447266	21194.109375	72.819321
481.105499	1230.453125	29795.611328	22071.843750	72.960876
481.459137	1229.932983	31322.236328	23270.349609	73.242706
481.812744	1222.577026	33220.671875	24705.357422	73.388062
482.166290	1225.697632	35548.949219	26512.695313	73.673088
482.519806	1221.165161	38310.183594	28576.158203	73.754959
482.873291	1221.536743	41386.984375	30914.837891	73.927467
483.226715	1212.917603	44752.675781	33497.078125	74.148689
483.580139	1211.357300	47867.750000	36027.531250	74.622520
483.933502	1211.580200	50816.449219	38603.832031	75.380203
484.286804	1216.261230	53276.542969	40919.621094	76.264206
484.640106	1214.032227	55283.378906	43003.441406	77.288544
484.993347	1220.422241	56534.859375	44495.144531	78.234047
485.346558	1220.942383	57114.871094	45237.355469	78.749901
485.699738	1224.063110	56959.949219	45120.550781	78.758034
486.052887	1221.016602	56322.949219	44368.011719	78.303963
486.405975	1220.273560	55342.671875	43264.839844	77.684227
486.759064	1226.069214	54104.265625	41896.109375	76.912682
487.112061	1225.028931	52803.527344	40508.281250	76.162071
487.464996	1226.217773	51637.792969	39325.828125	75.577110
487.817963	1225.920532	50908.437500	38677.984375	75.382782
488.170868	1225.028931	50500.886719	38293.171875	75.225769
488.523743	1220.793579	50382.000000	38206.015625	75.232536
488.876587	1215.518311	50287.339844	38069.816406	75.102768
489.229401	1214.180908	50102.175781	37927.230469	75.096245
489.582153	1217.598755	49632.363281	37545.238281	75.034218
489.934845	1219.307739	48912.000000	37033.144531	75.092926
490.287537	1218.639038	48075.050781	36368.136719	75.015343
490.640198	1219.233398	47250.437500	35727.347656	74.966789
490.992798	1222.279785	46509.417969	35139.839844	74.894463
491.345337	1226.366333	46018.718750	34752.050781	74.846893
491.697876	1224.211670	45654.792969	34457.363281	74.797920
492.050354	1232.607788	45633.984375	34443.472656	74.796928
492.402832	1237.363281	45543.332031	34373.410156	74.789124
492.755219	1242.267212	45336.699219	34189.804688	74.720406
493.107605	1231.270508	44720.062500	33654.156250	74.554581
493.459930	1227.109497	43753.828125	32956.300781	74.610016
493.812225	1222.428345	42408.578125	31941.552734	74.586060
494.164490	1222.354004	40756.675781	30713.255859	74.595695
494.516724	1214.626587	38919.988281	29324.757813	74.552078
494.868896	1212.248901	37080.328125	27945.328125	74.531677
495.221039	1210.317017	35484.824219	26712.943359	74.406982
495.573120	1215.369751	34108.218750	25605.240234	74.149467
495.925201	1221.090942	33190.804688	24892.376953	74.042847
496.277222	1220.645020	32563.240234	24398.187500	73.949020
496.629211	1223.691528	32271.601563	24256.640625	74.185181
496.981140	1217.970215	32089.787109	24156.408203	74.302193
497.333069	1224.286011	32090.601563	24198.687500	74.431953
497.684967	1220.868042	32105.685547	24168.146484	74.299545
498.036804	1219.530518	32176.345703	24193.115234	74.211716
498.388580	1214.998169	32105.015625	24155.740234	74.265877
498.740326	1215.369629	32027.890625	24107.146484	74.293747
499.092072	1217.004272	31759.361328	23907.718750	74.292610
499.443756	1215.443970	31451.525391	23677.900391	74.290237
499.795410	1214.106445	31102.376953	23397.554688	74.221260
500.147003	1217.821655	30735.992188	23172.712891	74.377548
500.498566	1227.258057	30346.570313	22951.812500	74.605316
500.850098	1234.985474	29940.505859	22667.009766	74.661682
501.201599	1227.183716	29615.281250	22355.312500	74.426010
501.553009	1222.651245	29267.619141	22029.640625	74.191528
501.904449	1217.004272	29029.625000	21818.250000	74.071571
502.255859	1224.211548	28753.962891	21618.822266	74.082077
502.607178	1221.982544	28676.539063	21554.103516	74.057365
502.958405	1223.319946	28545.396484	21474.527344	74.120308
503.309692	1228.075317	28467.525391	21455.060547	74.256218
503.660919	1227.778198	28384.974609	21398.886719	74.275375
504.012115	1228.298340	28367.884766	21403.939453	74.340263
504.363251	1220.645020	28438.251953	21448.074219	74.317444
504.714294	1220.125000	28483.427734	21478.091797	74.304886
505.065369	1220.199219	28509.732422	21516.505859	74.373962
505.416443	1224.063110	28494.724609	21503.429688	74.363312
505.767395	1221.165283	28552.455078	21538.279297	74.336464
506.118317	1221.388062	28527.564453	21485.523438	74.210815
506.469238	1216.335571	28559.662109	21515.617188	74.238525
506.820160	1221.610962	28512.181641	21457.437500	74.149521
507.170929	1224.137329	28536.703125	21496.298828	74.222839
507.521729	1231.344727	28591.835938	21514.281250	74.132210
507.872498	1231.939087	28712.726563	21615.626953	74.174324
508.223236	1225.548950	28888.677734	21758.882813	74.226364
508.573883	1220.199219	29049.837891	21887.500000	74.263634
508.924500	1213.140503	29161.587891	22032.166016	74.490814
509.275116	1218.118774	29335.382813	22126.828125	74.362534
509.625702	1219.976318	29565.646484	22323.880859	74.451950
509.976196	1222.799927	29860.554688	22499.009766	74.294266
510.326660	1217.895874	30139.931641	22732.322266	74.387665
510.677124	1218.936157	30392.859375	22872.679688	74.222939
511.027557	1213.883545	30592.658203	23029.978516	74.258018
511.377869	1216.855591	30837.931641	23132.962891	73.988220
511.728180	1212.174683	30968.927734	23256.232422	74.080856
512.078430	1220.422241	31106.312500	23355.576172	74.065567
512.428650	1219.753540	31166.724609	23477.654297	74.324379
512.778931	1221.462524	31307.525391	23537.318359	74.173401
513.129028	1215.295410	31344.677734	23598.990234	74.291916
513.479126	1218.936157	31364.443359	23590.369141	74.211502
513.829285	1217.524414	31286.203125	23576.328125	74.359116
514.179382	1227.480957	31223.267578	23501.802734	74.258171
514.529297	1227.258057	31139.005859	23465.693359	74.346825
514.879272	1226.143433	31151.935547	23475.052734	74.346939
515.229187	1229.115601	31085.062500	23422.966797	74.336449
515.579163	1227.035034	31109.880859	23438.570313	74.328712
515.928955	1235.134155	31089.966797	23444.367188	74.390747
516.278748	1228.669800	31285.607422	23599.287109	74.427467
516.628540	1229.412964	31547.005859	23827.396484	74.537529
516.978333	1223.097046	31987.837891	24136.125000	74.478210
517.327942	1222.428223	32515.462891	24524.578125	74.464333
517.677612	1221.165161	33060.175781	24935.398438	74.481689
518.027222	1223.394287	33625.992188	25397.562500	74.605652
518.376831	1222.205444	34292.269531	25866.187500	74.520523
518.726379	1222.428345	34917.820313	26300.638672	74.426239
519.075867	1221.536743	35450.050781	26657.212891	74.311363
519.425293	1222.279785	35794.886719	26978.351563	74.498497
519.774658	1218.638916	36034.738281	27186.546875	74.585922
520.124084	1223.468628	36115.429688	27318.138672	74.787056
520.473389	1220.942261	36061.187500	27222.732422	74.631477
520.822693	1220.496460	35838.656250	27022.859375	74.534187
521.171997	1217.895874	35526.878906	26700.384766	74.273514
521.521240	1218.341675	35134.265625	26420.189453	74.306824
521.870361	1217.598633	34742.019531	26172.390625	74.437653
522.219482	1217.821655	34352.453125	25947.921875	74.635201
522.568604	1221.685425	34021.433594	25750.796875	74.784447
522.917664	1223.245728	33808.855469	25594.687500	74.792038
523.266724	1217.821533	33773.039063	25625.523438	74.973244
523.615662	1216.038330	33945.496094	25786.462891	75.071281
523.964600	1209.351196	34286.027344	26097.046875	75.242432
524.313538	1209.202515	34784.671875	26464.029297	75.218086
524.662354	1218.416016	35403.464844	26930.427734	75.214203
525.011169	1227.332397	36255.046875	27534.062500	75.102615
525.359985	1230.750366	37266.156250	28288.013672	75.085220
525.708740	1225.920654	38478.109375	29179.349609	75.038361
526.057434	1227.778198	39760.203125	30186.373047	75.153831
526.406067	1231.419067	41283.632813	31368.898438	75.245476
526.754700	1224.731812	42963.019531	32751.150391	75.533569
527.103333	1226.960815	44964.886719	34340.859375	75.709808
527.451782	1228.075317	47032.953125	36051.160156	76.024841
527.800293	1233.796631	49117.363281	37801.585938	76.368141
528.148743	1235.877075	51038.464844	39486.253906	76.803993
528.497131	1232.533569	52706.488281	41094.234375	77.440521
528.845642	1224.880249	54078.488281	42482.062500	78.059349
529.193909	1217.301392	55153.050781	43732.125000	78.824944
529.542175	1217.152832	55930.042969	44645.828125	79.375580
529.890503	1218.787598	56306.457031	45175.160156	79.793488
530.238770	1214.775146	56271.312500	45156.515625	79.812035
530.586914	1214.329468	55886.496094	44696.656250	79.532837
530.934998	1213.363403	55164.941406	43842.988281	79.014603
531.283142	1221.388184	54154.425781	42812.707031	78.573463
531.631226	1217.450073	52847.437500	41480.757813	77.984344
531.979248	1226.663574	51282.480469	40037.500000	77.535118
532.327148	1221.982544	49655.167969	38467.042969	76.899879
532.675110	1224.062988	48160.941406	37111.312500	76.458534
533.023071	1216.335449	47146.417969	36153.769531	76.066559
533.370850	1220.273560	46493.292969	35602.292969	75.943733
533.718689	1218.787598	46343.199219	35456.734375	75.874557
534.066467	1223.171387	46319.125000	35450.496094	75.898880
534.414246	1217.895874	46390.980469	35496.937500	75.883774
534.761963	1220.422241	46327.003906	35451.093750	75.888420
535.109619	1222.131226	46173.125000	35354.722656	75.932892
535.457153	1222.354126	45810.300781	35080.769531	75.936249
535.804749	1225.697754	45186.457031	34691.941406	76.127541
536.152344	1221.313843	44442.246094	34095.664063	76.061180
536.499817	1229.338501	43545.558594	33440.160156	76.119331
536.847229	1223.691406	42624.277344	32659.837891	75.931648
537.194641	1225.028931	41617.253906	31922.828125	75.999275
537.542114	1219.604858	40770.949219	31270.375000	75.979134
537.889404	1229.412720	40073.910156	30716.302734	75.910088
538.236694	1229.338501	39588.785156	30287.720703	75.752876
538.583984	1233.796753	39278.945313	29992.146484	75.590057
538.931213	1227.555298	39127.816406	29905.656250	75.667290
539.278381	1230.378784	39115.777344	29898.078125	75.669518
539.625488	1221.982544	39212.886719	29962.203125	75.650269
539.972595	1218.193237	39545.468750	30189.419922	75.589058
540.319641	1215.295288	40028.878906	30611.236328	75.736221
540.666687	1217.004272	40712.839844	31171.478516	75.842110
541.013611	1223.914429	41654.328125	31920.599609	75.924736
541.360596	1222.354126	42729.046875	32684.578125	75.800369
541.707458	1225.994995	43922.488281	33625.101563	75.882362
542.054260	1210.614258	44921.566406	34425.488281	75.987534
542.401062	1212.917603	45848.863281	35205.300781	76.154732
542.747864	1219.307617	46414.753906	35688.042969	76.265945
543.094666	1237.437378	46641.300781	35898.839844	76.340202
543.441284	1234.539673	46370.250000	35711.300781	76.384666
543.787903	1229.858521	45766.687500	35206.859375	76.289673
544.134460	1220.793701	44853.285156	34402.605469	76.048401
544.481079	1224.806152	43676.179688	33476.121094	75.972366
544.827637	1223.542969	42224.453125	32383.947266	75.999298
545.174072	1229.041382	40617.656250	31143.908203	75.948006
545.520508	1227.035156	39136.878906	29982.335938	75.851807
545.866943	1234.391235	37853.816406	28942.541016	75.665169
546.213318	1234.985596	36823.761719	28213.484375	75.806198
546.559631	1239.666626	35999.519531	27551.076172	75.694832
546.905823	1237.660400	35314.152344	26975.080078	75.528374
547.252136	1233.128052	34725.375000	26469.970703	75.351295
547.598389	1223.840210	34150.644531	25991.685547	75.220924
547.944458	1216.558350	33657.050781	25631.021484	75.259224
548.290588	1224.434448	33101.785156	25204.224609	75.225166
548.636658	1229.115601	32523.937500	24814.134766	75.363968
548.982727	1226.589355	31899.197266	24346.103516	75.375114
549.328735	1215.666870	31214.275391	23860.906250	75.487633
549.674622	1211.505859	30523.705078	23305.642578	75.375229
550.020569	1213.363403	29853.421875	22763.306641	75.244064
550.366455	1222.354126	29128.970703	22204.181641	75.185852
550.712280	1224.880371	28462.029297	21687.775391	75.128624
551.058044	1222.725586	27830.751953	21266.925781	75.331398
551.403748	1215.369629	27407.154297	20917.255859	75.221626
551.749512	1221.610962	27080.666016	20668.712891	75.204224
552.095154	1228.001099	26831.009766	20395.425781	74.863953
552.440735	1227.332397	26668.359375	20297.941406	74.960060
552.786316	1221.536743	26573.103516	20204.095703	74.877258
553.131897	1217.598633	26530.158203	20222.302734	75.080132
553.477417	1221.685303	26543.009766	20153.349609	74.765694
553.822815	1228.595581	26460.982422	20131.654297	74.915855
554.168213	1230.155884	26428.882813	20097.177734	74.872917
554.513672	1225.549072	26298.259766	20059.132813	75.115868
554.859009	1224.286011	26194.384766	19989.958984	75.152580
555.204285	1218.564575	26015.017578	19847.595703	75.127808
555.549500	1226.589355	25784.755859	19698.396484	75.216553
555.894714	1220.125000	25569.427734	19493.765625	75.047897
556.239990	1229.412964	25283.880859	19286.087891	75.065788
556.585022	1223.914429	25049.826172	19086.435547	74.970985
556.930115	1218.564697	24764.650391	18879.949219	75.007729
557.275146	1213.809326	24503.255859	18644.039063	74.841751
557.620178	1217.078613	24279.677734	18465.191406	74.788246
557.965149	1223.319946	24081.291016	18348.089844	74.918152
558.310059	1212.471802	23929.935547	18267.695313	75.075386
558.654968	1213.734985	23799.978516	18157.207031	75.016777
558.999756	1208.756714	23685.703125	18045.009766	74.904541
559.344604	1215.443848	23599.585938	17984.230469	74.913689
559.689331	1212.100342	23488.281250	17950.273438	75.139328
560.033997	1222.502686	23425.343750	17875.302734	75.003014
560.378723	1228.372681	23399.859375	17850.857422	74.972351
560.723389	1221.982544	23372.365234	17811.251953	74.893829
561.067932	1216.929932	23356.093750	17846.400391	75.113365
561.412476	1215.592529	23320.726563	17823.812500	75.132866
561.757019	1221.982544	23316.789063	17795.056641	75.008911
562.101501	1219.604858	23316.046875	17784.134766	74.964691
562.445862	1223.245728	23267.451172	17743.341797	74.940765
562.790222	1227.406616	23236.765625	17730.486328	74.982101
563.134644	1227.852539	23200.353516	17690.513672	74.923927
563.478943	1227.852417	23225.841797	17715.328125	74.949921
563.823181	1221.239380	23288.181641	17736.654297	74.842331
564.167358	1223.022827	23361.666016	17786.287109	74.816078
564.511536	1222.799927	23461.158203	17832.576172	74.689758
564.855774	1223.542847	23482.556641	17825.816406	74.586746
565.199768	1225.400513	23557.529297	17865.271484	74.510902
565.543823	1217.672974	23626.333984	17963.277344	74.728264
565.887817	1217.970215	23817.437500	18095.609375	74.681580
566.231812	1217.895874	23964.187500	18249.416016	74.876030
566.575745	1222.502563	24095.927734	18342.890625	74.848381
566.919617	1225.549072	24208.343750	18500.412109	75.164330
567.263428	1223.171387	24258.576172	18564.164063	75.279739
567.607239	1220.793701	24412.531250	18636.310547	75.093628
567.950989	1218.787598	24501.468750	18693.226563	75.053383
568.294678	1219.679199	24634.843750	18718.638672	74.733444
568.638367	1224.508911	24579.935547	18691.814453	74.789063
568.981995	1222.725708	24497.755859	18606.888672	74.690186
569.325623	1228.521240	24342.833984	18541.054688	74.899628
569.669128	1228.075317	24197.720703	18486.443359	75.135544
570.012573	1231.270386	24043.320313	18380.708984	75.177109
570.356140	1228.892700	23993.906250	18294.814453	74.965569
570.699524	1233.648071	23927.482422	18234.554688	74.914207
571.042908	1235.134155	23995.392578	18274.679688	74.865341
571.386230	1224.583130	24005.203125	18325.132813	75.066216
571.729492	1220.199219	24108.853516	18397.355469	75.046600
572.072815	1215.220947	24168.890625	18492.609375	75.270706
572.416016	1221.759644	24245.869141	18555.248047	75.284081
572.759094	1221.982544	24393.880859	18651.392578	75.217880
573.102234	1222.874146	24457.185547	18680.669922	75.137993
573.445374	1223.171387	24530.150391	18750.291016	75.201164
573.788391	1214.552368	24519.154297	18754.970703	75.265900
574.131409	1220.422241	24539.513672	18752.744141	75.184410
574.474365	1219.753540	24576.218750	18756.162109	75.081604
574.817261	1217.227173	24485.570313	18717.673828	75.211403
575.160156	1208.979614	24331.021484	18607.185547	75.245110
575.502930	1207.567749	24060.187500	18411.841797	75.283592
575.845703	1208.310913	23872.720703	18224.302734	75.078026
576.188477	1210.911499	23621.427734	18046.273438	75.122597
576.531250	1209.202515	23422.076172	17900.937500	75.144417
576.873901	1217.004272	23165.880859	17753.074219	75.339027
577.216431	1214.923828	22955.380859	17603.281250	75.381844
577.559082	1214.255005	22679.048828	17413.585938	75.469307
577.901611	1217.524414	22396.029297	17159.769531	75.275597
578.244080	1219.530518	22084.994141	16923.857422	75.264694
578.586487	1221.759644	21774.560547	16684.378906	75.233635
578.928955	1247.319702	21411.814453	16445.941406	75.373184
579.271301	1249.177368	21086.369141	16187.218750	75.303207
579.613647	1247.542725	20724.587891	15902.862305	75.244057
579.955872	1214.998169	20416.457031	15670.442383	75.283051
580.298157	1211.728882	20107.802734	15463.807617	75.423492
580.640320	1218.787598	19865.203125	15291.203125	75.469818
580.982483	1224.137329	19655.595703	15108.120117	75.327637
581.324524	1228.595581	19444.724609	14953.497070	75.344772
581.666626	1234.168213	19269.964844	14826.512695	75.363152
582.008728	1236.174438	19099.068359	14711.938477	75.439980
582.350647	1234.837036	18963.986328	14587.629883	75.315475
582.692566	1229.635620	18842.798828	14483.159180	75.247826
583.034424	1229.635620	18775.853516	14405.141602	75.090286
583.376343	1225.920532	18663.804688	14348.523438	75.253410
583.718201	1224.806030	18578.353516	14304.090820	75.369522
584.059937	1216.929932	18443.718750	14254.903320	75.684296
584.401611	1221.165161	18369.638672	14177.925781	75.556351
584.743347	1222.874146	18307.373047	14102.878906	75.390007
585.085022	1221.982544	18274.087891	14030.954102	75.116661
585.426514	1224.583130	18191.462891	13978.719727	75.170792
585.768127	1217.152832	18134.619141	13930.795898	75.150986
586.109619	1226.366333	18055.115234	13891.266602	75.257530
586.451172	1223.171265	18041.962891	13856.492188	75.114326
586.792542	1218.415894	17984.453125	13825.359375	75.193344
587.133850	1218.787476	17944.775391	13792.293945	75.173477
587.475220	1217.598755	17918.994141	13767.179688	75.140915
587.816589	1232.161987	17909.630859	13748.828125	75.051353
588.157776	1228.892700	17931.105469	13765.174805	75.057610
588.498962	1234.836914	17959.638672	13807.452148	75.173485
588.840210	1225.474731	17994.853516	13824.393555	75.130501
589.181335	1225.549194	18062.025391	13839.328125	74.919350
589.522400	1217.450195	18080.156250	13854.113281	74.938522
589.863403	1217.375854	18109.132813	13885.840820	74.997910
590.204407	1217.301514	18033.937500	13854.484375	75.146912
590.545410	1215.072388	18075.546875	13860.578125	75.000893
590.886353	1216.632690	18041.146484	13834.942383	74.999550
591.227112	1220.868042	18020.193359	13840.665039	75.120850
591.567932	1223.914429	17957.406250	13814.065430	75.239235
591.908752	1225.920532	17918.843750	13794.747070	75.294334
592.249512	1225.177612	17979.845703	13806.262695	75.090027
592.590149	1230.824585	17932.218750	13759.004883	75.012779
592.930786	1234.836792	17902.275391	13726.609375	74.947159
593.271423	1232.607788	17796.171875	13696.590820	75.249405
593.612000	1229.858643	17727.216797	13663.007813	75.364494
593.952576	1226.143555	17711.613281	13641.088867	75.308418
594.292969	1224.285889	17740.070313	13628.679688	75.106293
594.633484	1216.632690	17796.988281	13657.137695	75.031593
594.973877	1213.957886	17840.900391	13698.895508	75.088593
595.314209	1211.654419	17911.414063	13775.129883	75.231476
595.654480	1213.512085	18066.482422	13890.745117	75.222542
595.994812	1215.889771	18241.541016	13999.079102	75.081947
596.335022	1217.747437	18446.763672	14130.074219	74.945244
596.675171	1221.610962	18585.785156	14238.555664	74.964378
597.015320	1223.617188	18741.375000	14349.118164	74.926834
597.355408	1223.394287	18756.458984	14368.362305	74.972450
597.695496	1225.623413	18813.820313	14385.526367	74.822357
598.035461	1222.279663	18733.052734	14367.026367	75.066628
598.375366	1221.759644	18760.990234	14354.097656	74.874084
598.715271	1221.908325	18712.173828	14318.430664	74.878922
599.055176	1228.744141	18621.154297	14212.624023	74.652565
599.395081	1230.453125	18436.585938	14073.231445	74.640701
599.734802	1224.880371	18178.085938	13884.429688	74.673485
600.074524	1221.610962	17924.119141	13695.551758	74.683037
600.414246	1220.496460	17621.857422	13462.390625	74.639503
600.753906	1220.645020	17291.357422	13205.674805	74.576836
601.093506	1221.908203	16968.585938	12975.187500	74.639740
601.433044	1218.044556	16696.712891	12800.277344	74.827065
601.772583	1218.267456	16555.091797	12661.554688	74.613144
602.112122	1211.728760	16512.888672	12615.413086	74.528236
602.451538	1221.313843	16524.330078	12620.168945	74.487640
602.790894	1219.010376	16574.263672	12701.605469	74.779587
603.130310	1223.097046	16692.701172	12802.209961	74.850739
603.469604	1215.369629	16878.236328	12875.695313	74.445671
603.808838	1220.868042	17134.654297	13070.295898	74.460144
604.148010	1221.165161	17386.615234	13246.762695	74.390739
604.487305	1219.456177	17654.625000	13487.653320	74.646011
604.826416	1219.010376	17834.289063	13606.984375	74.557724
605.165527	1213.734985	17977.320313	13716.356445	74.582024
605.504456	1214.403687	18062.173828	13800.022461	74.701988
605.843445	1218.267456	18140.935547	13845.940430	74.619873
606.182434	1224.583130	18150.000000	13844.676758	74.562973
606.521423	1227.703857	18083.423828	13777.359375	74.453392
606.860229	1219.679199	17982.818359	13696.741211	74.431541
607.199036	1224.137207	17816.158203	13584.023438	74.492950
607.537903	1221.313843	17653.583984	13455.480469	74.452080
607.876648	1226.143555	17394.490234	13292.756836	74.631088
608.215271	1219.159058	17177.599609	13121.192383	74.581429
608.553955	1222.502686	16931.509766	12954.679688	74.684395
608.892578	1226.069214	16749.466797	12787.647461	74.478401
609.231140	1224.954712	16577.083984	12654.125000	74.446808
609.569641	1220.645142	16431.154297	12530.559570	74.355919
609.908081	1222.502808	16294.511719	12471.117188	74.632484
610.246521	1222.428467	16236.036133	12400.901367	74.455605
610.584961	1224.508911	16222.067383	12363.453125	74.271721
610.923340	1215.815308	16227.566406	12309.136719	73.897583
611.261597	1220.124878	16156.831055	12273.323242	74.000237
611.599854	1222.651245	16101.104492	12229.262695	73.976852
611.938110	1224.657471	15998.788086	12165.213867	74.052116
612.276245	1220.570801	15865.710938	12067.429688	74.064560
612.614319	1219.604858	15626.457031	11907.159180	74.183830
612.952393	1218.341675	15376.726563	11677.489258	73.872459
613.290466	1217.672852	15097.421875	11468.328125	73.853317
613.628479	1220.273560	14798.723633	11234.421875	73.750305
613.966370	1225.103149	14510.875977	11063.301758	74.050629
614.304260	1232.013306	14264.934570	10879.329102	74.022667
614.642151	1234.242432	14073.307617	10740.754883	74.043648
614.979980	1230.601685	13908.132813	10616.893555	74.038803
615.317749	1232.310669	13746.002930	10508.262695	74.126419
615.655396	1223.988770	13668.208008	10438.493164	74.046463
615.993164	1217.672974	13601.039063	10381.874023	74.004120
616.330811	1211.134399	13587.143555	10332.685547	73.703491
616.668396	1212.991943	13510.760742	10288.772461	73.800217
617.005859	1211.951660	13465.585938	10241.069336	73.685219
617.343445	1209.945435	13431.109375	10233.862305	73.838440
617.680908	1210.539917	13426.725586	10226.877930	73.806488
618.018311	1218.564575	13417.213867	10239.286133	73.948524
618.355652	1224.062988	13435.343750	10238.692383	73.822136
618.692993	1228.744019	13424.198242	10221.825195	73.741257
619.030273	1234.316772	13434.377930	10224.648438	73.690872
619.367554	1223.765747	13392.323242	10228.735352	74.001945
619.704712	1222.279785	13414.761719	10243.893555	73.993240
620.041870	1223.468628	13384.891602	10235.125000	74.100342
620.379028	1229.189941	13366.019531	10194.481445	73.868469
620.716064	1221.759644	13283.765625	10154.506836	74.056892
621.053040	1217.004272	13240.372070	10089.194336	73.791222
621.389954	1218.267456	13180.708008	10038.446289	73.732269
621.726929	1222.799927	13139.098633	9985.839844	73.538269
622.063843	1222.577026	13089.092773	9939.772461	73.460449
622.400635	1219.010376	13058.554688	9928.106445	73.559387
622.737427	1221.462402	13014.567383	9904.107422	73.624748
623.074219	1217.524292	12962.183594	9910.719727	74.018288
623.410889	1224.137329	12884.092773	9851.203125	73.988838
623.747559	1222.502563	12859.645508	9815.463867	73.840813
624.084167	1224.806030	12829.924805	9793.543945	73.835846
624.420715	1223.097046	12862.097656	9819.921875	73.862228
624.757324	1227.035034	12858.010742	9826.758789	73.938110
625.093750	1228.149658	12905.789063	9851.649414	73.846260
625.430176	1222.131226	12953.936523	9878.696289	73.787155
625.766602	1214.180786	13007.954102	9911.983398	73.749107
626.102905	1214.775146	13076.461914	9959.313477	73.720863
626.439209	1220.125000	13123.495117	9999.510742	73.755463
626.775452	1218.861816	13236.508789	10077.975586	73.717537
627.111694	1213.437744	13296.991211	10141.801758	73.888565
627.447876	1215.592407	13380.210938	10190.469727	73.778534
627.783997	1223.097046	13406.215820	10198.494141	73.670769
628.120056	1228.966919	13455.034180	10205.552734	73.421692
628.456055	1229.115601	13432.668945	10182.519531	73.367188
628.792053	1220.942261	13409.041992	10198.270508	73.656502
629.128052	1213.363403	13325.597656	10157.850586	73.846718
629.463928	1208.756714	13292.608398	10151.758789	74.007874
629.799744	1209.648315	13226.627930	10107.622070	74.045013
630.135559	1208.088013	13154.703125	10044.613281	73.966766
630.471375	1202.812622	13012.784180	9953.145508	74.092751
630.807068	1202.961060	12859.721680	9823.339844	73.951752
631.142700	1211.505981	12710.296875	9714.412109	73.946091
631.478333	1223.245728	12538.807617	9593.001953	73.966774
631.813965	1228.669800	12385.594727	9492.247070	74.066803
632.149475	1231.493286	12255.713867	9380.272461	73.917053
632.484924	1221.759644	12192.409180	9318.378906	73.802551
632.820435	1219.901978	12115.579102	9253.883789	73.735504
633.155884	1214.478149	12041.202148	9190.280273	73.667740
633.491150	1224.806152	11965.116211	9133.586914	73.636429
633.826477	1228.075317	11878.702148	9102.083984	73.930000
634.161804	1224.137207	11805.141602	9078.678711	74.232475
634.497009	1213.066162	11768.956055	9034.319336	74.093735
634.832153	1209.722534	11730.096680	8975.397461	73.815575
635.167297	1217.598755	11670.429688	8915.211914	73.641418
635.502380	1227.926636	11586.245117	8863.125977	73.710800
635.837463	1224.806030	11512.909180	8808.736328	73.715530
636.172424	1227.332153	11439.276367	8755.312500	73.717407
636.507324	1223.468628	11356.426758	8690.891602	73.694405
636.842224	1231.790405	11280.043945	8653.369141	73.859383
637.177124	1234.911133	11187.092773	8588.949219	73.893730
637.511963	1230.453003	11075.637695	8504.317383	73.882454
637.846741	1225.177612	10975.106445	8406.238281	73.652443
638.181396	1215.221069	10866.475586	8308.010742	73.490852
638.516113	1216.409790	10761.487305	8248.122070	73.668472
638.850769	1215.369629	10638.069336	8160.593750	73.707375
639.185303	1214.032104	10540.137695	8085.845215	73.683632
639.519836	1208.830933	10467.321289	8028.706543	73.660774
639.854370	1216.335571	10403.867188	7984.199219	73.663574
640.188843	1223.765869	10336.772461	7950.837402	73.818352
640.523254	1230.824707	10263.509766	7896.373535	73.793655
640.857605	1225.177612	10174.198242	7819.321777	73.685654
641.191895	1224.360229	10105.169922	7762.331543	73.619087
641.526184	1221.833862	10019.053711	7700.734375	73.647133
641.860413	1222.799927	9973.952148	7661.650879	73.577179
642.194580	1222.502563	9896.750977	7610.604004	73.644440
642.528748	1223.765869	9831.735352	7565.279785	73.670258
642.862793	1225.028931	9753.346680	7516.463379	73.771111
643.196838	1223.171509	9698.139648	7477.677246	73.799759
643.530823	1225.994995	9656.307617	7433.169434	73.629234
643.864746	1223.394409	9603.180664	7412.142090	73.853287
644.198669	1211.431641	9579.106445	7384.575684	73.773712
644.532532	1212.248901	9537.793945	7363.622559	73.885536
644.866333	1212.768921	9495.293945	7329.592285	73.852150
645.200073	1223.245605	9449.151367	7307.226563	73.961227
645.533813	1215.146729	9423.145508	7279.363281	73.881790
645.867554	1221.388184	9423.071289	7260.341797	73.630661
646.201172	1225.772095	9398.402344	7247.264160	73.678757
646.534729	1226.292114	9391.121094	7254.992188	73.837433
646.868225	1227.480957	9386.959961	7266.211426	74.008774
647.201782	1222.799805	9400.408203	7246.298828	73.658440
647.535217	1224.063110	9407.690430	7245.853027	73.583382
647.868591	1216.112671	9414.823242	7236.268066	73.428070
648.201965	1218.936157	9393.573242	7239.314453	73.647041
648.535278	1229.487183	9369.202148	7225.791016	73.667244
648.868591	1231.493286	9354.637695	7230.769531	73.854111
649.201782	1229.784302	9354.563477	7220.292969	73.731339
649.534912	1217.152954	9346.761719	7215.388672	73.782585
649.868103	1214.923706	9309.983398	7182.695313	73.721153
650.201172	1213.437744	9280.558594	7167.165527	73.802383
650.534180	1221.536743	9238.131836	7145.320313	73.894012
650.867188	1222.725586	9201.128906	7121.023926	73.928307
651.200134	1225.994995	9196.298828	7100.218750	73.701378
651.533020	1221.313843	9155.953125	7046.498535	73.414612
651.865845	1222.279785	9115.680664	7020.790527	73.460236
652.198608	1220.868042	9037.217773	6991.886230	73.832649
652.531433	1222.948486	9016.338867	6980.443848	73.876640
652.864136	1225.623413	8992.338867	6959.490234	73.826149
653.196777	1313.969238	9042.493164	7022.126953	73.858315
653.529358	1322.142578	8983.792969	6990.325684	73.981232
653.861938	1313.820679	8938.022461	6924.047363	73.584450
654.194519	1225.177612	8802.866211	6788.668457	73.419365
654.526978	1214.700928	8785.033203	6750.996582	73.131477
654.859375	1217.895874	8726.706055	6724.767578	73.338806
655.191833	1215.146729	8704.265625	6698.464355	73.217117
655.524170	1224.137329	8632.340820	6653.288574	73.285667
655.856445	1224.360352	8588.057617	6628.100098	73.383514
656.188660	1228.669800	8542.361328	6598.229980	73.417923
656.520874	1224.434570	8515.834961	6565.759766	73.255135
656.853088	1223.171509	8488.194336	6556.175293	73.406563
657.185181	1219.084839	8480.541992	6549.933594	73.412933
657.517212	1214.180786	8503.500977	6578.911621	73.597137
657.849243	1210.539917	8555.512695	6582.923828	73.143684
658.181274	1209.499634	8617.184570	6628.842285	73.158386
658.513123	1214.700806	8657.901367	6665.103027	73.226593
658.844971	1224.731689	8730.867188	6736.730469	73.433243
659.176819	1227.035034	8797.219727	6783.169922	73.394974
659.508667	1223.617188	8881.478516	6830.203125	73.213470
659.840393	1223.542847	8920.487305	6872.704590	73.394859
660.172058	1227.703857	8946.418945	6892.617188	73.391922
660.503662	1230.230103	8970.938477	6896.927246	73.206444
660.835266	1228.075317	9002.442383	6901.311035	72.973602
661.166931	1224.657471	8978.443359	6889.496582	73.059006
661.498413	1226.737915	8943.743164	6883.775879	73.306129
661.829773	1225.400391	8885.936523	6815.862793	72.977432
662.161194	1230.601685	8814.159180	6739.033691	72.636520
662.492615	1226.960815	8717.417969	6658.043457	72.506691
662.823975	1232.162109	8583.079102	6572.001465	72.641815
663.155212	1231.270386	8453.048828	6469.760254	72.537392
663.486450	1238.329224	8285.199219	6349.315918	72.528465
663.817627	1234.911133	8155.986816	6265.502441	72.685104
664.148743	1230.527344	8035.244629	6183.472168	72.786934
664.479858	1224.806030	7949.722656	6110.654785	72.652924
664.810913	1217.895996	7866.354004	6041.257324	72.548569
665.141907	1218.416016	7789.896973	6001.281738	72.782158
665.472778	1217.450073	7711.136230	5966.359863	73.131187
665.803711	1231.344727	7659.421875	5922.298340	72.975998
666.134583	1231.641968	7580.586426	5891.982910	73.403397
666.465454	1229.709961	7556.958496	5850.967285	73.037392
666.796143	1220.199219	7494.692871	5797.841309	72.956360
667.126831	1218.341675	7490.457520	5760.986816	72.426041
667.457458	1222.131226	7455.832031	5743.822754	72.536232
667.788147	1224.954590	7438.147949	5749.842285	72.827087
668.118774	1228.149536	7401.739746	5729.259766	72.909119
668.449219	1225.994751	7387.102051	5717.222656	72.896439
668.779663	1233.499390	7372.242188	5707.638184	72.883636
669.110107	1224.954712	7364.143066	5690.696777	72.741570
669.440552	1227.480835	7346.756348	5673.458496	72.655296
669.770874	1213.957886	7335.907715	5665.285156	72.710938
670.101135	1214.552246	7314.806152	5652.579590	72.751518
670.431396	1213.437744	7271.561035	5627.613770	72.863754
670.761597	1218.713257	7221.481934	5585.409668	72.744705
671.091797	1223.765747	7199.710938	5551.230469	72.414734
671.421875	1224.731812	7188.490723	5526.115723	72.125381
671.751892	1217.524414	7172.515625	5513.707031	72.144234
672.081909	1218.787598	7134.250000	5487.775879	72.166603
672.411865	1213.660645	7079.562988	5458.426270	72.363388
672.741821	1220.050659	7032.009277	5415.925293	72.193817
673.071716	1216.706909	6985.050293	5414.364746	72.770592
673.401550	1216.186890	6939.130859	5394.229004	73.005119
673.731262	1218.118774	6888.233887	5377.436035	73.355080
674.060974	1217.747192	6857.917969	5339.913574	73.085846
674.390625	1225.326050	6845.360840	5306.180176	72.612610
674.720276	1222.056763	6833.101563	5260.409668	71.971497
675.049927	1220.645020	6788.296875	5223.109375	71.887833
675.379395	1221.239624	6750.848145	5193.760254	71.840904
675.708923	1219.456177	6702.699707	5165.599609	71.967323
676.038330	1220.422241	6688.805176	5155.048340	71.952278
676.367737	1222.279785	6665.474121	5132.386230	71.834778
676.697083	1223.542969	6643.480469	5121.240723	71.914070
677.026428	1228.521240	6602.465332	5092.337402	71.899071
677.355652	1221.462402	6563.382324	5074.801270	72.133972
677.684875	1221.982544	6547.035156	5081.637695	72.481071
678.013977	1218.416016	6554.688965	5076.733398	72.303596
678.343079	1217.895874	6564.645996	5075.618652	72.150795
678.672180	1218.861816	6573.859375	5065.662109	71.835709
679.001221	1223.319946	6595.035156	5092.114258	72.021584
679.330139	1222.577026	6622.972656	5119.011230	72.150902
679.659058	1222.056885	6641.177246	5139.816406	72.295120
679.987976	1218.267456	6661.536621	5156.683105	72.353867
680.316772	1218.639038	6696.310059	5179.568359	72.310463
680.645630	1214.032227	6744.458496	5196.137695	72.003593
680.974304	1217.747314	6771.132813	5202.676758	71.756752
681.302979	1215.666870	6790.377441	5216.571289	71.768829
681.631653	1222.279785	6797.287598	5231.357910	71.911613
681.960266	1220.942383	6816.754395	5245.029297	71.912476
682.288757	1227.480957	6818.611816	5253.722168	72.011215
682.617249	1225.326172	6830.425781	5266.205078	72.092903
682.945679	1222.874268	6815.714355	5251.642090	72.034386
683.274109	1222.502686	6787.330566	5229.425781	72.004433
683.602478	1225.994995	6727.442871	5183.357910	71.933113
683.930725	1227.629639	6645.857910	5132.237793	72.064293
684.259033	1221.833984	6571.853027	5073.687012	71.996994
684.587280	1215.221069	6520.509766	5028.213379	71.871529
684.915344	1217.152954	6486.701660	4989.947754	71.596169
685.243469	1222.948608	6430.454590	4944.548828	71.466080
685.571533	1229.115723	6354.665527	4898.035156	71.580994
685.899536	1228.298340	6287.125000	4859.992676	71.789261
686.227539	1233.053589	6223.595703	4830.271484	72.080704
686.555420	1233.722290	6196.994629	4810.729492	72.069534
686.883301	1230.453125	6177.453613	4795.274414	72.060257
687.211121	1223.988647	6197.515625	4779.894043	71.496651
687.538940	1221.982544	6186.072754	4768.823242	71.449966
687.866638	1223.097046	6182.506348	4767.485840	71.467964
688.194336	1226.589233	6158.506348	4770.903809	71.864845
688.521973	1227.629517	6145.429688	4762.062012	71.870193
688.849609	1229.115601	6125.664551	4735.015137	71.599396
689.177063	1226.737915	6104.117188	4710.569824	71.428360
689.504578	1229.338623	6069.789063	4668.291016	71.046127
689.832031	1230.973267	5999.053223	4629.356445	71.273621
690.159485	1223.394287	5903.277344	4580.985840	71.745209
690.486816	1213.512085	5817.977051	4542.125488	72.290993
690.814087	1212.546021	5776.517090	4501.853516	72.071175
691.141296	1220.348022	5719.749512	4446.052246	71.691849
691.468506	1227.109497	5673.979004	4407.488770	71.519508
691.795715	1224.880371	5594.623535	4349.012695	71.494644
692.122803	1220.868042	5533.323730	4308.814941	71.605301
692.449829	1218.267456	5456.717285	4260.518555	71.777443
692.776855	1217.673096	5386.501465	4225.001465	72.138458
693.103821	1227.629517	5352.916016	4192.902832	71.880424
693.430664	1229.487183	5310.192383	4152.481934	71.629646
693.757568	1234.168213	5278.985352	4127.739258	71.537750
694.084351	1223.542969	5236.187012	4100.470215	71.696548
694.411133	1225.549072	5217.239746	4072.309326	71.317154
694.737854	1218.564575	5171.692383	4040.433350	71.383186
695.064575	1221.536743	5133.277832	4020.222900	71.545784
695.391174	1221.165161	5093.971680	4007.442627	71.944656
695.717773	1224.583130	5099.990234	4005.213623	71.750664
696.044250	1223.765747	5101.402344	4005.213623	71.730492
696.370789	1219.456299	5103.631348	4020.891846	72.124336
696.697205	1217.152832	5106.751465	4040.582031	72.589218
697.023621	1209.499634	5151.036133	4059.529297	72.307579
697.349915	1214.180786	5208.174805	4084.940674	71.876915
697.676208	1214.478027	5276.830566	4116.816406	71.444771
698.002380	1219.159058	5348.458496	4174.104004	71.560440
698.328674	1219.530640	5428.111328	4230.351074	71.540039
698.654724	1221.016724	5522.549316	4304.505371	71.683487
698.980896	1221.388184	5594.994629	4366.473633	71.910576
699.306946	1215.072388	5655.105469	4422.721191	72.243805
699.632935	1214.700806	5685.421387	4450.510254	72.377808
699.958862	1222.651245	5693.074707	4471.017578	72.663506
700.284729	1221.982544	5694.635254	4469.159668	72.600700
700.610596	1226.589355	5669.817871	4444.714355	72.427628
700.936340	1220.942383	5636.009766	4397.903809	71.957260
701.262146	1223.097168	5569.212402	4329.916504	71.484970
701.587830	1223.765869	5471.280762	4245.657715	71.144943
701.913513	1224.806030	5360.569824	4167.491211	71.152161
702.239075	1223.319946	5235.443848	4090.810547	71.470642
702.564697	1217.598755	5123.320801	4009.597656	71.484833
702.890137	1215.369629	5000.127441	3907.283203	71.125122
703.215698	1213.586304	4889.713379	3822.354736	70.965141
703.541016	1214.849487	4806.939941	3770.788818	71.154655
703.866455	1212.397339	4743.263184	3728.881836	71.271027
704.191711	1217.747192	4687.684570	3692.250732	71.312622
704.517029	1224.137329	4624.080566	3653.761963	71.460732
704.842163	1229.710083	4564.713379	3607.025635	71.283745
705.167419	1234.911255	4527.041504	3584.140625	71.358948
705.492493	1232.013550	4489.221680	3542.976807	70.949211
705.817566	1227.555176	4456.528320	3514.518799	70.826347
706.142578	1214.775146	4416.479004	3476.921631	70.654457
706.467590	1207.716431	4394.188477	3472.388916	71.071465
706.792480	1210.242676	4368.256836	3462.952393	71.333107
707.117371	1220.273560	4348.492676	3449.578125	71.264336
707.442200	1224.880249	4336.306641	3431.373779	70.915825
707.766907	1228.446777	4329.024902	3432.636719	71.089645
708.091675	1228.818237	4334.969238	3443.039307	71.285049
708.416321	1229.858521	4341.136230	3442.742432	71.124596
708.741028	1230.081665	4361.718262	3450.024170	70.887611
709.065552	1228.744263	4376.059082	3449.429688	70.558098
709.390137	1228.001099	4395.451660	3461.243896	70.505997
709.714600	1226.515015	4419.897461	3487.100830	70.789703
710.039063	1225.994995	4446.646484	3511.100830	70.951668
710.363403	1228.669800	4469.531250	3541.193359	71.355209
710.687744	1222.428345	4505.196777	3567.719727	71.442490
711.012085	1224.137329	4546.955078	3593.354248	71.301437
711.336304	1221.090820	4580.614258	3624.561279	71.542007
711.660461	1225.474731	4605.654297	3636.821045	71.337814
711.984619	1223.765747	4617.616699	3648.486572	71.444519
712.308716	1226.440796	4624.081055	3645.737549	71.205215
712.632751	1226.663696	4607.288574	3663.049805	72.069107
712.956726	1219.679199	4577.716309	3647.594971	72.301636
713.280701	1218.267456	4550.149414	3620.251709	72.090919
713.604553	1217.895874	4525.406738	3572.103516	71.177620
713.928467	1227.035034	4497.395020	3544.165283	70.852455
714.252258	1228.669800	4466.931152	3525.515381	70.928360
714.575989	1228.223999	4431.117188	3494.085205	70.744209
714.899719	1219.307739	4389.210449	3472.314453	71.074951
715.223267	1212.917603	4344.702637	3448.612061	71.387222
715.546936	1212.769043	4297.743652	3421.789063	71.605774
715.870422	1217.004272	4264.158691	3386.718018	71.204597
716.193970	1221.313843	4229.533691	3361.380615	71.140648
716.517395	1223.691528	4202.562012	3337.455322	70.958557
716.840820	1223.319946	4177.150391	3324.898193	71.147552
717.164124	1222.502563	4145.274902	3301.864258	71.143471
717.487488	1217.152954	4110.203613	3277.270264	71.209160
717.810730	1215.369751	4077.510498	3257.357178	71.344765
718.133972	1214.700928	4037.832764	3222.137695	71.106728
718.457092	1219.010498	3995.554443	3184.317627	70.782494
718.780212	1221.313843	3947.852295	3145.308594	70.565468
719.103210	1223.765991	3899.035156	3115.290039	70.704071
719.426208	1220.645142	3858.168701	3096.268555	71.113052
719.749207	1219.604858	3819.977295	3065.804688	70.997513
720.072083	1218.118774	3784.311768	3035.712158	70.828400
720.394958	1219.456177	3742.331055	2997.446045	70.474754
720.717773	1222.428345	3688.015625	2977.978516	71.202110
721.040527	1228.446899	3651.681641	2945.879883	70.873566
721.363281	1230.007202	3620.771484	2936.815186	71.391731
721.685913	1224.063110	3611.781006	2910.363281	70.623932
722.008545	1215.741089	3581.539795	2895.131104	70.986168
722.331055	1213.437866	3540.376221	2872.766357	71.309509
722.653503	1220.793701	3510.729492	2842.822266	70.832932
722.976013	1225.251831	3509.168945	2834.128906	70.443764
723.298401	1224.731812	3510.283447	2821.274414	69.853706
723.620789	1219.010498	3500.178467	2816.221680	70.017258
723.943115	1215.221069	3482.717041	2805.001953	70.111740
724.265381	1216.112671	3468.971436	2813.472656	70.903687
724.587585	1220.273560	3469.937256	2809.682861	70.650978
724.909790	1228.223999	3461.243408	2819.788086	71.274078
725.231873	1231.270386	3475.212646	2805.373779	70.149010
725.553894	1228.521118	3464.067139	2817.782227	71.090515
725.875916	1244.496216	3495.794189	2831.676758	70.500694
726.197937	1248.137207	3492.822266	2842.524658	71.029449
726.519775	1251.926636	3498.840576	2828.853271	70.181885
726.841675	1228.892700	3487.323486	2808.271484	69.932579
727.163513	1223.542847	3492.748047	2807.677002	69.810089
727.485291	1215.666870	3508.054443	2827.589844	70.316330
727.806946	1207.344971	3523.509521	2842.599365	70.601822
728.128662	1206.230469	3548.029297	2850.846924	70.228767
728.450256	1209.796997	3574.555420	2872.468750	70.310432
728.771790	1217.895996	3585.329102	2874.475342	69.973648
729.093323	1218.416138	3590.158936	2882.202393	70.150368
729.414795	1217.524414	3580.722412	2869.274170	69.894684
729.736145	1220.570801	3571.508789	2869.274170	70.129601
730.057495	1218.416016	3574.778320	2862.884033	69.788422
730.378845	1225.177612	3572.029053	2864.741455	69.862274
730.700134	1223.319946	3568.462646	2872.097656	70.306076
731.021301	1220.050781	3563.484375	2877.670166	70.734642
731.342468	1218.490356	3572.994873	2878.413330	70.499886
731.663574	1216.930054	3584.734619	2877.075928	70.113297
731.984680	1220.496582	3599.000732	2877.075439	69.647926
732.305664	1218.639038	3598.109131	2877.669922	69.722702
732.626648	1223.988770	3599.818115	2877.447266	69.595001
732.947571	1225.251831	3570.542725	2874.846680	70.336464
733.268433	1219.827759	3577.453125	2884.728760	70.617706
733.589233	1212.843384	3575.075439	2878.264404	70.502014
733.909973	1214.626587	3577.007080	2873.732178	70.230247
734.230713	1215.146851	3536.289307	2850.400635	70.450378
734.551331	1216.930054	3485.391846	2830.636475	71.136589
734.871948	1213.512085	3444.822998	2804.035889	71.282028
735.192505	1216.112671	3402.395752	2777.064453	71.397514
735.513062	1217.301514	3372.823486	2746.971436	70.965172
735.833435	1222.799805	3352.464600	2712.569336	69.953239
736.153931	1222.577026	3336.935303	2678.315674	68.850136
736.474304	1227.926880	3311.597900	2660.483154	68.751564
736.794617	1230.675903	3268.130859	2641.387451	69.238907
737.114807	1237.883423	3245.914307	2634.477295	69.550415
737.434998	1234.911255	3225.629639	2617.684814	69.461037
737.755188	1235.654175	3242.050781	2617.387939	68.866432
738.075256	1224.583130	3250.149658	2616.422119	68.713562
738.395325	1224.806030	3264.935791	2622.366211	68.503494
738.715271	1222.279785	3267.387695	2628.755859	68.772705
739.035278	1232.161987	3272.886475	2643.467773	69.157097
739.355164	1230.230103	3288.787109	2649.857666	68.962265
739.675049	1229.710083	3285.369141	2650.080811	69.095634
739.994873	1222.205444	3271.920654	2646.959961	69.509872
740.314636	1222.279663	3255.350830	2642.650391	69.863304
740.634277	1220.942261	3245.022705	2644.656494	70.338814
740.953979	1224.211548	3241.530518	2628.830322	69.627998
741.273499	1215.369629	3215.375977	2618.427979	70.152695
741.593140	1209.722656	3188.329346	2601.338135	70.333099
741.912598	1206.824829	3140.776123	2579.567627	70.981247
742.232117	1215.964111	3115.884766	2549.251953	70.175972
742.551453	1217.152832	3082.151123	2523.765869	70.059746
742.870850	1224.137329	3052.207275	2507.642578	70.210945
743.190063	1226.069214	3022.783203	2488.175293	70.245239
743.509338	1234.391113	3000.195313	2460.608887	69.442451
743.828552	1230.750244	2992.096436	2432.299561	68.217667
744.147705	1230.230225	2959.700195	2413.203857	68.400932
744.466797	1222.131226	2930.201904	2391.581543	68.466156
744.785828	1218.936157	2900.183594	2380.733398	69.103287
745.104858	1216.632690	2890.895752	2365.204346	68.601624
745.423706	1219.307617	2886.660889	2366.318848	68.792336
745.742615	1221.239624	2875.663818	2358.665771	68.750572
746.061401	1223.022827	2871.577393	2355.842041	68.715904
746.380249	1221.833984	2858.648682	2348.188721	68.813820
746.698975	1221.908203	2838.141357	2339.346924	69.138458
747.017639	1220.645020	2818.896484	2329.316162	69.367752
747.336304	1219.084717	2815.255859	2321.885742	69.090401
747.654907	1226.366333	2812.060791	2313.192139	68.539421
747.973389	1228.075317	2808.791260	2317.130371	68.896317
748.291931	1231.121704	2791.999023	2314.604004	69.414955
748.610352	1224.583130	2792.667969	2311.483154	69.313850
748.928711	1221.685303	2797.943359	2303.978760	68.662201
749.247070	1219.084839	2803.813232	2299.669189	68.187355
749.565308	1215.369629	2806.636719	2309.328369	68.747650
749.883545	1218.787476	2792.965088	2310.963135	69.380714
750.201782	1216.409790	2784.568604	2302.269775	69.244263
750.519836	1216.707031	2776.618408	2289.564209	68.776802
750.837952	1212.991943	2767.925049	2278.195801	68.504807
751.155884	1221.610962	2747.640381	2271.731445	68.813911
751.473877	1223.468628	2740.952881	2270.319580	68.985954
751.791809	1226.366333	2728.172852	2264.821289	69.147057
752.109619	1225.846313	2731.665283	2259.471436	68.642059
752.427490	1223.617188	2724.829346	2243.422119	67.932098
752.745300	1223.988647	2722.302979	2246.988525	68.276718
753.062988	1217.821655	2718.810791	2244.685303	68.412460
753.380615	1218.787598	2716.284424	2242.456055	68.358643
753.698303	1215.741089	2703.950439	2237.031982	68.625488
754.015808	1219.604858	2697.783447	2234.059814	68.628716
754.333374	1223.097046	2686.935303	2230.493408	68.818832
754.650757	1227.926636	2704.693604	2230.419189	67.884277
754.968262	1229.264160	2697.114502	2245.056885	69.202744
755.285583	1227.406616	2696.148438	2254.790283	69.949913
755.602905	1219.753540	2674.823486	2242.382080	70.280373
755.920105	1214.180786	2673.040283	2224.549316	69.257423
756.237305	1215.666870	2655.207764	2212.363525	69.237122
756.554443	1214.849487	2653.052734	2209.614258	69.167191
756.871582	1214.923828	2637.300781	2205.304688	69.628578
757.188599	1211.282959	2645.548340	2195.125244	68.595551
757.505615	1222.651245	2655.133545	2206.939453	68.712067
757.822510	1233.499390	2681.733887	2208.945557	67.354156
758.139465	1236.768677	2698.229248	2231.013428	68.030899
758.456238	1228.966919	2704.990479	2236.363281	68.250694
758.773010	1222.205444	2722.080078	2242.827637	68.047165
759.089783	1227.629517	2731.591064	2250.257813	67.995644
759.406433	1229.264160	2741.844971	2248.028809	67.352745
759.723145	1223.468628	2735.083252	2250.183350	67.921722
760.039673	1215.963989	2740.507080	2241.787354	67.287270
760.356201	1216.187012	2746.451416	2242.678955	67.079384
760.672668	1223.468628	2739.169922	2249.291748	67.679771
760.989136	1228.001099	2716.358887	2251.966797	68.798355
761.305481	1227.555298	2703.058838	2247.285889	69.110687
761.621826	1226.069214	2721.931396	2236.809082	67.569054
761.938049	1226.440796	2744.890869	2243.422119	66.974960
762.254333	1229.635742	2767.925049	2259.471436	66.946815
762.570496	1230.973267	2786.574951	2301.675293	68.828804
762.886597	1231.790649	2861.843750	2343.656250	68.210388
763.202637	1227.480957	2957.397217	2408.968262	68.297371
763.518677	1225.771851	3084.677734	2487.506104	67.875099
763.834656	1219.158936	3196.874756	2565.524170	68.076782
764.150574	1217.152832	3304.241943	2630.019287	67.695549
764.466370	1212.323120	3363.386719	2669.845215	67.758209
764.782288	1209.871216	3379.733398	2683.665527	67.921097
765.097961	1210.465576	3358.557373	2682.105225	68.509163
765.413696	1214.403687	3312.266602	2641.535889	68.027908
765.729309	1222.948486	3251.338623	2594.279541	67.606865
766.044861	1221.462280	3160.466064	2526.961182	67.328331
766.360474	1218.713135	3060.677734	2460.906006	67.438477
766.675903	1212.991821	2951.081055	2382.665283	67.296516
766.991394	1218.341675	2867.416260	2318.319336	66.702721
767.306763	1222.428345	2781.522461	2264.672607	66.849350
767.622131	1227.480957	2713.981201	2227.223877	67.254814
767.937378	1223.988647	2633.585693	2183.162354	68.045952
768.252625	1229.412842	2588.632568	2150.617920	67.774551
768.567810	1229.709961	2544.793701	2129.738525	68.438881
768.882996	1228.001099	2522.874512	2103.287109	67.596260
769.197998	1230.973145	2491.667236	2077.801270	67.171577
769.513062	1222.948486	2458.231201	2057.442383	67.554893
769.828064	1224.211670	2422.417480	2039.758301	68.063988
770.142944	1225.920532	2392.176270	2027.052612	68.692657
770.457825	1232.459229	2380.510742	2009.591309	67.691391
770.772705	1232.756470	2364.312500	2009.591309	68.651909
771.087402	1218.713257	2351.606689	2002.235352	69.161148
771.402100	1213.214844	2320.176514	1988.266479	70.016121
771.716736	1211.580200	2313.861084	1958.619751	67.772156
772.031372	1213.289185	2301.972656	1940.564331	66.803177
772.345947	1219.456299	2307.693848	1929.567383	65.253319
772.660461	1227.332397	2280.945068	1932.762329	66.953438
772.974854	1229.487061	2261.328857	1925.852173	67.487587
773.289246	1229.264160	2229.007324	1912.106079	68.301735
773.603638	1224.285767	2221.428467	1902.446899	68.010437
773.917908	1226.663696	2209.168701	1891.375854	67.654839
774.232178	1227.035156	2206.122070	1892.118774	67.928963
774.546265	1223.914551	2207.385254	1879.338867	66.644012
774.860474	1213.437866	2209.168701	1874.063354	66.345787
775.174561	1210.837158	2196.314209	1871.536987	67.043655
775.488586	1217.375854	2172.760010	1869.679565	68.276588
775.802551	1226.663574	2157.230713	1869.902344	69.123306
776.116516	1227.778198	2155.819092	1852.664063	67.333870
776.430359	1227.703857	2152.772705	1837.134766	65.879517
776.744202	1224.137329	2134.419922	1824.280396	65.929314
777.057922	1220.570679	2117.552979	1817.741699	66.575562
777.371704	1216.855591	2111.460205	1823.388672	67.799011
777.685303	1219.976318	2120.228271	1818.335938	66.465797
777.998962	1225.994873	2121.119873	1826.509399	67.087227
778.312500	1222.354126	2110.791748	1814.843872	66.688950
778.626038	1222.577026	2107.002197	1813.135132	66.773102
778.939453	1214.032227	2104.996094	1812.986450	67.225426
779.252869	1219.530640	2100.612061	1822.571655	68.443275
779.566223	1230.676025	2088.946533	1820.045288	68.669403
779.879578	1237.363159	2083.596924	1808.305298	67.468605
780.192749	1235.282715	2082.631104	1802.286743	66.915100
780.505920	1219.233398	2074.680664	1799.686157	67.853714
780.819031	1214.329468	2061.157471	1789.804077	67.956490
781.132141	1216.409912	2061.677490	1786.460327	67.440231
781.445190	1214.626587	2070.148193	1788.243652	67.048813
781.758118	1213.586304	2074.977783	1789.655396	66.876572
782.071045	1214.180786	2069.553711	1777.321167	65.835655
782.383911	1209.796875	2053.801514	1768.107422	66.150177
782.696838	1209.648315	2048.377686	1761.123047	65.751213
783.009583	1206.824829	2036.414673	1759.042603	66.565155
783.322266	1218.564697	2018.805054	1752.652466	66.740921
783.634888	1225.697754	2004.092896	1742.621704	66.408936
783.947510	1224.434448	1995.622437	1738.609375	66.673096
784.260132	1222.279785	1996.365601	1730.807617	65.693985
784.572571	1220.496460	1986.186035	1734.597046	67.142166
784.885010	1231.047485	1976.823853	1731.104858	67.051918
785.197449	1238.403442	1969.319214	1726.126465	66.727661
785.509766	1235.579956	1970.285156	1721.817017	66.181244
785.822083	1228.446899	1967.981812	1710.522949	65.186378
786.134277	1218.936157	1958.693970	1702.646851	65.387711
786.446533	1215.889771	1955.350220	1697.297241	65.102531
786.758606	1214.329346	1952.006836	1704.875977	66.498795
787.070740	1225.028931	1964.861206	1718.176147	66.656624
787.382690	1234.762695	1969.244995	1727.761108	67.121895
787.694641	1236.991699	1985.071411	1732.739258	66.269348
788.006653	1222.279785	2001.640991	1746.262573	67.232338
788.318481	1215.295288	2032.105103	1764.689575	67.260979
788.630310	1217.524414	2049.194580	1777.172485	67.292068
788.942017	1224.434570	2058.631348	1784.677124	67.159523
789.253784	1232.236328	2063.906738	1773.011597	65.022789
789.565430	1229.264282	2067.176025	1775.240601	65.159164
789.877014	1225.474731	2057.293701	1766.621460	65.055832
790.188538	1221.536621	2025.566406	1766.324219	67.757141
790.500061	1228.521118	2000.972168	1759.265625	68.709145
790.811462	1238.106079	1989.529663	1751.686646	68.347679
791.122925	1236.694458	1979.424438	1735.860229	67.206894
791.434204	1225.103271	1958.545410	1718.993530	67.338684
791.745483	1218.713257	1938.780884	1703.835571	67.371773
792.056702	1220.422119	1919.684937	1699.154663	68.462463
792.367920	1234.985474	1912.403320	1689.866699	67.149284
792.678955	1232.310547	1891.672852	1681.321899	68.097816
792.990112	1228.149658	1886.174683	1674.783203	67.874855
793.301086	1221.165161	1882.385132	1673.000000	68.333511
793.612122	1225.177612	1880.304688	1661.928833	66.666641
793.922974	1235.728394	1875.177734	1651.972290	65.094116
794.233826	1228.223999	1867.004517	1649.817749	65.999779
794.544556	1220.422241	1873.394531	1653.978638	66.397362
794.855286	1213.957886	1871.908569	1659.551270	67.724434
795.166016	1212.026001	1868.787720	1658.585327	67.994118
795.476624	1216.632813	1870.942383	1662.671875	68.169426
795.787292	1215.146729	1884.168335	1673.668823	68.536217
796.097778	1218.341675	1904.601563	1679.687134	67.226059
796.408264	1220.199219	1923.548828	1686.597534	66.311020
796.718689	1220.719360	1935.882935	1685.334351	64.966255
797.029053	1219.679077	1937.146118	1687.786255	65.244415
797.339355	1226.292114	1924.737671	1689.346680	66.297874
797.649658	1220.570801	1914.409546	1687.786499	67.337791
797.959839	1223.691528	1908.614136	1683.253906	67.096977
798.270020	1212.991943	1907.350952	1670.845337	65.939003
798.580078	1218.861938	1899.994751	1664.306641	65.397629
798.890137	1223.542969	1894.942383	1655.241699	64.298347
799.200195	1222.056763	1885.208618	1655.984741	65.434181
799.510071	1225.549072	1871.314087	1642.610229	64.584045
799.820007	1220.421997	1855.636108	1640.083984	66.066223
800.129883	1219.753296	1837.357788	1635.402832	67.300278
800.439575	1210.762817	1827.698364	1634.139648	68.625778
800.749329	1211.208740	1821.902832	1625.000610	67.757637
801.058960	1217.078735	1820.862671	1618.238892	66.441010
801.368591	1219.159058	1825.989258	1616.009888	65.397346
801.678162	1221.611084	1824.057617	1617.124390	65.651192
801.987671	1223.765747	1823.983276	1619.279297	65.895035
802.297119	1223.765869	1811.203125	1616.901367	66.923828
802.606506	1220.570801	1814.769531	1611.997559	65.874718
802.915894	1221.759644	1806.299194	1602.486816	65.132835
803.225159	1222.799927	1801.246582	1607.911011	66.576767
803.534424	1222.428345	1784.082642	1602.338013	67.641190
803.843628	1213.289063	1784.379883	1601.669312	68.006737
804.152771	1215.889648	1790.918579	1592.827271	65.551071
804.461792	1218.787598	1789.506714	1593.941895	65.733612
804.770874	1222.502808	1789.432495	1597.508423	66.146759
805.079773	1218.787598	1787.351929	1602.561035	67.498680
805.388733	1213.140625	1801.172241	1609.842773	67.462723
805.697571	1213.066284	1807.710938	1613.037720	67.262260
806.006470	1218.416016	1818.484741	1602.784058	64.054001
806.315125	1220.645142	1817.221680	1606.796387	64.727859
806.623901	1226.886475	1824.503296	1607.316406	63.657837
806.932495	1224.137207	1816.107056	1615.118164	66.047447
807.241150	1217.970215	1813.283691	1610.437134	65.926094
807.549622	1217.895996	1796.639771	1603.824219	66.683777
807.858154	1216.484253	1789.655273	1609.471191	68.563644
808.166565	1225.474731	1781.853516	1606.350586	68.456215
808.474915	1221.833984	1776.652344	1606.722046	69.371902
808.783264	1223.988770	1775.760742	1595.205078	67.277122
809.091492	1225.400513	1764.541016	1585.248535	66.744759
809.399719	1222.651245	1763.946655	1575.143433	65.120117
809.707825	1222.205444	1762.609009	1570.462280	64.443848
810.015930	1218.193115	1761.197266	1564.518066	63.779430
810.323975	1214.032104	1760.751587	1565.558228	64.297348
810.632080	1205.264404	1752.057983	1563.700806	65.552414
810.939880	1206.527466	1759.191040	1571.874023	66.106499
811.247864	1210.837158	1753.395508	1571.428223	66.461250
811.555664	1219.679199	1740.244141	1569.570679	67.213799
811.863464	1228.966919	1723.303101	1557.087769	66.376053
812.171143	1232.607910	1715.947144	1547.948608	65.242104
812.478882	1240.186768	1719.216309	1547.725586	64.200386
812.786438	1237.437622	1729.470093	1543.118774	62.126217
813.094055	1235.059814	1729.692993	1546.388306	62.941288
813.401489	1227.035034	1726.423828	1528.778442	60.422543
813.708984	1219.381958	1715.946899	1525.955078	61.738777
814.016357	1221.982544	1710.745972	1524.468872	61.888084
814.323730	1223.319946	1706.064819	1537.694824	65.122368
814.630981	1219.084839	1701.086548	1541.335571	66.856758
814.938232	1212.843262	1697.891602	1540.369751	67.524506
815.245361	1211.505859	1697.594360	1538.958008	67.364716
815.552490	1207.642090	1703.390015	1536.357422	66.306953
815.859619	1210.837158	1705.247559	1535.688477	65.704788
816.166565	1210.911499	1714.460938	1533.162476	63.995895
816.473572	1224.062988	1706.510620	1543.193237	66.148163
816.780457	1228.446777	1702.795532	1542.004517	66.102783
817.087341	1225.028931	1699.005981	1537.992065	66.029175
817.394043	1217.004272	1706.213379	1534.054077	64.808647
817.700806	1210.763062	1713.792358	1539.106445	65.273216
818.007507	1209.871216	1723.600220	1548.245728	65.866341
818.314209	1215.369629	1738.312134	1549.806152	63.952827
818.620667	1223.617065	1749.234741	1559.242676	63.853561
818.927246	1230.750122	1750.572144	1570.610962	65.380234
819.233704	1227.406616	1764.615234	1593.496094	68.146614
819.540161	1225.697632	1785.419922	1609.471191	68.564995
819.846497	1227.852417	1824.206055	1629.161499	67.293808
820.152832	1223.022827	1858.088257	1658.288086	68.538651
820.458984	1217.970215	1905.716309	1681.321899	67.372490
820.765259	1211.803101	1969.096558	1720.108032	67.121262
821.071350	1216.855591	2052.984131	1769.370728	66.080170
821.377502	1214.552246	2194.605225	1860.688843	65.928741
821.683472	1214.477905	2438.615479	2024.749023	66.191177
821.989441	1216.707031	2878.190430	2306.356445	65.582924
822.295349	1219.233276	3501.515625	2712.346436	65.421936
822.601196	1223.171387	4227.156250	3161.877930	64.537827
822.907043	1226.143555	4834.952637	3556.053955	64.561752
823.212769	1219.976440	5185.437988	3777.996094	64.507484
823.518494	1220.125000	5212.930176	3808.906006	64.836143
823.824097	1213.437866	5004.511230	3663.421143	64.625061
824.129700	1223.617188	4676.984863	3444.525391	64.311371
824.435242	1224.211548	4315.428223	3212.923828	64.334290
824.740723	1221.016602	3975.344482	3010.151611	64.957230
825.046082	1228.744019	3655.248047	2808.940186	65.122345
825.351501	1227.257935	3344.662842	2599.629150	64.813835
825.656799	1232.533447	3060.083252	2408.820068	64.364136
825.962036	1217.450073	2809.906006	2257.093750	65.285553
826.267212	1215.220947	2656.322510	2156.190674	65.295174
826.572449	1216.707031	2584.397461	2106.036377	65.024170
826.877502	1221.090942	2629.573242	2124.240479	64.122177
827.182495	1225.549072	2746.302734	2200.623535	64.117844
827.487488	1224.806030	2889.038330	2287.557617	63.858368
827.792419	1226.960815	2992.764893	2356.733643	63.980644
828.097290	1221.313843	3008.443115	2379.767578	64.822044
828.402100	1220.347778	2959.625977	2347.371826	64.798378
828.706848	1217.227173	2833.682861	2266.753174	64.927605
829.011597	1224.286011	2685.226074	2164.809814	64.377991
829.316223	1227.926758	2536.546387	2070.222412	64.365204
829.620789	1226.292114	2406.590820	1988.117798	64.545158
829.925354	1218.564575	2284.214355	1912.626465	65.130394
830.229797	1213.957886	2154.779053	1834.088501	65.913757
830.534302	1216.855591	2035.746094	1755.550415	65.783501
830.838562	1221.165161	1941.530151	1686.448853	64.589989
831.142944	1225.920532	1867.301758	1635.923218	63.924957
831.447144	1227.332397	1811.128906	1604.344360	64.579346
831.751404	1228.818481	1773.011719	1590.301270	66.425446
832.055542	1226.589355	1754.807495	1575.515015	66.057114
832.359619	1230.007202	1757.333618	1572.691406	64.985214
832.663635	1229.635742	1771.302612	1565.038208	61.920433
832.967651	1228.966919	1795.153687	1590.598267	63.871387
833.271545	1226.663574	1846.942505	1621.879761	63.715881
833.575439	1225.474731	1933.579590	1687.340454	65.225609
833.879211	1227.183716	2049.268799	1761.568848	65.003632
834.183044	1224.880371	2166.964355	1836.763306	64.949936
834.486694	1220.199219	2251.520752	1893.084595	65.244965
834.790344	1221.165161	2288.375244	1909.357056	64.485138
835.093933	1217.895874	2270.245361	1904.973145	65.289841
835.397522	1219.901978	2215.038574	1872.057007	65.534225
835.700928	1215.963989	2147.868896	1840.775513	67.046707
836.004395	1220.942261	2081.070557	1796.119629	66.871117
836.307739	1218.341675	2012.637817	1751.315063	67.100082
836.611023	1216.409790	1950.520874	1697.594238	65.546547
836.914307	1215.666870	1883.276855	1651.600952	65.297714
837.217529	1220.719360	1821.159790	1609.545532	64.756828
837.520691	1226.143433	1756.739258	1574.548828	65.663048
837.823730	1227.480957	1712.752075	1541.112671	64.630203
838.126831	1222.428345	1673.594604	1514.512329	64.739769
838.429749	1222.279785	1652.789673	1498.017090	64.049004
838.732727	1217.301636	1622.994263	1482.933716	65.476189
839.035522	1216.112671	1612.294556	1483.305298	67.441910
839.338379	1212.917603	1600.257813	1474.166016	67.446754
839.641113	1213.957886	1606.573364	1484.048218	68.792587
839.943848	1216.929932	1620.022095	1489.472290	67.612915
840.246460	1216.261230	1640.455444	1509.162598	69.048882
840.549072	1222.131226	1666.981445	1513.249390	65.441841
840.851563	1223.022827	1685.780151	1519.490601	64.065498
841.154053	1220.422241	1695.662476	1515.998413	62.195107
841.456482	1217.450073	1686.002930	1514.140747	63.320641
841.758850	1221.165283	1665.941406	1506.041992	64.049461
842.061157	1222.354126	1645.433716	1496.382446	64.769920
842.363403	1223.543091	1622.994507	1487.763306	66.145767
842.665588	1216.632935	1603.675781	1468.890625	65.175652
842.967712	1226.069214	1578.115601	1449.869019	63.571114
843.269775	1228.001099	1557.682251	1431.070313	61.595638
843.571777	1228.966919	1539.106445	1419.553345	61.451832
843.873840	1223.765747	1525.286133	1413.609375	62.962120
844.175659	1216.855591	1508.791016	1402.686890	63.654934
844.477600	1220.645142	1497.645630	1400.531860	64.940941
844.779297	1219.827759	1482.413574	1395.850952	67.034538
845.081116	1222.131104	1474.611816	1395.553711	68.687469
845.382751	1223.839966	1466.735718	1386.488770	66.962395
845.684387	1219.159058	1462.351685	1382.699341	67.247223
845.985962	1214.849487	1454.847290	1379.801392	68.730591
846.287537	1217.970093	1449.200195	1377.646851	69.055351
846.588989	1222.799805	1446.822632	1371.479614	66.368149
846.890381	1222.651245	1448.160034	1366.575684	63.822098
847.191711	1220.645020	1441.993042	1367.392944	66.297371
847.493042	1220.422241	1431.739258	1372.519897	71.976059
847.794250	1225.697632	1424.531860	1374.451782	74.813148
848.095459	1218.044556	1419.776367	1371.999634	76.316711
848.396606	1214.998047	1420.296509	1359.888428	70.575485
848.697693	1221.239624	1418.364624	1355.355957	68.036186
848.998657	1228.075439	1427.355347	1355.355957	63.870220
849.299622	1230.007202	1433.968262	1358.105103	62.805077
849.600464	1217.004272	1434.191040	1356.767700	64.351723
849.901367	1211.728882	1427.429565	1347.702759	63.038223
850.202087	1210.094116	1417.695923	1348.891602	66.857552
850.502808	1217.747314	1416.432983	1349.114502	66.118095
850.803467	1219.084595	1417.770142	1350.080322	65.931183
851.104065	1224.211548	1421.708374	1349.857422	63.619186
851.404663	1222.576782	1421.633911	1350.749146	64.389740
851.705139	1225.474731	1423.788696	1359.665527	67.665833
852.005615	1227.703735	1425.571899	1354.390015	64.025597
852.306030	1224.062988	1413.386353	1352.012207	67.582375
852.606384	1225.994873	1407.145020	1345.027832	65.709557
852.906616	1221.833862	1403.504272	1347.702637	69.284134
853.206909	1227.703857	1414.649536	1342.798828	61.565998
853.506958	1220.347778	1419.330688	1341.015625	60.642315
853.807129	1219.604858	1423.491577	1344.210571	61.115170
854.107178	1219.233276	1420.222168	1345.770874	62.957508
854.407166	1227.778198	1412.717773	1342.130005	61.831982
854.707092	1222.577026	1412.346069	1336.037231	59.788574
855.007019	1216.484253	1420.147949	1329.572876	55.527138
855.306763	1208.830933	1420.222168	1331.356079	57.961319
855.606567	1215.220947	1421.411011	1329.127075	55.243267
855.906250	1214.998169	1413.014771	1336.037231	61.125713
856.205933	1217.004272	1409.225220	1337.746216	62.814144
856.505493	1216.484253	1403.726929	1336.557373	64.127007
856.805054	1219.084717	1407.590698	1332.767944	60.307491
857.104492	1218.267456	1408.482422	1327.789673	57.578129
857.403931	1219.233398	1408.482422	1336.037231	61.719650
857.703308	1219.902100	1406.401855	1339.603760	64.183281
858.002563	1219.530640	1411.751587	1347.479858	66.563622
858.301819	1218.490356	1412.940430	1344.359253	64.730705
858.601013	1215.221069	1410.711548	1344.804932	66.286537
858.900208	1221.462524	1408.333862	1339.306519	63.061565
859.199219	1216.038330	1404.692993	1345.027832	68.373344
859.498291	1219.827759	1401.200806	1340.421021	66.489075
859.797302	1215.369507	1406.401978	1340.346802	65.422020
860.096191	1215.369507	1405.510254	1333.882446	62.329060
860.395020	1213.066162	1409.745483	1329.721558	59.312485
860.693787	1213.140503	1400.011719	1331.281860	63.220737
860.992554	1224.880371	1396.742554	1321.548218	56.247307
861.291260	1219.902222	1393.918945	1328.681274	62.510689
861.589844	1224.137451	1398.005737	1325.040405	58.034134
861.888428	1226.292114	1400.086304	1329.944336	59.640785
862.186890	1236.768799	1395.479370	1325.857788	56.132992
862.485413	1231.939087	1391.392700	1331.356079	62.348534
862.783813	1226.143555	1389.683716	1327.640991	62.062698
863.082153	1223.914429	1393.250366	1334.179688	65.116280
863.380371	1234.688354	1398.674438	1336.705933	62.211121
863.678589	1229.635742	1399.343140	1349.411743	70.577950
863.976746	1228.595581	1401.052124	1354.315674	72.899582
864.274902	1218.564575	1405.361694	1348.148560	69.371513
864.572937	1221.833862	1407.813599	1344.284912	65.841072
864.870911	1228.075317	1413.757813	1333.213745	56.622692
865.168884	1223.097168	1410.488647	1328.384033	56.185513
865.466736	1218.638916	1409.819824	1329.721558	58.103416
865.764587	1210.317017	1407.144897	1331.430542	61.532707
866.062317	1215.146606	1401.349243	1341.089844	67.637733
866.360107	1214.329224	1399.937500	1343.541870	69.615776
866.657715	1218.267456	1390.055298	1339.975220	70.847717
866.955322	1219.456177	1394.662109	1336.854614	67.005974
867.252808	1225.028931	1389.980957	1323.331421	59.594593
867.550293	1222.354126	1392.358765	1325.337646	60.576889
867.847717	1222.354126	1389.386597	1326.526489	62.366535
868.145081	1221.313843	1393.621704	1334.031006	65.416145
868.442383	1221.165161	1392.358765	1334.774048	66.362808
868.739624	1218.936157	1396.519653	1327.195190	60.962326
869.036804	1220.199219	1400.383423	1316.941406	53.690716
869.333984	1225.028931	1401.720825	1322.068359	54.920135
869.631042	1219.679199	1399.714722	1324.223022	58.068443
869.928101	1213.586304	1392.432983	1329.795654	64.977081
870.224976	1212.991821	1396.593872	1326.229126	61.675404
870.521851	1218.267334	1401.052124	1326.006226	58.943027
870.818726	1223.988647	1405.658813	1332.990845	60.000053
871.115479	1221.908325	1408.482422	1334.328247	60.254841
871.412231	1217.227173	1410.711548	1338.043335	62.442337
871.708862	1217.301392	1415.764038	1339.529419	61.587421
872.005493	1214.477905	1412.568970	1345.027832	65.903999
872.302063	1222.948364	1397.708496	1344.284790	69.430267
872.598572	1219.679077	1391.392578	1341.312866	70.835312
872.895020	1219.753540	1396.445313	1340.792603	68.502945
873.191406	1218.118896	1407.813599	1345.770996	67.293442
873.487671	1222.354126	1416.358521	1344.284790	62.849434
873.783997	1225.251831	1416.432739	1347.405518	63.894291
874.080200	1220.942261	1415.169556	1341.238403	61.935757
874.376343	1214.998169	1413.832153	1339.306519	62.518665
874.672424	1212.471802	1413.386353	1331.356079	59.171562
874.968445	1216.038452	1411.231445	1345.399414	66.273361
875.264465	1221.388062	1419.479126	1356.173218	68.042015
875.560364	1225.623413	1425.051880	1358.328125	66.542511
875.856201	1225.028931	1426.983765	1350.080444	61.920536
876.152039	1223.765747	1419.850708	1345.325073	61.993191
876.447754	1209.053833	1418.438843	1348.371460	66.536583
876.743469	1202.886841	1424.085938	1343.987671	63.789063
877.039063	1194.267700	1426.612183	1342.278687	63.703251
877.334595	1206.824829	1430.178711	1337.077515	58.316730
877.630127	1215.666870	1419.330566	1342.427246	62.240044
877.925537	1223.617188	1419.033203	1344.879272	62.053299
878.221008	1228.298340	1414.575195	1353.572632	67.251671
878.516296	1224.062988	1430.178711	1354.241333	63.157890
878.811646	1226.292114	1438.129272	1361.597412	63.872314
879.106812	1211.208618	1449.497559	1366.872681	65.325760
879.401978	1214.700806	1458.562378	1372.445435	64.686134
879.697083	1213.809204	1464.506470	1379.207031	65.975121
879.992126	1222.874146	1484.791382	1384.333984	61.645367
880.287109	1226.440552	1512.134766	1403.726929	62.054592
880.582031	1225.177490	1575.068970	1438.723511	61.032074
880.876892	1231.344727	1695.811035	1510.500000	60.102371
881.171753	1234.390991	1905.864746	1630.498901	58.990826
881.466492	1241.301147	2198.097412	1806.670532	59.089840
881.761230	1242.118530	2522.428955	2017.616089	60.571056
882.055786	1238.106201	2815.478760	2198.468994	60.883701
882.350403	1229.858521	3005.545166	2314.009521	61.055309
882.644958	1229.635742	3067.885010	2349.675049	60.929676
882.939453	1230.155762	3012.901123	2326.195313	61.480431
883.233826	1230.230103	2908.059814	2265.192627	61.684597
883.528137	1220.050659	2788.952393	2189.775391	61.809143
883.822449	1215.741089	2669.622314	2122.754150	62.385635
884.116577	1218.564697	2544.125244	2054.693115	63.077347
884.410828	1219.679199	2410.157471	1963.003540	62.439137
884.704956	1217.524292	2255.905029	1855.784790	61.466904
884.999023	1215.295288	2095.485352	1744.702148	60.146881
885.292969	1226.960815	1940.861450	1662.151855	60.959610
885.586914	1230.007202	1824.280396	1597.805664	61.890469
885.880798	1231.938965	1741.358521	1559.019653	64.206543
886.174622	1223.320068	1677.904175	1521.125366	65.511597
886.468384	1225.103394	1633.025024	1491.478516	65.300560
886.762085	1225.177612	1597.508423	1459.602661	62.961494
887.055664	1224.211548	1575.589233	1439.615234	61.302608
887.349304	1223.988770	1557.385132	1423.119751	59.728001
887.642822	1216.335571	1539.626587	1402.612305	57.618900
887.936340	1221.759644	1519.342163	1392.432983	57.353283
888.229736	1214.775269	1502.401001	1382.922241	58.460339
888.523071	1213.363403	1479.664429	1384.333984	64.201996
888.816284	1211.060059	1464.209351	1374.749023	64.661041
889.109619	1210.391479	1450.166138	1369.473511	66.346474
889.402710	1218.861816	1446.302368	1356.841919	60.666447
889.695862	1214.106445	1436.568726	1353.052612	62.458305
889.988892	1223.245728	1426.983765	1352.086792	63.238590
890.281921	1234.242432	1415.243896	1358.179565	68.473000
>>>>>End Processed Spectral Data<<<<<
