Jaz Data File
++++++++++++++++++++++++++++++++++++
Date: Fri Jun 04 16:47:11 2021
User: jaz
Dark Spectrum Present: Yes
Reference Spectrum Present: Yes
Processed Spectrum Present: Yes
Spectrometers: JAZA3586
Integration Time (usec): 61000 (JAZA3586)
Spectra Averaged: 10 (JAZA3586)
Boxcar Smoothing: 1 (JAZA3586)
Correct for Electrical Dark: No (JAZA3586)
Strobe/Lamp Enabled: Yes (JAZA3586)
Correct for Detector Non-linearity: No (JAZA3586)
Correct for Stray Light: No (JAZA3586)
Number of Pixels in Processed Spectrum: 2048
>>>>>Begin Processed Spectral Data<<<<<
W	D	R	S	P
191.335022	0.000000	0.000000	0.000000	0.000000
191.713211	226.474716	230.784256	231.452957	115.516762
192.091385	460.008179	466.546783	466.249542	95.454056
192.469528	701.789246	703.349609	700.897522	-57.148445
192.847641	722.519592	716.947021	710.408264	217.338257
193.225739	732.847656	724.674377	721.627991	137.272522
193.603790	736.042725	731.287354	737.083008	-21.875963
193.981842	737.305969	738.197510	741.987000	525.049622
194.359863	742.284180	741.838379	754.098328	-2650.095947
194.737854	745.107666	748.302734	755.732971	332.553284
195.115829	750.680420	744.959167	760.414063	-170.131332
195.493774	756.178772	749.120056	757.664856	-21.053177
195.871704	764.277832	749.342957	760.859863	22.885820
196.249603	762.420227	752.612305	763.609070	-12.121250
196.627457	756.698914	759.596680	762.717468	207.696365
197.005310	758.705078	755.732910	759.670959	-32.497536
197.383133	754.395508	754.172607	763.237549	-3966.812744
197.760910	759.373840	746.519470	761.305664	-15.028537
198.138687	750.977600	752.166443	759.745300	737.498718
198.516449	752.463623	750.383118	755.361511	-139.287704
198.894180	754.618469	743.101501	748.971436	49.032295
199.271866	752.686584	737.083008	745.181946	48.095631
199.649536	750.308899	740.129395	745.850769	43.795158
200.027191	745.479187	748.079834	756.996094	442.847748
200.404816	748.005554	754.395569	762.420227	225.581223
200.782410	751.423401	766.506836	766.135437	97.537704
201.159988	743.398743	778.469543	769.256042	73.728851
201.537537	738.420471	784.562439	773.788574	76.650620
201.915070	740.203674	782.630615	763.831970	55.691727
202.292557	747.336731	782.036133	756.773254	27.195061
202.670029	753.652527	780.772949	756.698914	11.232815
203.047485	748.377014	781.516052	761.528564	39.685974
203.424911	744.810486	776.240540	758.630859	43.971844
203.802292	741.987000	777.652344	759.448181	48.958401
204.179688	745.553467	774.977356	765.169434	66.666801
204.557037	746.668030	769.999084	767.918640	91.082939
204.934357	743.101563	769.924805	759.670959	61.772537
205.311661	743.695984	763.460449	758.853699	76.691750
205.688934	743.695984	770.519226	758.927979	56.786552
206.066177	740.500977	768.958923	762.048645	75.717583
206.443390	737.157410	773.342712	760.488281	64.476097
206.820587	734.036621	770.445007	756.475891	61.632145
207.197769	740.426575	765.095154	755.435730	60.843208
207.574921	737.974609	766.729797	750.977539	45.219421
207.952042	739.089172	774.828796	747.188171	22.661119
208.329147	740.649475	789.169189	744.141785	7.197712
208.706223	755.435730	809.528137	774.977356	36.126373
209.083267	757.367615	802.617981	784.933899	60.919472
209.460297	753.503906	793.775940	793.478760	99.262070
209.837280	737.677429	772.451111	759.448059	62.606628
210.214264	733.516418	769.776184	746.890930	36.885269
210.591217	726.383484	768.958923	743.027161	39.092201
210.968124	719.919128	766.506836	747.708252	59.649048
211.345016	723.411316	765.540955	758.407898	83.068794
211.721893	735.596863	766.209656	757.739197	72.330330
212.098724	743.175781	767.472839	758.779480	64.220528
212.475555	741.318176	773.342773	760.711243	60.556786
212.852356	736.785828	772.005310	761.751465	70.885872
213.229126	739.757874	772.748352	754.618408	45.044922
213.605865	736.191406	770.519226	749.565857	38.960968
213.982590	725.491760	768.215820	747.485352	51.478233
214.359283	721.851013	766.952637	744.438965	50.082348
214.735931	719.844727	762.271667	743.844543	56.567398
215.112579	731.138733	771.708008	745.330566	34.981728
215.489197	728.463867	770.742126	753.578186	59.402443
215.865799	736.785828	777.949524	751.869324	36.642715
216.242355	737.454529	772.896973	747.633972	28.721054
216.618896	741.392578	768.736023	752.835205	41.847790
216.995407	739.386414	760.636963	751.274841	55.944096
217.371902	730.470032	752.240723	755.435791	114.676010
217.748367	727.497986	768.215820	749.714539	54.562218
218.124802	724.154358	776.612061	755.435791	59.631725
218.501236	729.281250	787.460266	749.788818	35.249081
218.877609	730.321472	778.989746	750.234619	40.916073
219.253983	730.990173	778.841125	752.166504	44.254772
219.630295	733.442139	770.147705	757.144775	64.575050
220.006592	729.206848	765.318054	758.482178	81.069931
220.382889	725.714661	756.104492	756.476013	101.222519
220.759140	720.587708	768.290100	751.646301	65.109093
221.135391	722.891174	772.896912	753.726807	61.664188
221.511581	724.377258	777.726563	750.829041	49.582245
221.887772	718.135803	772.302429	755.510071	68.998703
222.263931	719.621887	773.788574	756.996094	68.998512
222.640060	721.256531	773.491394	756.773193	67.994171
223.016159	730.172852	768.513000	763.460449	86.821777
223.392212	730.841553	762.345886	756.476013	81.368042
223.768265	727.795166	758.779358	761.305664	108.153534
224.144302	731.064453	758.184998	753.355225	82.191460
224.520294	731.658875	760.116882	757.070374	89.294724
224.896286	739.534973	764.797913	757.813477	72.353035
225.272217	735.448303	773.565613	759.225159	62.378105
225.648148	738.717712	775.497559	754.395508	42.626049
226.024048	736.265625	771.039368	752.166443	45.726505
226.399902	734.705261	769.479004	746.668152	34.402081
226.775772	727.795166	768.438721	754.989990	66.910545
227.151581	734.482422	773.714172	753.355286	48.106098
227.527374	729.801270	774.977356	758.407898	63.322502
227.903137	734.110840	771.708008	749.045715	39.723404
228.278870	730.247253	771.559387	755.584290	61.330738
228.654572	737.008728	766.358337	753.875427	57.468224
229.030273	738.717712	770.816406	758.259277	60.879627
229.405930	734.333740	771.410828	758.184875	64.328506
229.781555	735.448303	779.435547	764.946472	67.060738
230.157181	732.996338	776.612061	767.027039	78.023926
230.532761	737.083008	778.395325	762.940247	62.589661
230.908325	740.798157	769.553284	757.664856	58.656319
231.283859	751.497742	776.166260	758.407898	28.012045
231.659332	743.770264	769.479004	755.138489	44.219299
232.034821	735.448303	769.330383	750.383118	44.078800
232.410263	722.148132	770.816406	743.844543	44.580193
232.785690	730.544373	776.760681	739.386414	19.131863
233.161087	739.906494	780.847229	738.420410	-3.629842
233.536469	742.878601	774.680176	743.250061	1.168055
233.911804	737.677429	779.212646	749.788757	29.159178
234.287140	731.436035	776.091980	755.807312	54.575661
234.662430	732.773438	775.348877	756.030273	54.625004
235.037704	738.940613	759.670959	760.191162	102.509377
235.412933	733.813721	765.020813	761.008484	87.142891
235.788162	734.036621	768.364441	757.144714	67.315933
236.163345	729.949890	774.903076	758.259277	62.975262
236.538513	735.225403	772.228210	760.265442	67.670647
236.913635	728.538147	773.268372	761.157043	72.923615
237.288742	729.875671	777.429382	762.123047	67.812531
237.663834	730.767273	776.760559	760.934143	65.589722
238.038879	740.575195	782.704834	759.819580	45.678970
238.413910	740.352356	788.574768	764.277771	49.614719
238.788910	743.398743	794.890564	765.243713	42.424156
239.163879	729.206848	789.837952	765.615234	60.049023
239.538834	722.668274	777.355164	759.819641	67.934685
239.913757	717.095459	772.079590	762.048767	81.756874
240.288651	730.172852	765.615234	765.615234	100.000000
240.663528	734.556641	771.262268	764.352051	81.173958
241.038361	735.968445	768.513000	762.643127	81.963577
241.413177	731.213074	769.479004	765.912415	90.679466
241.787979	729.058350	769.776184	766.358215	91.605721
242.162735	734.853821	775.423157	767.472839	80.403137
242.537476	729.429749	779.881348	761.602844	63.770222
242.912170	743.844482	781.070129	756.624573	34.331413
243.286865	733.367859	780.772949	754.989929	45.611282
243.661514	738.197510	773.862793	754.692688	46.249958
244.036148	721.107849	772.822571	752.835144	61.350605
244.410751	718.581543	769.776184	752.909424	67.053658
244.785339	723.039795	773.788513	754.841309	62.664665
245.159882	728.538147	778.172363	764.574951	72.604759
245.534378	738.494690	778.543945	764.946533	66.048279
245.908890	735.151123	776.314758	764.649231	71.660599
246.283356	732.179016	774.680176	751.349121	45.104900
246.657791	728.909668	781.144531	748.228333	36.984234
247.032196	722.816895	791.844055	746.296570	34.015125
247.406586	722.742493	792.810059	757.813477	50.053093
247.780960	719.993347	792.661438	760.042480	55.112408
248.155289	732.104675	790.209473	759.373840	46.931004
248.529602	735.894104	787.014404	758.853699	44.912872
248.903870	743.621643	786.865906	753.949707	23.883085
249.278122	741.912598	788.872070	762.791748	44.462063
249.652344	741.615479	785.454102	759.002258	39.660870
250.026550	736.414307	783.076416	767.324219	66.241997
250.400711	739.832214	782.779114	766.283936	61.591690
250.774857	736.785828	791.175354	760.265442	43.169369
251.148987	735.299805	790.655273	756.624512	38.523216
251.523071	726.234863	790.432312	756.401672	46.990665
251.897125	729.727051	789.169189	765.540833	60.249821
252.271164	725.789063	794.890442	761.900085	52.258034
252.645187	724.302917	791.546875	762.494568	56.795662
253.019165	716.724060	792.884338	756.104492	51.707310
253.393112	730.544373	790.580994	762.717468	53.589119
253.767044	730.024231	787.385925	759.076660	50.647789
254.140930	736.191406	793.181458	756.921875	36.375591
254.514801	732.253357	792.141296	750.457520	30.397043
254.888657	737.751709	795.187744	752.463623	25.614431
255.262466	738.643372	783.373535	756.773193	40.531536
255.636276	739.237793	786.791504	771.485107	67.812401
256.010010	742.135559	784.636719	769.850403	65.209618
256.383759	742.209900	788.723450	769.627625	58.945671
256.757446	738.569031	786.568665	763.163269	51.238388
257.131134	738.643372	790.283752	765.020813	51.079098
257.504791	736.934326	786.419983	767.918640	62.612717
257.878418	737.603088	781.664612	762.420227	56.323833
258.252014	734.853943	781.441711	762.791748	59.968113
258.625580	737.083008	797.714050	760.711243	38.970524
258.999115	735.596924	813.540527	764.500732	37.082977
259.372650	737.157288	825.057434	761.008484	27.134422
259.746124	738.346191	829.738464	756.178772	19.512131
260.119598	735.819824	829.441345	752.092102	17.380917
260.493042	732.179016	832.264832	758.779358	26.577534
260.866425	733.813660	831.818909	764.723633	31.539099
261.239838	739.832214	826.023376	764.649353	28.793137
261.613159	740.723816	823.051270	760.414063	23.916986
261.986511	732.922058	813.763428	762.568848	36.672794
262.359802	728.389587	815.769592	755.584412	31.122480
262.733063	730.990173	808.710754	752.389404	27.533545
263.106293	734.185242	810.271179	744.661865	13.769461
263.479523	742.061279	811.311462	755.881592	19.957077
263.852692	741.392578	810.494141	755.361511	20.215076
264.225861	743.472961	809.156738	759.596680	24.547489
264.598969	741.392578	806.778992	749.863098	12.954556
264.972076	738.271790	816.289734	751.349121	16.761953
265.345154	736.785828	822.828308	748.822815	13.989587
265.718201	726.680603	829.069763	759.670959	32.220554
266.091217	724.525696	834.122314	763.311829	35.389900
266.464203	723.634094	840.512390	766.283936	36.490814
266.837158	725.417480	839.026306	770.965027	40.091557
267.210114	733.442200	830.778748	763.683350	31.068649
267.583038	735.225403	836.351379	767.101257	31.520937
267.955902	741.169739	836.277161	757.739075	17.421707
268.328766	732.104797	852.995300	762.123047	24.830940
268.701569	733.442200	844.598938	757.813477	21.925146
269.074371	723.039734	849.354309	759.373840	28.764778
269.447144	722.593933	843.335876	762.123047	32.738510
269.819885	718.358643	850.766113	767.918640	37.429909
270.192596	728.612488	855.001282	769.181824	32.098839
270.565277	732.327637	855.595764	767.472839	28.511185
270.937927	734.928223	859.162292	763.311829	22.846878
271.310577	732.996338	869.862000	754.767029	15.906612
271.683136	733.070618	884.945374	751.869141	12.377648
272.055725	731.064453	891.038269	752.389343	13.330237
272.428284	730.544373	897.354004	753.281006	13.630288
272.800812	733.070618	895.496399	758.184998	15.462065
273.173279	735.076843	892.821533	760.934143	16.391867
273.545776	735.448303	892.152771	769.627625	21.811325
273.918152	737.603088	895.422058	771.187988	21.280649
274.290558	729.355469	897.725403	768.215881	23.080376
274.662964	733.442139	894.307556	769.256104	22.263309
275.035278	728.538147	892.821472	763.014648	20.986002
275.407593	734.928223	893.936035	772.079590	23.364492
275.779907	731.584656	900.697571	769.478943	22.407684
276.152161	734.333801	902.332275	764.426331	17.912382
276.524384	738.049011	909.613953	759.596680	12.559483
276.896606	736.562927	908.573730	751.051941	8.423316
277.268799	737.008728	914.815125	759.150879	12.452955
277.640930	739.163513	923.954407	754.767090	8.443910
278.013031	744.810486	931.830383	765.318054	10.965447
278.385162	733.888000	934.059509	765.986755	16.035625
278.757233	732.104736	928.338196	769.478943	19.045788
279.129272	732.030334	931.607483	770.296204	19.173471
279.501282	747.485352	939.334961	769.553223	11.502693
279.873230	741.541199	946.913818	762.048645	9.985482
280.245178	744.216003	955.607239	762.345947	8.576488
280.617126	736.265625	966.232605	762.345947	11.340899
280.988983	741.764099	972.919739	763.163269	9.257473
281.360870	735.448303	976.634949	762.568848	11.244630
281.732697	737.751770	986.814453	762.123047	9.785198
282.104492	730.321472	1002.418030	759.596741	10.759147
282.476288	727.349304	1026.640625	753.280945	8.664348
282.848053	730.544373	1021.513733	754.692810	8.299306
283.219757	733.739441	1025.749023	753.578186	6.793868
283.591461	735.225403	1016.907043	758.259277	8.177272
283.963135	727.795105	1020.473450	761.454285	11.500400
284.334747	730.395691	1025.451782	770.965027	13.749702
284.706360	732.922058	1037.265991	773.639893	13.378888
285.077942	739.832214	1052.943848	768.884521	9.278578
285.449524	740.203674	1066.244141	766.432556	8.044671
285.821014	734.928223	1066.912720	763.757629	8.683962
286.192535	730.395752	1085.414185	757.367615	7.597313
286.563995	733.888000	1098.119995	757.218994	6.405531
286.935425	738.271912	1108.893677	759.893982	5.833999
287.306824	738.049011	1107.556274	771.336609	9.008645
287.678223	731.510254	1101.463501	773.045593	11.227186
288.049561	734.408020	1097.896973	776.463440	11.569931
288.420898	737.974609	1089.277832	768.736023	8.756371
288.792145	743.324402	1090.986694	762.940369	5.642248
289.163452	741.838379	1100.274780	756.104492	3.980096
289.534668	732.773438	1114.020630	756.178772	6.139149
289.905914	724.748718	1122.565552	762.643066	9.525577
290.277039	726.234802	1140.769653	766.581238	9.732942
290.648193	736.414246	1162.911987	772.302490	8.414639
291.019318	742.432800	1188.769165	780.995911	8.639921
291.390381	740.575195	1194.193237	778.023743	8.255525
291.761475	737.083008	1190.626831	777.726563	8.961329
292.132507	737.974609	1181.116089	764.203430	5.918837
292.503510	747.113953	1177.995239	763.386169	3.776496
292.874481	755.881653	1177.623779	771.559387	3.717375
293.245422	751.720703	1180.595947	777.503662	6.011762
293.616364	746.890930	1186.020020	780.104248	7.563452
293.987213	731.287415	1205.412964	770.147705	8.196202
294.358093	729.281250	1225.994751	768.438782	7.883323
294.728943	721.628113	1255.418823	766.581238	8.421489
295.099731	726.829285	1276.595093	768.958801	7.663175
295.470490	727.795166	1295.319458	769.181824	7.292491
295.841248	725.491760	1309.213867	769.627625	7.561109
296.211975	727.943665	1327.046509	764.352051	6.077151
296.582642	732.699036	1343.095947	763.088867	4.978700
296.953308	739.386414	1367.541626	765.763855	4.199192
297.323883	740.946716	1380.172974	767.175598	4.103223
297.694519	740.946777	1403.355469	765.020813	3.634318
298.065063	740.872375	1406.624634	763.311829	3.370541
298.435608	738.569031	1402.612305	761.825867	3.502307
298.806122	737.454529	1386.488647	756.550293	2.942182
299.176575	739.832214	1368.210327	759.522461	3.133503
299.547028	742.135559	1352.309448	765.318054	3.799326
299.917450	738.494812	1329.498657	770.370605	5.393500
300.287872	734.556702	1321.250977	766.804138	5.496463
300.658234	735.076843	1318.947632	764.797852	5.090340
301.028564	735.745605	1320.433716	767.324219	5.400933
301.398865	733.293457	1325.411987	763.683350	5.132400
301.769135	724.897278	1330.687500	765.392273	6.684657
302.139374	727.720764	1340.049683	767.992859	6.576873
302.509583	723.857117	1338.860718	770.519226	7.587290
302.879791	727.497986	1339.157837	768.290100	6.669085
303.249939	730.544434	1340.569702	764.054871	5.493287
303.620087	737.528809	1345.473633	762.791748	4.155466
303.990173	736.488586	1348.965942	761.974426	4.161107
304.360260	739.163513	1348.743042	766.432617	4.473428
304.730286	740.278015	1347.034058	763.832031	3.881958
305.100281	740.129395	1352.978271	768.513123	4.631440
305.470276	736.711426	1358.476685	766.061096	4.720378
305.840179	735.894226	1374.526001	768.884521	5.165777
306.210144	736.785828	1374.897461	759.819641	3.609684
306.579987	733.813660	1385.002808	761.825867	4.301701
306.949890	726.680664	1386.340210	765.838196	5.936021
307.319702	728.835388	1408.630981	771.262207	6.241114
307.689484	724.451477	1429.287109	773.788513	6.999793
308.059265	727.720764	1452.989624	775.423157	6.577201
308.429016	722.816833	1472.531250	780.847351	7.740350
308.798737	724.005676	1492.667358	773.714172	6.466889
309.168396	725.194580	1515.106812	769.924805	5.662683
309.538055	732.550537	1537.174683	767.027039	4.284796
309.907684	741.020996	1551.812378	778.915466	4.673763
310.277313	738.346130	1572.319946	777.652344	4.713123
310.646851	733.293518	1577.744141	773.045593	4.707448
311.016388	725.120300	1592.827515	768.067200	4.949469
311.385895	727.943848	1586.734741	766.135437	4.447135
311.755371	726.903503	1589.706665	766.061096	4.538415
312.124817	727.423645	1594.239258	761.231384	3.900223
312.494232	728.463867	1603.006836	764.277832	4.095163
312.863617	733.219238	1612.146118	770.965027	4.294531
313.232971	732.847656	1600.480591	774.234314	4.770065
313.602295	735.968445	1596.245239	772.005188	4.188971
313.971619	730.544434	1585.471558	767.695618	4.345538
314.340820	732.996399	1591.415649	760.934143	3.254557
314.710083	731.956116	1610.585815	762.197266	3.441854
315.079285	735.596924	1629.681641	761.082764	2.850495
315.448486	731.956055	1658.065308	767.472839	3.835053
315.817596	727.869446	1650.857910	771.336609	4.709394
316.186707	724.600098	1646.696899	771.559570	5.092684
316.555786	728.761047	1625.223267	773.045593	4.939923
316.924866	732.253235	1618.090454	769.776184	4.235874
317.293884	738.123230	1610.734375	766.581238	3.261247
317.662872	743.324402	1595.651001	766.729797	2.746059
318.031830	742.581360	1596.096680	766.135437	2.759655
318.400757	736.042786	1605.830444	776.389160	4.638647
318.769684	729.578430	1622.028320	777.132141	5.328446
319.138550	723.411316	1638.151978	777.875244	5.954030
319.507416	726.309082	1641.718628	776.389160	5.470784
319.876190	721.479492	1655.984741	766.804016	4.850109
320.244995	734.259521	1660.591431	770.147705	3.874225
320.613770	737.083069	1657.916626	762.420166	2.751539
320.982483	739.757874	1635.402954	769.924805	3.368179
321.351166	726.977844	1621.062500	766.581238	4.429491
321.719818	723.559875	1612.740601	770.593506	5.289547
322.088440	726.234863	1630.944702	762.717346	4.032506
322.457062	732.550537	1642.981812	763.311829	3.378760
322.825623	734.110901	1666.907227	761.454285	2.931335
323.194183	737.454529	1688.975098	765.466614	2.943928
323.562653	743.324402	1725.457642	765.095154	2.216680
323.931183	737.751709	1772.194214	764.723633	2.607388
324.299591	733.516418	1809.419922	775.497559	3.901943
324.668060	726.606384	1850.434937	774.903076	4.297514
325.036407	733.293640	1879.858765	782.853455	4.322459
325.404755	733.665100	1916.861694	778.618164	3.799290
325.773102	733.739441	1926.075195	779.658447	3.851181
326.141388	729.875671	1930.979004	775.646179	3.810705
326.509674	727.423645	1925.629272	771.262207	3.658684
326.877899	723.114075	1932.465210	772.822571	4.110344
327.246124	718.804504	1939.226685	772.674011	4.414006
327.614288	726.011902	1942.050171	775.571838	4.075524
327.982422	728.686768	1938.632202	778.098145	4.083769
328.350525	741.987000	1928.006836	774.308655	2.725221
328.718628	734.779602	1926.595215	773.565613	3.254363
329.086700	736.637207	1926.743774	772.896912	3.046761
329.454712	727.943787	1940.861450	779.286926	4.233027
329.822693	734.036560	1939.375366	780.401428	3.846625
330.190674	726.754883	1944.205078	772.896973	3.790060
330.558563	723.708496	1956.242065	776.537781	4.286235
330.926483	716.426819	1972.142944	775.423157	4.698223
331.294312	720.662109	1994.210571	781.590332	4.784131
331.662231	721.925232	2012.935059	767.992859	3.568341
332.029999	726.011902	2046.222656	762.122986	2.735252
332.397766	726.234802	2072.897217	763.386169	2.758774
332.765503	729.949890	2100.017822	770.221985	2.939423
333.133240	730.024231	2126.172363	772.748291	3.060138
333.500916	734.779602	2157.156494	770.370605	2.502220
333.868561	731.658875	2185.986084	765.392334	2.319524
334.236176	730.618652	2214.146973	761.157043	2.058497
334.603790	723.559875	2226.109619	757.219055	2.240137
334.971344	731.510254	2235.397461	761.825867	2.015817
335.338867	729.504089	2237.775146	764.946533	2.349872
335.706360	734.333801	2240.152588	765.466614	2.067501
336.073853	724.154297	2248.623291	757.219055	2.168936
336.441284	724.823059	2262.517822	763.089050	2.488530
336.808655	721.999512	2256.127686	763.906250	2.731632
337.176086	722.296692	2208.573975	777.875244	3.739447
337.543396	727.572266	2149.354492	775.646057	3.381234
337.910706	730.767273	2108.042480	780.624329	3.619978
338.277954	743.770203	2135.906006	780.698730	2.652653
338.645264	740.946777	2212.957764	781.218750	2.735847
339.012421	738.791931	2320.548096	774.680176	2.268886
339.379669	741.392517	2410.305664	769.033203	1.656209
339.746796	740.277893	2474.206299	771.485168	1.799802
340.113953	734.630920	2509.054443	776.463440	2.357527
340.481018	725.045898	2528.670166	778.172363	2.945539
340.848114	726.086182	2524.806396	776.686340	2.813120
341.215118	734.408142	2523.543213	770.816406	2.034965
341.582153	733.442200	2529.190186	774.903076	2.308836
341.949066	737.677429	2538.998291	771.856628	1.897452
342.316010	738.643372	2565.969971	774.977356	1.988368
342.682922	732.327637	2578.675781	770.221985	2.052395
343.049835	717.912903	2600.520752	769.553284	2.743024
343.416656	726.086182	2634.477295	773.565613	2.487930
343.783478	733.962219	2664.272705	766.506836	1.685978
344.150269	743.993164	2736.791992	766.804016	1.144664
344.516998	734.705322	2802.698486	759.002258	1.174904
344.883728	740.426575	2892.678955	771.410828	1.439620
345.250427	741.169678	2934.511719	768.067200	1.226326
345.617065	741.466858	2949.892334	775.868958	1.557766
345.983704	734.408142	2949.669678	764.946533	1.378546
346.350281	730.247131	2940.901611	767.695740	1.694005
346.716827	728.686829	2924.703857	769.330383	1.850785
347.083405	727.200745	2897.286133	774.085754	2.160514
347.449860	741.243958	2875.366455	783.968079	2.001953
347.816376	744.141785	2856.419922	776.091980	1.512594
348.182770	747.411072	2842.970703	772.153870	1.180725
348.549194	733.962219	2840.295898	768.067200	1.619163
348.915558	730.544250	2859.986328	769.033203	1.807467
349.281921	729.058289	2891.416016	766.506836	1.731839
349.648193	726.531982	2923.143311	757.739197	1.420698
350.014526	736.265625	2953.607422	764.352112	1.266674
350.380737	736.860107	2987.118164	770.965027	1.515600
350.746948	746.816650	3019.068359	775.646179	1.268765
351.113159	742.284180	3042.324951	773.268372	1.347115
351.479309	740.426575	3069.817139	773.565613	1.422648
351.845428	730.395752	3088.912842	767.026917	1.553144
352.211517	728.761169	3119.971436	761.751465	1.379648
352.577576	732.773438	3145.234131	757.293274	1.016383
352.943604	741.764099	3199.475342	764.129150	0.909995
353.309601	738.940613	3259.214844	767.992920	1.152744
353.675537	735.448303	3342.656494	768.067200	1.251104
354.041473	731.956055	3413.466797	771.633789	1.479678
354.407379	728.835388	3480.264893	773.639893	1.628408
354.773254	729.355530	3537.478271	781.144531	1.844257
355.139038	728.166748	3576.190186	776.760681	1.706234
355.504913	731.658936	3650.492432	781.367371	1.703024
355.870636	722.519714	3713.129883	776.909241	1.818677
356.236389	724.971680	3823.989502	783.893738	1.901314
356.602081	725.789001	3908.620361	782.036133	1.767204
356.967804	730.915833	3993.399658	784.265198	1.635238
357.333405	722.593933	4084.272217	780.327148	1.717393
357.699036	722.816895	4204.196289	778.915466	1.611389
358.064606	728.686768	4318.325195	778.915466	1.399269
358.430176	735.671204	4389.878906	776.166260	1.108176
358.795654	738.866211	4421.234863	775.646179	0.998813
359.161163	739.163391	4437.135254	772.599609	0.904177
359.526581	736.191345	4435.426758	778.989746	1.156953
359.892029	732.922058	4468.045410	778.172363	1.211481
360.257416	727.126404	4539.376465	783.522217	1.479331
360.622772	729.578369	4669.331543	777.652283	1.220227
360.988098	727.497864	4834.580566	776.686279	1.197649
361.353394	728.166687	5028.808105	769.553223	0.962334
361.718658	726.457703	5229.351074	774.382996	1.064322
362.083893	730.172852	5386.799316	770.147705	0.858451
362.449097	738.940491	5492.829590	776.389160	0.787748
362.814209	742.284180	5512.296387	771.262268	0.607506
363.179382	739.386414	5409.535645	778.915466	0.846419
363.544434	735.002502	5192.571289	774.977356	0.896786
363.909546	735.448303	4939.421875	775.868958	0.961487
364.274536	737.900391	4722.012207	773.119812	0.883997
364.639587	733.888000	4583.883301	771.633789	0.980411
365.004517	729.949890	4507.128906	774.828796	1.188159
365.369507	727.126404	4461.878418	773.565613	1.243435
365.734344	729.281189	4436.689453	778.618164	1.330767
366.099274	726.829163	4406.448730	772.228210	1.233797
366.464081	726.977844	4395.823242	773.416992	1.265770
366.828918	733.813660	4396.417480	777.577942	1.194895
367.193665	736.191345	4390.845215	785.082520	1.337779
367.558411	741.466797	4420.417480	784.710938	1.175448
367.923126	738.420410	4416.776855	785.751221	1.286738
368.287781	744.438965	4445.011719	786.345703	1.132439
368.652435	751.274719	4408.529297	791.101074	1.088969
369.017059	746.147949	4416.182129	780.995911	0.949527
369.381653	746.519470	4403.848145	781.813171	0.965013
369.746185	732.327637	4401.990723	780.995911	1.326233
370.110687	734.036621	4388.541504	788.054688	1.478123
370.475220	730.470032	4406.002441	786.865784	1.534356
370.839661	733.367859	4452.888184	787.163086	1.446295
371.204041	735.374023	4519.834473	792.066956	1.498045
371.568451	732.327637	4573.778320	791.175293	1.531912
371.932770	730.767273	4633.220703	787.757507	1.460369
372.297150	728.984070	4667.845703	783.447937	1.382731
372.661377	730.395752	4688.947754	777.280762	1.184398
373.025696	732.847717	4703.511230	772.896973	1.008629
373.389862	728.761047	4697.937988	770.147766	1.042703
373.754059	728.835449	4713.615723	774.754456	1.152360
374.118225	728.686829	4726.990723	781.293152	1.315716
374.482361	735.522705	4767.039551	781.813293	1.148218
374.846436	741.541199	4816.896973	774.903137	0.818626
375.210510	740.649597	4892.685547	775.348938	0.835719
375.574524	741.838379	4989.576172	775.497559	0.792403
375.938538	731.881836	5083.346191	786.717102	1.260157
376.302460	729.801270	5178.899902	787.162903	1.289287
376.666412	726.903503	5294.515137	787.311584	1.322531
377.030304	735.671204	5417.188965	791.026794	1.182428
377.394196	733.219238	5550.487793	785.677002	1.088952
377.757996	730.470032	5655.849121	787.683105	1.161597
378.121796	725.937561	5724.652832	778.469666	1.050912
378.485565	734.928223	5722.201172	779.881348	0.901357
378.849304	738.569031	5687.427246	777.503662	0.786740
379.212982	731.807434	5609.706543	774.977356	0.885011
379.576630	726.829163	5501.150391	777.875183	1.069179
379.940277	721.479431	5404.259766	777.132141	1.188454
380.303864	732.699158	5327.728027	780.921631	1.049449
380.667450	735.002502	5309.523926	780.624451	0.997305
381.030945	732.550537	5296.372070	782.853455	1.102211
381.394501	732.253357	5330.477051	783.968018	1.124666
381.757935	735.968445	5361.461426	788.128967	1.127675
382.121399	746.816650	5386.501465	791.324036	0.959276
382.484741	747.188171	5424.024902	794.147461	1.004082
382.848145	745.924988	5460.952637	791.175293	0.959704
383.211487	735.002441	5514.079590	783.819336	1.021471
383.574768	730.692932	5587.861816	785.231140	1.122839
383.938019	726.160583	5657.706543	786.197083	1.217397
384.301270	733.293640	5750.956543	796.302246	1.255736
384.664459	729.578430	5803.042480	795.930725	1.307830
385.027649	723.708496	5855.574219	791.249695	1.316114
385.390778	723.485596	5892.875000	783.447937	1.159950
385.753876	728.983948	5936.044434	781.887512	1.015997
386.116943	735.374023	6010.124512	788.872009	1.014228
386.479980	733.590637	6035.535645	794.890442	1.156176
386.842987	729.058289	6074.173340	795.930725	1.251094
387.205994	722.668274	6090.000000	797.193848	1.388503
387.568909	719.770447	6149.962402	798.382751	1.447689
387.931793	717.392822	6185.404297	800.240295	1.515130
388.294678	722.445374	6217.131348	800.686096	1.423934
388.657471	724.600159	6246.852051	803.509583	1.428936
389.020294	731.138855	6264.610840	801.057617	1.263560
389.383057	737.825989	6302.431152	793.850281	1.006797
389.745819	736.042786	6310.084473	790.135071	0.970432
390.108521	740.278015	6331.558105	795.187744	0.982060
390.471191	733.293518	6365.736816	799.571594	1.176720
390.833801	735.299805	6464.187500	800.166016	1.132265
391.196442	732.996399	6595.777832	796.228027	1.078526
391.558960	737.751709	6728.779785	797.045227	0.989705
391.921509	733.145020	6860.815918	790.506653	0.936108
392.284027	730.544434	7010.461426	790.580872	0.956007
392.646484	728.984070	7142.052246	790.135071	0.953537
393.008911	733.590820	7174.596191	795.633545	0.963246
393.371307	737.157288	7136.775879	804.549805	1.053071
393.733673	733.367859	7073.247559	800.686096	1.061822
394.096008	728.761047	7051.031250	797.045227	1.080058
394.458344	724.451477	7079.562988	793.998840	1.094353
394.820587	725.714661	7088.033691	803.806885	1.227418
395.182831	735.002502	7122.585449	810.345459	1.179522
395.545013	730.693054	7114.634277	801.354797	1.106867
395.907196	724.525879	7096.281250	802.617981	1.225598
396.269287	719.621887	7011.204590	800.091614	1.279006
396.631409	725.789001	6909.929688	809.602478	1.355297
396.993469	729.132629	6803.603027	811.682922	1.358971
397.355530	729.949890	6737.770996	815.323730	1.421045
397.717499	728.389648	6704.482910	810.791260	1.378854
398.079468	730.172852	6720.012207	809.453857	1.323591
398.441376	728.909668	6730.340332	819.187500	1.504272
398.803284	725.120300	6748.395996	831.819031	1.771440
399.165131	730.470032	6760.284668	831.596130	1.677101
399.526978	732.922058	6778.562500	829.069824	1.590365
399.888763	738.197571	6806.352051	824.983093	1.430180
400.250519	730.247131	6812.147949	823.125549	1.527128
400.612244	735.671204	6849.224609	825.206055	1.464530
400.973938	735.374023	6835.553223	835.385559	1.639485
401.335602	729.875671	6869.212402	838.952087	1.776681
401.697205	722.296692	6912.902344	846.010803	1.998417
402.058807	719.101746	6977.025879	843.781738	1.992354
402.420349	728.240967	7047.167480	858.790833	2.066013
402.781860	729.355469	7096.801270	855.298584	1.977922
403.143341	729.875671	7219.920410	863.769104	2.063059
403.504822	726.606262	7333.455566	868.078674	2.141299
403.866241	725.640381	7509.924316	879.447021	2.267102
404.227631	733.144958	7629.626465	887.100159	2.232373
404.588959	746.965271	7796.436035	905.081360	2.242950
404.950287	750.308838	7900.533691	924.845886	2.441001
405.311554	750.754639	8002.477051	944.090332	2.666066
405.672821	743.993164	8047.579590	953.229553	2.864844
406.034027	740.352295	8057.461426	969.130371	3.126618
406.395203	734.110840	8003.294922	986.814453	3.476368
406.756348	732.476257	7939.246094	1007.916443	3.821965
407.117493	733.219238	7898.082031	1041.129761	4.297508
407.478516	730.395752	7906.181152	1076.795044	4.827336
407.839600	729.801453	7935.679688	1121.748169	5.439263
408.200592	721.256592	7934.119141	1159.865356	6.080925
408.561554	723.857178	7924.831543	1211.060059	6.765791
408.922485	725.789001	7911.456543	1266.861328	7.529882
409.283417	735.076843	7924.310547	1329.944458	8.274423
409.644257	741.615479	7992.743652	1410.562866	9.225426
410.005096	741.169678	8101.300293	1490.661133	10.183126
410.365906	742.061340	8230.438477	1583.762573	11.240103
410.726715	738.197571	8327.180664	1670.845337	12.289496
411.087433	734.482422	8390.784180	1768.256226	13.502260
411.448120	724.971680	8442.200195	1882.979492	15.005488
411.808807	723.188293	8471.327148	2003.721313	16.526976
412.169434	720.959290	8444.207031	2124.983398	18.179193
412.530029	730.544373	8410.622070	2251.743896	19.807085
412.890564	730.767273	8380.530273	2377.463867	21.526112
413.251099	733.293518	8382.461914	2540.409912	23.625006
413.611572	730.247131	8425.780273	2710.265869	25.729456
413.972076	730.915833	8481.432617	2879.453125	27.721214
414.332489	728.909729	8561.159180	3038.832764	29.492460
414.692871	734.556824	8644.304688	3212.998047	31.334009
415.053223	733.293640	8749.665039	3416.884766	33.476379
415.413574	733.962341	8890.618164	3642.764893	35.661705
415.773834	730.841614	9043.608398	3858.168701	37.620773
416.134094	732.699219	9180.325195	4064.730225	39.443401
416.494263	738.494812	9324.173828	4262.895996	41.049767
416.854462	736.562927	9545.150391	4497.840332	42.700115
417.214630	746.519470	9777.048828	4738.655762	44.207111
417.574738	748.748535	10026.780273	4998.715332	45.806774
417.934784	751.869141	10240.474609	5253.871094	47.446404
418.294861	739.237793	10556.410156	5545.509277	48.957802
418.654846	731.881836	10919.452148	5846.806641	50.207504
419.014832	730.990234	11319.648438	6176.041504	51.423431
419.374756	733.516418	11721.922852	6504.236816	52.516445
419.734680	737.454529	12146.786133	6855.688965	53.624825
420.094543	736.711487	12562.508789	7183.363770	54.513470
420.454376	742.655762	12953.788086	7494.395020	55.291672
420.814148	738.049011	13349.450195	7804.312012	56.030754
421.173920	736.265625	13772.159180	8128.420410	56.706161
421.533691	738.346130	14187.956055	8454.312500	57.369442
421.893341	738.197510	14513.996094	8724.848633	57.975960
422.253021	735.596985	14745.968750	8946.344727	58.604782
422.612640	723.708496	14847.913086	9073.253906	59.115150
422.972260	721.999512	14839.367188	9164.719727	59.803791
423.331757	726.086182	14782.898438	9220.223633	60.427197
423.691315	730.692932	14769.151367	9303.294922	61.065121
424.050781	730.767273	14856.458008	9413.262695	61.465988
424.410248	721.999512	14954.387695	9508.518555	61.736084
424.769653	725.194580	15048.008789	9627.180664	62.152493
425.128998	735.076843	15116.739258	9727.340820	62.525902
425.488373	738.123230	15079.885742	9752.306641	62.852688
425.847656	733.367859	14956.989258	9724.368164	63.211750
426.206940	719.250305	14796.791992	9651.180664	63.448086
426.566193	721.107910	14524.472656	9529.695313	63.814785
426.925385	722.668274	14286.629883	9392.309570	63.916737
427.284576	734.036621	13896.168945	9172.224609	64.109573
427.643677	743.621643	13618.872070	9024.584961	64.316910
428.002777	737.974609	13314.825195	8857.180664	64.556747
428.361847	742.804382	13027.867188	8698.694336	64.760681
428.720856	738.717590	12761.492188	8538.125977	64.871948
429.079865	738.197510	12534.942383	8429.272461	65.196587
429.438812	729.429871	12405.953125	8361.359375	65.361320
429.797760	726.754944	12343.835938	8354.523438	65.659943
430.156616	734.928223	12221.237305	8284.456055	65.726318
430.515503	737.974609	12152.582031	8247.676758	65.790283
430.874268	735.299744	12083.851563	8202.649414	65.800026
431.233093	728.092346	12101.090820	8237.497070	66.028366
431.591827	728.092285	12122.192383	8285.346680	66.326035
431.950562	733.888000	12154.809570	8325.842773	66.474098
432.309204	732.179016	12210.760742	8392.045898	66.731819
432.667877	727.869446	12312.183594	8472.887695	66.857803
433.026459	723.039795	12435.674805	8548.454102	66.811729
433.385010	718.284363	12577.964844	8627.289063	66.688179
433.743561	720.513489	12743.734375	8744.018555	66.733406
434.102051	724.154297	12909.875000	8895.298828	67.055077
434.460510	736.117126	13097.117188	9023.471680	67.044373
434.818939	735.819885	13145.934570	9097.773438	67.380150
435.177338	736.637207	13196.015625	9114.789063	67.243736
435.535675	728.612488	13133.898438	9091.458008	67.413567
435.894012	729.652649	13126.541992	9050.293945	67.118782
436.252289	731.213074	13129.586914	9088.115234	67.403214
436.610535	731.733215	13120.596680	9095.620117	67.511330
436.968719	735.671204	13217.784180	9179.803711	67.649864
437.326935	732.550476	13294.614258	9244.372070	67.758148
437.685028	732.104675	13412.235352	9347.950195	67.947609
438.043152	728.315247	13469.375000	9411.850586	68.153946
438.401215	732.104675	13627.713867	9511.713867	68.082161
438.759277	736.117004	13843.710938	9651.032227	68.013359
439.117249	739.014832	14214.258789	9887.091797	67.888023
439.475250	732.847839	14483.979492	10084.366211	68.005447
439.833130	737.528809	14803.332031	10315.075195	68.091011
440.191071	736.562805	15003.577148	10482.851563	68.313446
440.548889	733.070618	15281.989258	10681.907227	68.381966
440.906708	730.098572	15609.739258	10876.358398	68.188873
441.264496	732.476257	15845.948242	11025.038086	68.101898
441.622223	743.250183	16046.936523	11130.250000	67.872536
441.979950	743.175781	16109.127930	11187.018555	67.967430
442.337616	733.144836	16165.894531	11226.621094	67.994858
442.695251	731.064453	16067.516602	11199.872070	68.260948
443.052887	726.977844	15928.645508	11121.928711	68.380333
443.410461	735.225403	15782.640625	11010.176758	68.283829
443.768005	727.869446	15648.375000	10910.537109	68.246132
444.125458	731.361633	15544.426758	10820.779297	68.111610
444.482941	718.284363	15544.722656	10845.299805	68.303764
444.840393	724.154297	15616.277344	10887.800781	68.248474
445.197754	727.200745	15829.526367	11045.620117	68.323380
445.555084	737.603210	16041.289063	11215.327148	68.465363
445.912415	734.556702	16402.400391	11493.144531	68.666679
446.269714	730.098572	16664.837891	11687.668945	68.765297
446.626953	726.829285	16977.130859	11881.598633	68.643463
446.984161	730.024231	17242.242188	12070.551758	68.679611
447.341309	732.104736	17510.923828	12255.788086	68.679947
447.698456	729.578430	17724.246094	12424.827148	68.817169
448.055542	728.092285	17867.203125	12495.934570	68.660744
448.412598	730.618652	17855.833984	12511.687500	68.793694
448.769653	733.813660	17730.560547	12393.916992	68.601974
449.126617	739.906494	17482.388672	12231.789063	68.639061
449.483582	742.507080	17254.876953	12070.848633	68.605186
449.840515	745.181946	16979.287109	11932.273438	68.911049
450.197388	738.271790	16754.373047	11807.148438	69.110931
450.554230	734.333801	16631.029297	11690.715820	68.922386
450.911041	730.618652	16510.064453	11570.791992	68.698067
451.267822	726.903503	16387.687500	11485.937500	68.700485
451.624573	727.869446	16177.335938	11391.276367	69.021202
451.981262	733.739319	16085.127930	11341.418945	69.099152
452.337921	732.401855	15938.527344	11244.752930	69.132347
452.694580	732.996338	15896.027344	11206.262695	69.071060
453.051147	734.259460	15892.385742	11203.290039	69.065468
453.407715	738.197510	15887.481445	11173.715820	68.884567
453.764221	740.649475	15944.472656	11219.116211	68.919945
454.120728	737.157227	15769.637695	11113.753906	69.027840
454.477142	734.631042	15726.914063	11090.497070	69.074646
454.833557	727.497986	15522.582031	10972.653320	69.247025
455.189911	726.829285	15398.718750	10874.128906	69.161507
455.546265	734.408142	15226.632813	10762.749023	69.198074
455.902557	730.915833	15094.151367	10674.998047	69.232887
456.258820	728.612488	15056.257813	10699.443359	69.591553
456.615051	723.039734	15101.210938	10775.975586	69.918045
456.971252	729.355469	15089.249023	10763.195313	69.874054
457.327393	724.897400	15227.524414	10845.225586	69.782722
457.683502	738.123291	15452.215820	10955.342773	69.438324
458.039612	733.739441	15850.700195	11207.598633	69.285484
458.395630	742.507141	16260.109375	11483.113281	69.215630
458.751648	736.117004	16626.197266	11759.519531	69.372856
459.107605	738.271790	17199.220703	12178.141602	69.497025
459.463562	732.476257	17738.138672	12564.442383	69.576622
459.819458	724.080017	18330.851563	12964.117188	69.518921
460.175323	724.748718	18849.783203	13290.973633	69.330757
460.531158	726.457703	19401.406250	13643.019531	69.165176
460.886932	728.835449	19754.568359	13884.577148	69.147102
461.242676	726.086243	19942.107422	14067.956055	69.430969
461.598419	723.782898	19821.439453	14021.741211	69.631363
461.954102	723.262756	19509.218750	13823.946289	69.736588
462.309723	726.457703	19000.169922	13420.334961	69.465233
462.665344	737.082947	18413.849609	12995.843750	69.349564
463.020905	740.426575	17931.697266	12661.851563	69.345802
463.376373	740.426575	17506.912109	12386.856445	69.462555
463.731873	737.900391	17168.759766	12192.555664	69.714279
464.087341	737.157288	16846.804688	12005.312500	69.946625
464.442749	738.791931	16707.560547	11927.889648	70.068634
464.798126	736.042725	16581.619141	11833.079102	70.032394
465.153503	737.305847	16669.148438	11868.820313	69.869598
465.508820	732.847717	16696.119141	11867.854492	69.753914
465.864105	731.956055	16866.494141	11979.159180	69.708862
466.219330	733.293518	17083.458984	12136.085938	69.741142
466.574524	737.603210	17264.681641	12296.059570	69.936478
466.929657	737.008789	17440.556641	12421.112305	69.949837
467.284790	726.457703	17611.156250	12544.007813	69.989700
467.639893	726.011902	17824.033203	12649.370117	69.735313
467.994934	727.497986	18064.031250	12810.382813	69.696083
468.349945	730.767273	18167.312500	12905.340820	69.822166
468.704926	724.897278	18137.441406	12935.062500	70.122803
469.059875	722.296692	17953.542969	12828.215820	70.255623
469.414764	728.686768	17715.033203	12664.081055	70.264641
469.769653	737.008606	17569.474609	12552.848633	70.196724
470.124451	736.711487	17462.402344	12486.051758	70.247261
470.479248	726.754883	17337.720703	12395.551758	70.247559
470.834015	720.142029	17239.867188	12322.214844	70.231636
471.188721	718.284424	17281.177734	12342.351563	70.181381
471.543365	729.949951	17370.267578	12389.905273	70.070503
471.898010	734.779602	17473.548828	12459.971680	70.048111
472.252625	730.990173	17592.580078	12535.239258	70.006737
472.607178	727.126465	17859.103516	12714.534180	69.970955
472.961700	732.104675	18058.310547	12879.781250	70.111580
473.316193	734.110840	18326.392578	13105.737305	70.324173
473.670654	731.138733	18462.220703	13242.304688	70.560646
474.025055	715.237976	18722.503906	13423.010742	70.570251
474.379456	719.176025	18925.201172	13535.132813	70.394043
474.733795	722.816833	19097.732422	13619.243164	70.184959
475.088104	729.058289	19227.537109	13728.170898	70.271248
475.442383	729.801270	19241.134766	13717.247070	70.159424
475.796570	728.463867	19319.375000	13804.851563	70.337532
476.150787	724.154297	19460.029297	13925.296875	70.459175
476.504944	721.553711	19694.529297	14094.112305	70.482132
476.859070	719.027405	19943.890625	14247.546875	70.369911
477.213135	729.504089	20149.859375	14389.168945	70.336845
477.567200	728.761047	20533.259766	14662.973633	70.358826
477.921173	730.841553	20938.804688	14956.542969	70.396515
478.275146	725.417480	21413.748047	15285.555664	70.378510
478.629089	732.922058	21727.080078	15505.492188	70.365150
478.983002	730.990234	22106.099609	15761.093750	70.315910
479.336823	732.476257	22481.998047	15984.372070	70.125198
479.690643	733.070618	22834.267578	16262.265625	70.264046
480.044403	740.872498	23274.734375	16606.361328	70.407326
480.398163	744.364685	23805.923828	17045.564453	70.685593
480.751862	739.014893	24630.906250	17632.927734	70.709816
481.105499	733.813660	25573.955078	18339.322266	70.875237
481.459137	730.693054	26882.203125	19239.873047	70.776718
481.812744	728.463867	28476.146484	20366.822266	70.774773
482.166290	729.801331	30368.265625	21728.345703	70.848961
482.519806	727.200745	32700.031250	23409.666016	70.942940
482.873291	722.073914	35370.472656	25368.583984	71.133186
483.226715	724.525879	38597.812500	27645.515625	71.081741
483.580139	731.138733	41831.167969	30009.679688	71.237282
483.933502	734.259460	45228.140625	32511.304688	71.418907
484.286804	730.692932	48298.777344	34865.066406	71.758987
484.640106	722.222473	50963.199219	37074.980469	72.356789
484.993347	723.336975	52715.183594	38711.640625	73.065887
485.346558	723.262695	53484.062500	39544.871094	73.580399
485.699738	723.114075	53169.246094	39321.144531	73.595573
486.052887	728.612488	52069.859375	38301.265625	73.182198
486.405975	733.070618	50431.410156	36862.324219	72.697105
486.759064	737.825989	48609.285156	35289.632813	72.176216
487.112061	742.209900	46922.988281	33931.527344	71.868248
487.464996	735.225403	45817.656250	32968.562500	71.498672
487.817963	737.751770	45395.027344	32629.296875	71.413994
488.170868	730.841553	45394.281250	32593.482422	71.339424
488.523743	730.470032	45570.894531	32762.744141	71.436150
488.876587	724.451599	45644.160156	32821.070313	71.453316
489.229401	735.894104	45514.058594	32710.880859	71.407539
489.582153	741.912598	44882.042969	32316.927734	71.533585
489.934845	745.033386	43938.613281	31620.193359	71.480904
490.287537	734.333801	42786.925781	30832.882813	71.573586
490.640198	736.414307	41843.128906	30124.109375	71.491226
490.992798	737.751770	41058.496094	29549.154297	71.455528
491.345337	740.278015	40719.972656	29327.431641	71.504181
491.697876	733.219299	40690.031250	29283.818359	71.453644
492.050354	730.841553	41089.402344	29580.359375	71.483017
492.402832	721.033691	41526.449219	29810.400391	71.288010
492.755219	725.789063	41659.082031	29871.775391	71.203621
493.107605	724.748779	41330.292969	29610.154297	71.136612
493.459930	733.739441	40451.292969	28998.119141	71.163445
493.812225	728.315247	39116.964844	28050.611328	71.172852
494.164490	735.076843	37295.359375	26819.787109	71.347130
494.516724	737.603210	35251.144531	25408.333984	71.481300
494.868896	739.609375	33335.250000	24027.937500	71.446144
495.221039	735.745605	31802.234375	22875.281250	71.265007
495.573120	731.213074	30613.908203	21977.630859	71.099403
495.925201	731.361633	29866.125000	21463.009766	71.157768
496.277222	735.151123	29441.187500	21158.072266	71.145042
496.629211	732.922058	29299.568359	21048.251953	71.115555
496.981140	733.813721	29234.406250	20987.025391	71.062424
497.333069	730.544373	29304.400391	21013.777344	70.985283
497.684967	736.265686	29441.638672	21083.250000	70.882149
498.036804	733.665039	29584.000000	21137.044922	70.721458
498.388580	735.299622	29571.888672	21151.087891	70.798210
498.740326	730.692871	29440.890625	21094.541016	70.928970
499.092072	726.234802	29171.916016	20962.208984	71.139008
499.443756	716.872559	28899.744141	20770.806641	71.156464
499.795410	718.581543	28639.687500	20551.314453	71.031326
500.147003	724.674377	28323.677734	20328.851563	71.032196
500.498566	731.510254	27973.634766	20085.511719	71.044388
500.850098	730.470032	27541.568359	19845.513672	71.295265
501.201599	729.281189	27249.335938	19660.423828	71.384254
501.553009	728.166687	26901.896484	19429.197266	71.449623
501.904449	731.361633	26712.273438	19255.550781	71.299225
502.255859	735.671204	26468.931641	19068.679688	71.242462
502.607178	741.243958	26389.796875	19009.681641	71.225998
502.958405	736.117004	26255.162109	18904.171875	71.194099
503.309692	733.739441	26204.193359	18836.630859	71.074081
503.660919	720.959290	26203.005859	18834.923828	71.085205
504.012115	729.281189	26248.404297	18893.101563	71.177292
504.363251	722.519714	26323.375000	18981.744141	71.322716
504.714294	730.321472	26393.664063	19011.615234	71.235046
505.065369	725.120300	26468.189453	19080.271484	71.301331
505.416443	729.578430	26531.568359	19116.158203	71.260315
505.767395	730.247253	26572.509766	19138.447266	71.232925
506.118317	728.092346	26547.916016	19095.427734	71.136566
506.469238	730.915833	26550.888672	19122.994141	71.231979
506.820160	728.686829	26552.228516	19134.435547	71.275078
507.170929	729.801331	26610.851563	19172.849609	71.260818
507.521729	736.860107	26689.462891	19211.041016	71.184311
507.872498	738.717590	26752.398438	19270.929688	71.240257
508.223236	746.296448	26908.062500	19396.798828	71.289154
508.573883	737.454407	27086.240234	19518.802734	71.279747
508.924500	733.590637	27277.494141	19652.029297	71.272255
509.275116	723.708496	27426.248047	19783.248047	71.377251
509.625702	719.621826	27642.916016	19939.951172	71.389221
509.976196	725.491760	27922.515625	20141.683594	71.390869
510.326660	728.984070	28197.810547	20309.460938	71.282539
510.677124	733.293518	28402.513672	20497.818359	71.431450
511.027557	734.036621	28613.904297	20681.123047	71.546562
511.377869	731.956055	28846.693359	20868.960938	71.624367
511.728180	733.887939	28997.453125	20928.625000	71.451485
512.078430	733.516418	29124.882813	21021.429688	71.458038
512.428650	734.482361	29223.556641	21078.046875	71.408302
512.778931	735.374023	29363.468750	21215.359375	71.538063
513.129028	737.157288	29397.648438	21242.033203	71.544052
513.479126	737.900391	29478.859375	21286.837891	71.497047
513.829285	739.312073	29447.951172	21269.451172	71.512062
514.179382	737.603027	29462.960938	21250.652344	71.410942
514.529297	741.838379	29363.693359	21216.398438	71.534706
514.879272	744.438965	29396.681641	21206.738281	71.416046
515.229187	742.507141	29292.955078	21170.626953	71.550957
515.579163	739.089172	29336.869141	21150.935547	71.375633
515.928955	735.745544	29338.726563	21168.546875	71.435913
516.278748	736.414307	29523.814453	21319.677734	71.500946
516.628540	735.745605	29762.031250	21540.431641	71.675331
516.978333	731.807556	30155.759766	21850.423828	71.773552
517.327942	729.355469	30661.318359	22181.070313	71.668251
517.677612	725.491760	31214.724609	22556.298828	71.601692
518.027222	729.132568	31768.796875	22931.974609	71.530548
518.376831	726.829163	32445.771484	23453.208984	71.649239
518.726379	732.773438	33130.621094	23950.812500	71.665375
519.075867	729.355469	33703.269531	24365.273438	71.680656
519.425293	738.420471	34199.460938	24662.560547	71.498497
519.774658	736.265625	34453.503906	24886.728516	71.626457
520.124084	735.374023	34636.285156	25025.453125	71.650223
520.473389	731.807434	34447.335938	24947.509766	71.823593
520.822693	728.835449	34182.144531	24758.408203	71.830185
521.171997	733.739441	33754.390625	24451.835938	71.828064
521.521240	735.299622	33337.179688	24152.468750	71.827667
521.870361	737.157227	32927.621094	23833.562500	71.749214
522.219482	733.070618	32541.771484	23585.689453	71.843925
522.568604	737.751709	32227.392578	23392.132813	71.942329
522.917664	745.181946	32033.166016	23261.431641	71.964523
523.266724	748.005432	32038.888672	23265.369141	71.961418
523.615662	738.346130	32213.203125	23358.619141	71.867752
523.964600	732.104675	32581.517578	23628.562500	71.889732
524.313538	731.881836	33048.214844	23978.455078	71.934448
524.662354	732.401917	33666.929688	24432.369141	71.960854
525.011169	740.278015	34429.574219	24983.025391	71.959793
525.359985	741.392578	35400.566406	25676.718750	71.944382
525.708740	742.209900	36578.562500	26495.904297	71.864723
526.057434	732.773438	37868.308594	27437.541016	71.911629
526.406067	730.915833	39320.261719	28493.162109	71.942772
526.754700	726.531982	40861.144531	29706.525391	72.206985
527.103333	727.126404	42628.214844	31058.685547	72.388474
527.451782	720.513489	44585.566406	32600.837891	72.678185
527.800293	726.309082	46703.792969	34166.546875	72.731773
528.148743	725.343079	48831.375000	35889.777344	73.097763
528.497131	727.275085	50810.730469	37529.339844	73.481483
528.845642	726.234680	52506.312500	39161.695313	74.228279
529.193909	730.915833	53910.261719	40570.398438	74.915329
529.542175	736.785828	54959.191406	41759.984375	75.657280
529.890503	735.522644	55554.355469	42450.406250	76.095901
530.238770	733.367920	55617.519531	42592.921875	76.268929
530.586914	727.869446	55199.265625	42177.417969	76.094154
530.934998	733.888000	54266.921875	41173.667969	75.541733
531.283142	736.265625	52922.113281	39794.753906	74.844978
531.631226	733.665039	51090.777344	38034.597656	74.072823
531.979248	728.983948	49128.292969	36319.765625	73.535721
532.327148	730.767273	47236.843750	34740.386719	73.129410
532.675110	740.055115	45791.355469	33519.964844	72.761299
533.023071	737.751709	44954.332031	32841.359375	72.605354
533.370850	730.841614	44613.433594	32508.259766	72.414627
533.718689	726.903564	44792.425781	32620.158203	72.376884
534.066467	728.018066	45085.550781	32787.636719	72.275482
534.414246	728.984070	45349.105469	33014.707031	72.356873
534.761963	738.494812	45382.468750	33095.839844	72.478645
535.109619	743.770203	45253.925781	33024.511719	72.524445
535.457153	750.308899	44795.843750	32661.916016	72.451401
535.804749	735.968506	44069.761719	32151.531250	72.496681
536.152344	736.414307	43134.136719	31484.740234	72.523529
536.499817	727.275085	42194.804688	30816.904297	72.561897
536.847229	728.315247	41231.546875	29999.203125	72.268036
537.194641	724.154358	40327.281250	29283.373047	72.113548
537.542114	730.024231	39641.023438	28761.544922	72.040092
537.889404	737.380188	39143.042969	28435.726563	72.120468
538.236694	726.383362	38791.964844	28191.640625	72.152473
538.583984	726.754883	38457.675781	27966.875000	72.195747
538.931213	721.405090	38249.035156	27788.029297	72.124527
539.278381	730.990173	38049.308594	27677.837891	72.208092
539.625488	729.355530	37956.949219	27625.677734	72.248352
539.972595	724.674500	38034.824219	27761.056641	72.463882
540.319641	723.336975	38494.386719	28055.296875	72.362190
540.666687	726.011902	39265.050781	28573.929688	72.258987
541.013611	728.686768	40372.753906	29356.931641	72.213188
541.360596	733.442200	41650.613281	30278.953125	72.208099
541.707458	724.377197	43123.292969	31373.880859	72.288414
542.054260	730.990234	44394.984375	32333.943359	72.377609
542.401062	723.485657	45575.953125	33306.046875	72.643852
542.747864	727.200745	46334.511719	33942.972656	72.829926
543.094666	717.467041	46647.250000	34199.832031	72.899025
543.441284	717.318542	46362.222656	33927.437500	72.757561
543.787903	719.696106	45553.957031	33356.871094	72.795166
544.134460	724.154297	44453.167969	32578.619141	72.845146
544.481079	732.253357	43027.292969	31560.822266	72.889328
544.827637	728.018066	41479.121094	30338.474609	72.661736
545.174072	734.110901	39788.363281	29017.890625	72.421761
545.520508	730.544434	38336.265625	27916.423828	72.291870
545.866943	730.692932	37083.968750	27018.031250	72.310776
546.213318	729.429749	36236.027344	26366.244141	72.202957
546.559631	732.847656	35457.035156	25847.912109	72.327293
546.905823	737.082947	34814.988281	25387.607422	72.335800
547.252136	744.736145	34274.878906	25014.755859	72.382690
547.598389	736.711426	33827.800781	24668.505859	72.320961
547.944458	737.677429	33484.000000	24379.615234	72.197227
548.290588	729.504150	32998.953125	24051.791016	72.273582
548.636658	733.070618	32481.287109	23681.541016	72.282707
548.982727	729.281189	31853.130859	23229.853516	72.293671
549.328735	723.931396	31224.828125	22766.427734	72.268356
549.674622	721.330811	30495.101563	22216.587891	72.195282
550.020569	729.281189	29762.625000	21671.056641	72.130081
550.366455	732.624817	28981.255859	21070.023438	71.994278
550.712280	738.494690	28259.107422	20610.757813	72.208649
551.058044	736.562927	27687.125000	20200.605469	72.221283
551.403748	740.203796	27234.101563	19879.767578	72.241402
551.749512	729.875671	26914.525391	19637.687500	72.209526
552.095154	723.634094	26700.162109	19486.705078	72.230865
552.440735	728.538147	26602.453125	19419.240234	72.237625
552.786316	735.002441	26620.658203	19413.814453	72.158928
553.131897	740.798096	26634.626953	19438.558594	72.209328
553.477417	729.801270	26668.656250	19501.640625	72.369576
553.822815	724.823059	26664.197266	19476.525391	72.290497
554.168213	717.987244	26636.412109	19469.841797	72.349518
554.513672	715.906738	26573.994141	19386.841797	72.205399
554.859009	723.262695	26448.275391	19286.162109	72.158951
555.204285	727.795105	26300.041016	19177.828125	72.148659
555.549500	732.922058	26112.056641	19035.539063	72.116791
555.894714	731.584534	25870.423828	18869.101563	72.149384
556.239990	726.457703	25560.431641	18645.302734	72.154564
556.585022	728.315247	25300.671875	18481.091797	72.246941
556.930115	725.640381	25027.906250	18281.960938	72.241493
557.275146	727.497986	24797.937500	18096.130859	72.157524
557.620178	730.470032	24524.208984	17909.853516	72.201279
557.965149	736.265625	24315.712891	17809.693359	72.408089
558.310059	741.466858	24132.187500	17689.544922	72.456413
558.654968	746.965271	23998.146484	17575.712891	72.378036
558.999756	743.844543	23885.054688	17476.296875	72.305870
559.344604	740.278015	23818.779297	17427.404297	72.305939
559.689331	730.024231	23758.218750	17382.451172	72.313210
560.033997	733.442200	23716.460938	17293.365234	72.052864
560.378723	731.658875	23706.802734	17283.628906	72.042946
560.723389	728.686768	23692.388672	17260.298828	71.990189
561.067932	725.343079	23742.171875	17321.451172	72.104233
561.412476	719.919006	23705.541016	17284.523438	72.065071
561.757019	722.371033	23691.572266	17269.810547	72.041862
562.101501	718.804504	23686.593750	17265.724609	72.044029
562.445862	723.485596	23697.812500	17282.439453	72.075905
562.790222	717.838623	23712.671875	17342.775391	72.298576
563.134644	719.770508	23664.302734	17340.990234	72.440872
563.478943	726.234802	23680.646484	17373.314453	72.522354
563.823181	736.042786	23660.806641	17341.140625	72.433014
564.167358	740.575195	23717.279297	17372.642578	72.386650
564.511536	737.454529	23745.515625	17380.074219	72.333862
564.855774	738.420410	23780.509766	17391.814453	72.273804
565.199768	726.977844	23844.781250	17401.474609	72.128380
565.543823	725.640381	23940.115234	17478.898438	72.167290
565.887817	719.250305	24158.416016	17641.546875	72.196671
566.231812	724.971619	24335.775391	17815.933594	72.386192
566.575745	727.126404	24555.859375	17925.382813	72.174446
566.919617	718.135742	24745.779297	18066.410156	72.201309
567.263428	711.225647	24902.705078	18146.138672	72.070473
567.607239	711.374207	25003.607422	18285.974609	72.346581
567.950989	717.689941	25040.240234	18312.947266	72.341331
568.294678	733.590759	25120.562500	18351.062500	72.241325
568.638367	731.881836	25073.525391	18266.654297	72.036110
568.981995	743.324402	24971.435547	18220.216797	72.134773
569.325623	741.689758	24779.806641	18097.988281	72.203239
569.669128	740.129395	24643.166016	18031.560547	72.339897
570.012573	728.315247	24510.460938	17866.906250	72.064949
570.356140	721.702332	24422.041016	17814.003906	72.118385
570.699524	722.816895	24351.525391	17763.330078	72.117836
571.042908	729.801270	24393.658203	17830.052734	72.263161
571.386230	737.305969	24487.724609	17880.429688	72.180298
571.729492	739.014893	24679.054688	17986.607422	72.044960
572.072815	735.596924	24842.593750	18098.656250	72.024979
572.416016	732.550537	24971.656250	18224.822266	72.165497
572.759094	728.463867	25106.814453	18331.076172	72.205917
573.102234	729.132568	25199.990234	18396.238281	72.196510
573.445374	729.652649	25292.794922	18449.439453	72.139740
573.788391	734.631042	25294.501953	18455.384766	72.153282
574.131409	738.123230	25290.119141	18464.673828	72.200043
574.474365	741.392578	25272.287109	18412.064453	72.034355
574.817261	737.528809	25162.689453	18355.744141	72.131416
575.160156	740.129395	24992.091797	18233.515625	72.131836
575.502930	734.854004	24784.562500	18103.115234	72.218178
575.845703	735.745605	24590.859375	17936.304688	72.104286
576.188477	738.494812	24387.490234	17751.365234	71.939087
576.531250	738.048889	24112.867188	17588.197266	72.086754
576.873901	741.838379	23848.275391	17415.517578	72.160324
577.216431	736.711487	23600.255859	17290.318359	72.401756
577.559082	735.448425	23377.345703	17105.378906	72.299294
577.901611	730.024231	23079.166016	16881.580078	72.269241
578.244080	729.801270	22759.890625	16624.564453	72.150246
578.586487	729.206848	22433.179688	16395.935547	72.183693
578.928955	797.045349	22146.890625	16253.942383	72.398170
579.271301	800.388916	21777.458984	16044.112305	72.668503
579.613647	802.617981	21387.443359	15793.339844	72.824135
579.955872	737.380188	20994.751953	15465.070313	72.702873
580.298157	731.361633	20723.623047	15229.829102	72.520401
580.640320	732.104675	20454.572266	15013.385742	72.411232
580.982483	728.166687	20238.574219	14870.872070	72.487999
581.324524	732.253235	20023.542969	14716.768555	72.491348
581.666626	728.761047	19899.679688	14608.731445	72.401176
582.008728	735.745605	19794.171875	14505.377930	72.249580
582.350647	728.761047	19709.167969	14423.941406	72.154305
582.692566	729.727051	19622.904297	14376.833008	72.232979
583.034424	728.463867	19510.111328	14332.698242	72.433655
583.376343	731.435974	19364.923828	14267.012695	72.641136
583.718201	731.733215	19282.820313	14187.286133	72.532417
584.059937	731.064453	19200.046875	14093.442383	72.350372
584.401611	727.572205	19140.902344	14061.269531	72.413284
584.743347	732.922058	19049.212891	14012.601563	72.502014
585.085022	729.652649	18964.361328	13982.953125	72.681725
585.426514	732.401917	18878.837891	13911.846680	72.628281
585.768127	729.281250	18775.332031	13876.180664	72.851944
586.109619	729.281250	18713.435547	13797.940430	72.667633
586.451172	732.624817	18675.023438	13761.012695	72.612297
586.792542	727.720886	18636.310547	13697.260742	72.420776
587.133850	733.962219	18577.613281	13688.343750	72.599396
587.475220	728.463867	18560.152344	13680.468750	72.634766
587.816589	729.801331	18608.966797	13692.653320	72.502548
588.157776	723.485657	18645.078125	13736.640625	72.611603
588.498962	729.206848	18694.859375	13764.504883	72.556778
588.840210	731.510254	18665.513672	13800.839844	72.874580
589.181335	738.420410	18747.320313	13827.290039	72.680000
589.522400	739.832214	18802.154297	13857.828125	72.626297
589.863403	738.123230	18871.851563	13878.335938	72.462830
590.204407	737.083008	18850.228516	13886.137695	72.593994
590.545410	729.801270	18881.287109	13920.911133	72.672340
590.886353	730.172852	18905.361328	13945.581055	72.711266
591.227112	730.024231	18919.033203	13914.745117	72.487289
591.567932	727.943848	18868.208984	13873.359375	72.465401
591.908752	726.234863	18819.392578	13818.968750	72.362900
592.249512	723.188416	18784.619141	13841.631836	72.632355
592.590149	732.179016	18671.308594	13767.031250	72.661568
592.930786	741.541199	18546.035156	13711.229492	72.845024
593.271423	744.290344	18449.142578	13617.979492	72.712776
593.612000	739.757874	18403.373047	13546.203125	72.501839
593.952576	730.915833	18387.250000	13524.803711	72.460609
594.292969	724.080017	18392.673828	13534.760742	72.505379
594.633484	726.606262	18451.593750	13607.801758	72.672516
594.973877	729.206848	18548.857422	13674.375977	72.645470
595.314209	729.652771	18685.052734	13768.218750	72.616409
595.654480	725.417480	18847.628906	13893.270508	72.661407
595.994812	729.727051	19050.697266	14025.752930	72.572716
596.335022	725.937561	19240.021484	14149.465820	72.504417
596.675171	729.875549	19390.708984	14276.821289	72.595604
597.015320	722.965393	19559.001953	14362.270508	72.410690
597.355408	730.767273	19718.529297	14446.008789	72.232010
597.695496	732.327637	19851.236328	14514.739258	72.087860
598.035461	730.172852	19859.408203	14565.339844	72.324730
598.375366	730.172852	19833.550781	14549.290039	72.338600
598.715271	727.720886	19771.804688	14489.550781	72.263016
599.055176	735.374023	19595.113281	14376.090820	72.327179
599.395081	734.556641	19376.960938	14243.906250	72.465706
599.734802	732.773438	19085.544922	14055.698242	72.593529
600.074524	731.064514	18749.474609	13807.004883	72.569893
600.414246	735.448303	18356.634766	13546.277344	72.701286
600.753906	734.853943	17994.410156	13256.793945	72.550766
601.093506	737.157227	17678.548828	13045.106445	72.650169
601.433044	736.562805	17416.781250	12860.239258	72.682961
601.772583	739.757813	17216.683594	12737.640625	72.816269
602.112122	740.798096	17199.148438	12668.613281	72.472733
602.451538	737.008606	17241.128906	12648.106445	72.170448
602.790894	730.098633	17330.291016	12707.101563	72.149788
603.130310	720.587830	17451.404297	12815.956055	72.293953
603.469604	710.631287	17605.064453	12974.221680	72.589539
603.808838	715.163757	17861.333984	13134.046875	72.429489
604.148010	715.535217	18121.244141	13353.461914	72.607941
604.487305	717.095520	18413.626953	13533.274414	72.421982
604.826416	714.792175	18645.525391	13741.321289	72.649178
605.165527	714.569153	18881.957031	13875.661133	72.443497
605.504456	716.723938	19060.580078	14004.948242	72.439651
605.843445	717.689941	19186.595703	14061.938477	72.252510
606.182434	723.931396	19228.650391	14083.114258	72.193382
606.521423	726.383484	19161.630859	14058.965820	72.321144
606.860229	723.931458	18998.833984	13968.242188	72.472672
607.199036	718.953125	18767.158203	13838.585938	72.692177
607.537903	721.999512	18534.068359	13648.666992	72.572525
607.876648	732.401917	18237.826172	13457.114258	72.690109
608.215271	735.968445	17940.093750	13232.348633	72.635948
608.553955	735.374023	17650.091797	13023.557617	72.647873
608.892578	732.401917	17429.041016	12831.932617	72.466866
609.231140	736.860107	17280.658203	12696.700195	72.291977
609.569641	736.785828	17183.619141	12635.920898	72.349091
609.908081	739.014832	17158.802734	12628.043945	72.406723
610.246521	733.887939	17133.837891	12634.434570	72.564537
610.584961	739.534912	17182.951172	12639.932617	72.371811
610.923340	736.339905	17233.031250	12631.686523	72.107468
611.261597	742.507080	17194.021484	12614.967773	72.166374
611.599854	740.278015	17100.548828	12583.686523	72.391273
611.938110	735.374023	16970.146484	12509.457031	72.523857
612.276245	732.401917	16797.986328	12395.848633	72.598953
612.614319	724.823059	16503.005859	12205.856445	72.765244
612.952393	725.194519	16166.414063	12008.286133	73.071243
613.290466	720.810730	15868.237305	11781.291992	73.018883
613.628479	727.572266	15576.895508	11525.393555	72.715912
613.966370	740.872375	15315.203125	11312.367188	72.535027
614.304260	742.729980	15034.338867	11099.934570	72.470528
614.642151	741.541199	14819.456055	10976.073242	72.699203
614.979980	725.268860	14630.726563	10849.014648	72.804115
615.317749	725.417480	14506.565430	10750.711914	72.746437
615.655396	725.343201	14423.049805	10658.204102	72.514771
615.993164	727.869446	14358.554688	10588.137695	72.338760
616.330811	718.507324	14298.815430	10558.416992	72.457191
616.668396	713.380371	14237.738281	10533.005859	72.606964
617.005859	719.027344	14179.782227	10508.856445	72.728676
617.343445	728.389587	14173.690430	10495.780273	72.645386
617.680908	727.646545	14197.391602	10501.055664	72.558235
618.018311	726.383362	14223.843750	10536.719727	72.682831
618.355652	731.361633	14215.223633	10544.893555	72.779831
618.692993	738.420471	14211.657227	10534.045898	72.704323
619.030273	737.603088	14227.558594	10540.063477	72.664879
619.367554	733.293518	14280.165039	10539.841797	72.389763
619.704712	733.665039	14295.695313	10562.652344	72.474304
620.041870	734.556702	14257.799805	10550.243164	72.583824
620.379028	732.624817	14173.317383	10524.088867	72.849403
620.716064	734.036621	14117.144531	10467.693359	72.730911
621.053040	728.166687	14069.887695	10420.733398	72.648552
621.389954	734.705261	14025.382813	10370.208008	72.498207
621.726929	732.030334	13949.073242	10350.071289	72.769989
622.063843	732.253357	13883.463867	10285.131836	72.638779
622.400635	721.999512	13824.616211	10253.849609	72.747673
622.737427	722.148132	13785.383789	10225.913086	72.751999
623.074219	725.640381	13766.437500	10197.454102	72.632172
623.410889	729.949951	13719.922852	10153.466797	72.544548
623.747559	728.835449	13670.140625	10097.071289	72.390198
624.084167	731.881836	13607.875000	10053.901367	72.398453
624.420715	730.098572	13586.178711	10058.656250	72.561447
624.757324	726.977844	13596.358398	10058.358398	72.508392
625.093750	722.668274	13611.590820	10100.489258	72.758766
625.430176	718.210144	13643.614258	10125.974609	72.785072
625.766602	726.977844	13658.622070	10153.243164	72.893013
626.102905	722.222473	13729.285156	10199.980469	72.866241
626.439209	723.708496	13829.221680	10273.168945	72.865982
626.775452	716.129700	13960.589844	10367.756836	72.872940
627.111694	719.027405	14049.010742	10425.934570	72.820099
627.447876	725.789001	14134.903320	10464.498047	72.627533
627.783997	730.395691	14174.804688	10491.989258	72.607086
628.120056	727.869446	14260.921875	10539.098633	72.498276
628.456055	730.247131	14262.036133	10549.352539	72.563248
628.792053	730.321472	14276.375977	10544.596680	72.451172
629.128052	732.104675	14174.953125	10498.379883	72.650345
629.463928	735.002625	14098.273438	10439.606445	72.621468
629.799744	730.024231	13989.940430	10370.430664	72.703377
630.135559	733.442200	13877.965820	10265.441406	72.516884
630.471375	728.240967	13722.375000	10142.172852	72.447548
630.807068	732.030457	13523.467773	10025.815430	72.656303
631.142700	731.881836	13382.812500	9928.403320	72.694427
631.478333	729.504150	13229.004883	9813.531250	72.675117
631.813965	729.949951	13121.860352	9713.891602	72.498436
632.149475	730.990234	12980.090820	9618.858398	72.559357
632.484924	736.711487	12904.747070	9562.463867	72.532272
632.820435	734.705322	12830.593750	9508.370117	72.534271
633.155884	738.271790	12780.141602	9439.789063	72.260513
633.491150	739.460693	12724.934570	9409.399414	72.337051
633.826477	739.906494	12634.583008	9351.814453	72.401367
634.161804	735.596924	12549.135742	9315.704102	72.629440
634.497009	730.395813	12457.445313	9263.692383	72.765930
634.832153	728.835449	12393.397461	9194.442383	72.575439
635.167297	733.516541	12338.264648	9148.225586	72.510918
635.502380	737.528809	12270.574219	9087.965820	72.404449
635.837463	740.723816	12204.000000	9033.723633	72.344063
636.172424	737.677429	12114.984375	8966.183594	72.323845
636.507324	734.631042	12030.278320	8895.224609	72.245468
636.842224	737.454529	11902.477539	8836.153320	72.536331
637.177124	733.070618	11767.620117	8763.114258	72.771828
637.511963	725.045898	11647.992188	8669.269531	72.729675
637.846741	719.993408	11529.702148	8587.536133	72.782188
638.181396	714.494934	11426.049805	8498.448242	72.668755
638.516113	714.643616	11306.570313	8426.077148	72.804825
638.850769	718.507324	11224.911133	8333.867188	72.483025
639.185303	722.445313	11119.179688	8247.528320	72.379295
639.519836	727.497986	11047.105469	8175.603027	72.174309
639.854370	724.971680	10943.007813	8132.358887	72.493256
640.188843	730.024170	10866.772461	8089.411621	72.601074
640.523254	731.733215	10762.600586	8036.806152	72.825935
640.857605	731.213074	10663.481445	7953.437500	72.714752
641.191895	729.355469	10588.063477	7899.122559	72.725220
641.526184	729.206848	10523.569336	7850.677246	72.709892
641.860413	734.185242	10488.125977	7819.915527	72.644798
642.194580	732.104675	10429.426758	7779.123535	72.669739
642.528748	729.206848	10351.631836	7742.566406	72.885574
642.862793	727.200745	10273.911133	7700.957031	73.048790
643.196838	730.321472	10221.602539	7650.059082	72.906258
643.530823	732.030457	10177.837891	7588.313965	72.585464
643.864746	723.262695	10138.458008	7546.332520	72.468704
644.198669	730.395752	10082.285156	7515.868652	72.557236
644.532532	730.247131	10023.585938	7511.335938	72.967194
644.866333	737.305908	9978.038086	7495.880859	73.138954
645.200073	736.562927	9941.109375	7469.578125	73.148796
645.533813	740.798157	9943.413086	7426.186035	72.646606
645.867554	741.318298	9929.370117	7394.013184	72.405937
646.201172	737.900330	9927.883789	7374.396484	72.214455
646.534729	742.729980	9908.713867	7390.595215	72.527565
646.868225	740.278015	9931.524414	7402.037109	72.479393
647.201782	737.380188	9905.444336	7400.551270	72.678055
647.535217	730.841614	9930.929688	7402.705566	72.519562
647.868591	740.872498	9939.178711	7415.114746	72.559464
648.201965	748.079773	9970.236328	7424.773926	72.398407
648.535278	747.262451	9943.933594	7426.854980	72.630554
648.868591	735.596985	9924.540039	7424.477051	72.792702
649.201782	724.302917	9884.937500	7418.830078	73.079292
649.534912	723.485657	9870.968750	7399.213379	72.978844
649.868103	719.919128	9823.117188	7358.272949	72.923317
650.201172	726.977783	9800.231445	7341.034668	72.896194
650.534180	729.949890	9748.591797	7303.882813	72.892723
650.867188	743.547363	9723.848633	7275.871094	72.740593
651.200134	737.454407	9680.083984	7233.964355	72.646523
651.533020	730.098450	9632.009766	7191.908691	72.589020
651.865845	731.510254	9583.936523	7165.605469	72.681717
652.198608	737.157288	9553.398438	7142.942871	72.658920
652.531433	746.147949	9514.315430	7133.061035	72.842049
652.864136	735.225403	9462.005859	7082.758301	72.736252
653.196777	1034.145264	9759.588867	7375.957031	72.681824
653.529358	1049.080078	9734.844727	7340.736816	72.436417
653.861938	1052.498047	9686.919922	7296.378418	72.313820
654.194519	757.516296	9288.433594	6931.255371	72.368996
654.526978	739.014893	9224.310547	6886.302246	72.446350
654.859375	734.779602	9177.722656	6870.326660	72.670708
655.191833	734.556641	9124.001953	6831.912598	72.678894
655.524170	733.367859	9082.243164	6808.061035	72.760620
655.856445	736.711426	9039.223633	6776.185547	72.742737
656.188660	740.500916	9016.263672	6763.479004	72.778526
656.520874	743.472961	8991.372070	6729.077637	72.571259
656.853088	739.014893	8974.653320	6710.724609	72.510590
657.185181	731.138733	8973.465820	6698.464844	72.398560
657.517212	729.429871	8993.081055	6721.795410	72.514748
657.849243	735.448303	9005.935547	6736.507813	72.559929
658.181274	730.990173	9027.631836	6755.231934	72.610603
658.513123	727.200684	9069.687500	6755.009277	72.254341
658.844971	732.476257	9149.340820	6810.216309	72.209084
659.176819	732.699158	9224.906250	6890.611328	72.512505
659.508667	735.374023	9289.400391	6982.969238	73.036896
659.840393	727.126404	9372.025391	7043.972168	73.070206
660.172058	729.652771	9444.397461	7066.337402	72.712219
660.503662	732.699219	9503.020508	7084.393066	72.422592
660.835266	729.801331	9535.565430	7106.089844	72.410400
661.166931	735.151123	9495.813477	7094.052734	72.584709
661.498413	734.928223	9468.321289	7073.842285	72.582497
661.829773	738.197510	9392.977539	7003.552246	72.391838
662.161194	734.556702	9293.709961	6919.217285	72.257858
662.492615	728.166687	9160.930664	6817.200684	72.206863
662.823975	733.219238	8978.294922	6705.671875	72.436600
663.155212	734.853943	8839.200195	6602.019531	72.395294
663.486450	745.479187	8660.725586	6478.008301	72.423889
663.817627	748.005554	8515.612305	6374.802246	72.439262
664.148743	754.469910	8368.715820	6284.078125	72.621880
664.479858	746.147949	8266.327148	6226.122559	72.870270
664.810913	743.250183	8183.404297	6161.701660	72.827141
665.141907	735.448303	8119.727051	6101.070313	72.662781
665.472778	738.791931	8027.517578	6028.550781	72.574539
665.803711	746.965271	7964.657715	5999.350098	72.770973
666.134583	749.268616	7915.988770	5974.681641	72.912193
666.465454	749.045715	7897.264160	5968.736816	73.020866
666.796143	743.844543	7862.861816	5940.650879	72.998924
667.126831	744.587585	7848.894043	5921.035645	72.863525
667.457458	747.113831	7827.865723	5904.688965	72.839371
667.788147	738.866272	7812.782715	5882.323730	72.710182
668.118774	735.448303	7773.848145	5869.171875	72.938789
668.449219	736.117004	7765.303223	5857.877441	72.864204
668.779663	744.290344	7767.531738	5841.680176	72.578880
669.110107	739.312073	7762.033691	5832.615234	72.526062
669.440552	731.064453	7736.770996	5806.683594	72.449783
669.770874	726.457703	7685.947754	5786.993652	72.714180
670.101135	726.977783	7647.459473	5757.643066	72.692413
670.431396	731.584534	7605.924316	5737.210449	72.816093
670.761597	728.463867	7573.899902	5706.671875	72.723022
671.091797	729.801270	7545.070313	5684.455078	72.699310
671.421875	724.748779	7489.268066	5648.566895	72.788887
671.751892	723.857117	7467.645996	5634.003906	72.809914
672.081909	729.652649	7449.145020	5597.892578	72.449516
672.411865	728.240967	7412.513672	5576.270996	72.528915
672.741821	735.596924	7367.561035	5538.004395	72.413048
673.071716	733.145020	7306.707031	5504.122559	72.578270
673.401550	744.216064	7287.685547	5467.714355	72.186440
673.731262	733.665039	7238.570801	5447.132813	72.460197
674.060974	727.274963	7200.602051	5415.851563	72.429161
674.390625	722.742615	7193.617676	5399.504883	72.274033
674.720276	724.228577	7170.806641	5381.895020	72.250214
675.049927	735.002502	7135.810059	5355.888672	72.192238
675.379395	733.293518	7056.306152	5317.845703	72.505821
675.708923	737.157227	6995.824219	5260.930176	72.280136
676.038330	729.652649	6937.273438	5223.481934	72.392136
676.367737	731.584534	6894.994629	5187.072754	72.289337
676.697083	736.265625	6859.404297	5180.385742	72.579117
677.026428	742.655762	6824.407715	5173.104492	72.848228
677.355652	737.454529	6804.271973	5155.717285	72.826698
677.684875	735.299744	6808.878418	5157.797852	72.815361
678.013977	731.213074	6827.231934	5158.614746	72.627754
678.343079	734.705322	6847.292969	5173.029785	72.609573
678.672180	729.355469	6846.029785	5156.460449	72.377647
679.001221	726.383362	6865.720215	5152.447754	72.093529
679.330139	726.531982	6897.149902	5172.435059	72.049561
679.659058	731.064453	6932.592285	5191.233887	71.920494
679.987976	732.847839	6975.464844	5226.453613	71.982727
680.316772	732.030457	7015.514160	5237.599121	71.704948
680.645630	728.018066	7062.102051	5271.629395	71.732727
680.974304	729.355530	7087.142090	5302.539063	71.930435
681.302979	729.578430	7110.398926	5346.897949	72.362473
681.631653	726.606262	7145.395996	5391.776855	72.679909
681.960266	719.473206	7175.414063	5423.504395	72.863602
682.288757	721.330811	7194.360840	5437.918457	72.865219
682.617249	728.166687	7185.890137	5439.181641	72.951637
682.945679	732.624817	7172.664551	5400.321777	72.479317
683.274109	732.847717	7138.187988	5369.337402	72.384750
683.602478	729.875671	7092.269043	5315.318848	72.071045
683.930725	727.795105	7037.062012	5270.514648	72.000755
684.259033	727.572205	6956.740723	5229.500000	72.271729
684.587280	727.720764	6865.126465	5177.859863	72.508469
684.915344	737.603088	6772.395996	5133.203613	72.837639
685.243469	736.340027	6707.826660	5065.736328	72.501144
685.571533	739.386414	6649.053223	5022.344238	72.473763
685.899536	730.692932	6582.329590	4968.697266	72.424255
686.227539	724.080078	6506.763672	4953.019531	73.131088
686.555420	720.067688	6462.479004	4919.434082	73.128975
686.883301	714.569153	6441.748535	4917.948242	73.393532
687.211121	716.723938	6441.451660	4904.945801	73.160194
687.538940	713.826172	6452.968750	4904.500000	73.019165
687.866638	723.188416	6461.735840	4900.041504	72.785896
688.194336	725.120300	6476.002441	4885.255371	72.339081
688.521973	728.612488	6473.104004	4880.054199	72.268219
688.849609	728.983948	6435.284668	4867.273926	72.521416
689.177063	737.305908	6396.201172	4852.785645	72.725845
689.504578	740.946716	6342.851563	4818.680176	72.791908
689.832031	738.643372	6295.966797	4783.832031	72.790237
690.159485	735.968506	6205.392090	4725.504395	72.942528
690.486816	730.841553	6133.838379	4682.186035	73.132454
690.814087	737.231628	6075.287598	4632.403809	72.969864
691.141296	729.801331	5997.864746	4566.273438	72.825096
691.468506	730.470154	5878.756348	4477.481934	72.781731
691.795715	723.039795	5775.179199	4397.012207	72.721115
692.122803	728.166687	5709.421387	4352.504395	72.759529
692.449829	737.751648	5676.951172	4325.384277	72.635910
692.776855	746.742371	5615.726074	4274.635742	72.456459
693.103821	746.073547	5542.982910	4228.122070	72.589424
693.430664	733.739441	5460.878418	4155.602539	72.387611
693.757568	726.383484	5392.816895	4113.101563	72.576157
694.084351	724.897400	5340.953613	4069.039795	72.445877
694.411133	731.733215	5305.362793	4049.869873	72.549316
694.737854	735.522644	5260.781250	4037.460938	72.966835
695.064575	737.380188	5249.041016	4016.953857	72.691055
695.391174	731.956055	5217.388184	4007.368408	73.023338
695.717773	725.417480	5205.797363	3990.204834	72.868538
696.044250	721.033630	5184.546875	3980.916748	73.034019
696.370789	723.485596	5194.800781	3982.477295	72.886642
696.697205	722.371094	5208.917969	3986.861084	72.761749
697.023621	730.618652	5264.273926	4013.461670	72.410515
697.349915	733.962219	5302.836426	4041.993896	72.403656
697.676208	739.757874	5381.226074	4098.464355	72.363022
698.002380	735.448303	5442.823242	4167.937012	72.917259
698.328674	738.866211	5535.552734	4235.329590	72.893303
698.654724	739.980774	5632.889160	4298.115234	72.720238
698.980896	737.454529	5748.429688	4370.188965	72.495560
699.306946	733.888000	5836.479004	4424.652832	72.331192
699.632935	730.247131	5906.397949	4477.705078	72.398544
699.958862	731.956116	5944.589355	4501.407715	72.313766
700.284729	725.863281	5948.601563	4496.949219	72.205147
700.610596	723.559875	5908.701172	4468.268066	72.219986
700.936340	724.228699	5846.583984	4404.739746	71.851921
701.262146	727.572266	5760.244141	4339.278809	71.765190
701.587830	730.098572	5638.462402	4255.168457	71.817619
701.913513	734.779602	5479.900391	4156.791504	72.116440
702.239075	728.092468	5337.313477	4052.321533	72.121277
702.564697	729.652771	5215.531250	3955.579834	71.912941
702.890137	727.943665	5078.145020	3871.691650	72.266731
703.215698	735.968445	4946.554688	3817.227783	73.178864
703.541016	735.968445	4843.645508	3734.455078	72.997131
703.866455	734.333801	4767.856934	3681.848389	73.075439
704.191711	736.414307	4708.340332	3621.366211	72.633575
704.517029	738.940613	4631.437012	3577.230225	72.916946
704.842163	736.860046	4569.542969	3529.007813	72.850998
705.167419	733.516418	4529.122559	3480.710938	72.378281
705.492493	728.983948	4490.113281	3459.088867	72.587372
705.817566	730.618652	4453.927734	3417.850830	72.173225
706.142578	736.860046	4414.918945	3394.296875	72.251068
706.467590	750.754700	4403.476563	3375.423828	71.855164
706.792480	753.355286	4384.455078	3376.464111	72.240067
707.117371	744.513245	4384.975098	3381.813721	72.444115
707.442200	732.327637	4376.728027	3377.132813	72.571754
707.766907	727.646545	4376.801758	3382.854248	72.762260
708.091675	727.943665	4369.520020	3377.430420	72.756592
708.416321	734.482361	4362.609863	3374.829346	72.774368
708.741028	736.711487	4372.343262	3366.730469	72.340080
709.065552	745.256287	4394.336914	3379.807617	72.197670
709.390137	737.305908	4412.764160	3389.169922	72.150566
709.714600	745.181946	4441.074219	3410.494873	72.115547
710.039063	740.798157	4457.717773	3430.630859	72.367256
710.363403	745.107727	4486.695801	3464.215820	72.672569
710.687744	733.442139	4531.797363	3498.023438	72.783646
711.012085	731.510254	4575.189941	3517.044922	72.470520
711.336304	727.646667	4641.394043	3552.041748	72.166000
711.660461	731.584656	4685.232910	3589.118408	72.275871
711.984619	731.138733	4715.845703	3623.297852	72.581474
712.308716	725.194580	4719.485840	3633.997314	72.824005
712.632751	716.946960	4730.110840	3610.369141	72.098282
712.956726	719.324646	4712.204102	3604.945068	72.269157
713.280701	723.485596	4681.517090	3582.282471	72.227745
713.604553	736.860107	4622.297363	3570.096924	72.919380
713.928467	729.132629	4588.564453	3516.375977	72.219009
714.252258	726.086182	4534.100586	3469.342529	72.039024
714.575989	726.754883	4461.655762	3413.838623	71.945251
714.899719	728.092468	4388.244629	3374.086670	72.291916
715.223267	732.550537	4335.860840	3357.517334	72.848755
715.546936	726.977844	4297.892090	3321.406006	72.654449
715.870422	728.018066	4255.168457	3305.802490	73.084053
716.193970	730.395752	4214.301758	3248.663330	72.282883
716.517395	729.058289	4195.057129	3223.326172	71.963898
716.840820	731.213074	4180.494141	3197.692139	71.507050
717.164124	733.590759	4153.745605	3185.060303	71.677147
717.487488	739.312073	4108.717773	3166.781982	72.044456
717.810730	737.008728	4063.318604	3131.414063	71.983833
718.133972	732.179016	4012.346924	3100.057861	72.187737
718.457092	725.937561	3966.056396	3071.526123	72.392052
718.780212	734.110901	3924.149658	3033.185547	72.070427
719.103210	728.166687	3868.273682	2990.758789	72.054619
719.426208	729.206848	3818.342529	2952.047119	71.956703
719.749207	724.748718	3769.748291	2928.196045	72.362808
720.072083	732.327637	3724.498047	2898.549072	72.396324
720.394958	735.299744	3674.864014	2867.713623	72.541832
720.717773	732.773438	3621.069092	2825.509521	72.455742
721.040527	732.104675	3601.824219	2799.726563	72.049614
721.363281	725.789001	3573.143555	2773.200439	71.905739
721.685913	728.909668	3547.063232	2752.692627	71.812370
722.008545	732.550537	3501.738525	2738.723877	72.446266
722.331055	737.305847	3460.352295	2708.556885	72.391388
722.653503	741.020996	3428.178955	2686.489258	72.398727
722.976013	745.479248	3410.272217	2663.455566	71.974686
723.298401	740.055115	3407.002686	2660.037354	71.991753
723.620789	737.305908	3397.120361	2656.471191	72.154106
723.943115	726.606262	3377.875977	2639.307129	72.142822
724.265381	735.745605	3352.241455	2627.715820	72.309311
724.587585	733.070618	3335.672119	2612.037598	72.195724
724.909790	732.550537	3338.421631	2622.068604	72.510033
725.231873	721.256531	3339.015625	2621.845947	72.603676
725.553894	726.457703	3351.944336	2637.523682	72.789017
725.875916	809.751038	3434.420166	2705.362061	72.222855
726.197937	809.230957	3453.442139	2716.507568	72.130264
726.519775	802.692383	3449.355469	2719.628174	72.428406
726.841675	722.742615	3384.414795	2663.529785	72.916084
727.163513	735.894226	3390.953125	2673.931885	72.994148
727.485291	737.677429	3417.479492	2682.699463	72.580811
727.806946	738.271790	3440.141846	2697.782959	72.524254
728.128662	731.213074	3482.048584	2700.606689	71.592560
728.450256	728.686768	3503.150391	2713.832520	71.550613
728.771790	728.538147	3497.577881	2718.810791	71.875916
729.093323	737.380188	3494.679688	2716.804688	71.788521
729.414795	738.048889	3498.915039	2732.259521	72.231339
729.736145	732.699158	3527.150146	2726.612549	71.352600
730.057495	731.436035	3521.948975	2717.844971	71.184364
730.378845	733.219238	3510.729248	2704.619141	70.977242
730.700134	742.878601	3500.178467	2707.962646	71.268417
731.021301	741.466858	3495.199951	2722.154541	71.927368
731.342468	737.974609	3492.970703	2717.399170	71.848541
731.663574	733.590820	3497.503174	2730.402100	72.245827
731.984680	725.045898	3511.917969	2740.730225	72.327835
732.305664	727.423645	3536.809326	2746.080078	71.854019
732.626648	721.627991	3537.924072	2747.714600	71.941536
732.947571	720.067688	3541.490479	2760.940674	72.334885
733.268433	724.823059	3535.323486	2765.398438	72.605408
733.589233	728.612488	3529.156250	2753.881592	72.316994
733.909973	732.847839	3513.404297	2734.042969	71.971031
734.230713	733.888000	3478.927734	2700.309326	71.635445
734.551331	732.030457	3442.817139	2665.833008	71.337318
734.871948	739.832214	3397.343750	2630.761963	71.154152
735.192505	734.779602	3349.418213	2616.941650	71.985550
735.513062	744.364685	3305.133545	2587.072021	71.959145
735.833435	737.380188	3256.019531	2556.533691	72.227631
736.153931	739.163513	3213.964111	2514.032471	71.717651
736.474304	733.516541	3173.394775	2480.522217	71.602165
736.794617	738.049011	3147.909180	2458.008545	71.371758
737.114807	742.655762	3110.014893	2453.401611	72.263893
737.434998	740.723877	3101.692627	2443.965332	72.141632
737.755188	740.129395	3082.002686	2441.290283	72.641029
738.075256	734.779602	3110.683350	2434.974609	71.559929
738.395325	734.110901	3106.299561	2453.104248	72.464447
738.715271	733.442139	3129.779053	2467.816162	72.376053
739.035278	728.092346	3143.376709	2484.534424	72.721962
739.355164	738.791992	3166.335938	2486.169189	71.981277
739.675049	731.658936	3172.354736	2484.311523	71.809547
739.994873	737.900330	3159.871826	2488.621094	72.284943
740.314636	730.321472	3139.810303	2480.447754	72.634750
740.634277	730.172852	3118.930908	2471.308594	72.888741
740.953979	725.343201	3099.315186	2446.714355	72.510170
741.273499	731.361633	3084.305908	2439.061279	72.577141
741.593140	737.751709	3057.333984	2414.095459	72.269211
741.912598	741.243896	3034.151611	2386.975098	71.774857
742.232117	730.692932	2988.901123	2346.628662	71.558319
742.551453	724.748718	2941.050049	2312.152100	71.623985
742.870850	729.429749	2890.301514	2289.192383	72.182098
743.190063	739.906433	2864.815430	2264.226563	71.735786
743.509338	743.621582	2840.667236	2242.084717	71.455917
743.828552	729.875671	2820.457031	2215.112549	71.044205
744.147705	723.559875	2785.683350	2208.202393	71.995811
744.466797	722.891113	2754.104736	2189.626709	72.209816
744.785828	731.510254	2721.708740	2171.942627	72.376320
745.104858	730.767273	2706.476563	2137.614990	71.207222
745.423706	730.247070	2707.368164	2124.240479	70.506226
745.742615	729.058289	2692.433350	2112.203369	70.447319
746.061401	737.825989	2678.018799	2110.717529	70.760574
746.380249	733.813660	2651.789795	2102.915771	71.382645
746.698975	732.030457	2640.718750	2097.937256	71.562592
747.017639	720.067627	2624.892334	2096.079834	72.238258
747.336304	728.166565	2617.239014	2093.553467	72.278168
747.654907	734.110840	2605.721924	2090.432861	72.468155
747.973389	740.723877	2617.982178	2089.021240	71.822685
748.291931	739.757874	2609.511475	2085.008789	71.948036
748.610352	733.962219	2624.892334	2084.042725	71.397697
748.928711	731.881836	2623.109131	2084.117188	71.500412
749.247070	729.429871	2641.684570	2087.460693	71.017258
749.565308	733.962219	2639.752686	2089.169678	71.109993
749.883545	726.457703	2623.703369	2081.516602	71.422424
750.201782	732.699158	2612.483398	2078.767334	71.607590
750.519836	734.631042	2600.892334	2066.953125	71.389900
750.837952	742.284180	2600.818359	2071.559814	71.522797
751.155884	741.169617	2583.654297	2063.832275	71.786903
751.473877	745.404846	2560.992188	2049.343506	71.819107
751.791809	741.987000	2533.277100	2011.820435	70.889328
752.109619	735.448303	2524.063232	2000.526489	70.729485
752.427490	720.067688	2521.834229	1997.405884	70.893654
752.745300	722.073914	2516.707275	2011.523315	71.850304
753.062988	720.587708	2507.271240	2006.916504	71.995338
753.380615	728.538147	2500.360596	1992.204590	71.320152
753.698303	731.881836	2503.927246	1990.495728	71.026054
754.015808	732.847717	2509.277100	1984.179810	70.440849
754.333374	729.949951	2497.388672	2001.863892	71.963676
754.650757	722.593994	2487.729248	2002.235352	72.495369
754.968262	720.662109	2482.899658	2002.681274	72.749512
755.285583	728.909668	2492.633301	1986.037476	71.276917
755.602905	731.287354	2493.673584	1970.359741	70.306519
755.920105	731.064453	2488.249268	1963.746704	70.150970
756.237305	722.965515	2474.206055	1972.291504	71.339485
756.554443	728.018066	2458.453857	1967.536133	71.630402
756.871582	736.042725	2435.494629	1963.300781	72.214935
757.188599	743.621582	2430.219238	1955.424683	71.848976
757.505615	735.671204	2443.445068	1961.740356	71.793404
757.822510	738.866211	2453.921631	1975.263672	72.090820
758.139465	736.562805	2465.884521	1982.322266	72.037460
758.456238	737.454529	2481.636475	1992.724609	71.968987
758.773010	731.064453	2501.401123	1996.068359	71.455559
759.089783	731.807434	2528.447266	1997.554321	70.450783
759.406433	732.773438	2532.831055	1996.959961	70.230339
759.723145	732.401917	2548.360352	1999.857788	69.795418
760.039673	733.813660	2546.056885	2013.380859	70.606812
760.356201	736.117004	2547.543213	2018.359253	70.786331
760.672668	730.692932	2542.342041	2023.411743	71.355911
760.989136	728.463867	2543.753662	2007.733765	70.471939
761.305481	731.510315	2542.193359	2008.699707	70.536331
761.621826	734.556702	2551.555420	2009.739868	70.180733
761.938049	734.631042	2556.459229	2034.482788	71.348763
762.254333	735.745544	2563.220947	2042.730469	71.518608
762.570496	736.860107	2596.880127	2072.005615	71.781242
762.886597	728.092346	2658.254150	2109.602783	71.574852
763.202637	727.275085	2780.482178	2198.691650	71.664299
763.518677	723.931396	2916.010498	2290.381592	71.459564
763.834656	730.172852	3075.315186	2393.364990	70.920731
764.150574	724.823059	3192.044922	2477.178467	71.025452
764.466370	736.265625	3277.418701	2534.317139	70.757309
764.782288	732.476257	3314.867188	2573.400391	71.287582
765.097961	733.887939	3336.712158	2586.106201	71.161865
765.413696	725.268860	3308.551514	2567.902100	71.329140
765.729309	726.754883	3230.384766	2520.645508	71.651588
766.044861	727.646545	3111.129150	2426.578369	71.279388
766.360474	731.658936	2958.139893	2320.697021	71.369942
766.675903	738.940491	2817.559326	2213.775146	70.952629
766.991394	742.432800	2689.089844	2127.212646	71.136299
767.306763	736.191345	2588.929932	2061.008789	71.505905
767.622131	730.915833	2499.172119	2001.195313	71.837975
767.937378	725.640442	2429.476318	1952.229858	71.989876
768.252625	731.658936	2396.114258	1916.341431	71.175385
768.567810	737.974670	2350.492188	1884.762817	71.117867
768.882996	743.547363	2305.167480	1859.202759	71.442177
769.197998	738.271790	2238.740967	1816.330078	71.848083
769.513062	733.219299	2208.128174	1791.735840	71.768265
769.828064	731.138855	2179.075928	1763.129272	71.273163
770.142944	730.098572	2163.546631	1752.949829	71.356010
770.457825	731.733215	2125.280518	1728.132813	71.500946
770.772705	725.566101	2096.599854	1701.235229	71.163033
771.087402	730.841553	2072.302734	1685.631470	71.175369
771.402100	721.776672	2059.745850	1672.405640	71.050133
771.716736	725.566101	2044.736328	1667.204468	71.381111
772.031372	724.971680	2023.931641	1655.241821	71.616539
772.345947	731.733154	1996.068359	1633.322632	71.309372
772.660461	729.281189	1982.173828	1616.307129	70.798241
772.974854	724.080017	1965.232788	1592.010132	69.929352
773.289246	724.377258	1955.722046	1585.545776	69.937241
773.603638	729.206970	1939.226685	1574.103027	69.824982
773.917908	733.962341	1924.663574	1569.645020	70.184082
774.232178	733.665039	1921.988647	1567.415894	70.161934
774.546265	726.309082	1908.168091	1565.929810	71.042374
774.860474	714.643555	1900.960938	1561.323120	71.370407
775.174561	713.900574	1895.016602	1553.818481	71.112228
775.488586	717.021240	1888.403687	1546.611206	70.821442
775.802551	727.869446	1868.787720	1537.249023	70.941071
776.116516	724.674500	1843.227661	1525.509155	71.595581
776.430359	722.148132	1825.766479	1523.057129	72.571190
776.744202	726.383362	1826.212280	1512.803345	71.503853
777.057922	725.268860	1817.518921	1504.555664	71.346924
777.371704	729.726990	1808.305298	1485.014160	70.026176
777.685303	719.101746	1787.574829	1483.750977	71.564667
777.998962	722.148132	1772.640015	1480.407349	72.181343
778.312500	722.445313	1767.141602	1475.206177	72.055473
778.626038	727.646545	1767.141479	1469.336304	71.350975
778.939453	725.120300	1776.132202	1463.689331	70.272179
779.252869	725.268860	1779.847290	1465.472656	70.189552
779.566223	720.587830	1778.138306	1462.277466	70.132782
779.879578	726.160461	1781.259155	1455.887695	69.161995
780.192749	729.504089	1759.191284	1452.543945	70.219368
780.505920	731.956116	1755.699219	1457.150757	70.837563
780.819031	732.179016	1737.717773	1459.751343	72.356468
781.132141	740.054993	1748.268677	1462.351929	71.641258
781.445190	744.959045	1727.315430	1450.760742	71.847824
781.758118	741.838379	1724.268921	1444.222046	71.494484
782.071045	737.454590	1710.968750	1426.092163	70.737297
782.383911	731.361633	1710.745728	1424.829102	70.806488
782.696838	738.123230	1690.535522	1413.683594	70.931503
783.009583	730.990173	1671.365356	1414.798218	72.716515
783.322266	730.098572	1661.706055	1397.485718	71.638237
783.634888	720.067627	1652.046509	1392.358765	72.135880
783.947510	719.844727	1642.090210	1381.139038	71.704803
784.260132	718.878723	1626.783691	1386.562988	73.541206
784.572571	726.606262	1631.762085	1379.355591	72.114578
784.885010	722.371033	1620.319336	1378.538452	73.074074
785.197449	727.943787	1616.307129	1371.182251	72.407135
785.509766	723.411316	1607.242188	1367.690063	72.896156
785.822083	731.287354	1614.598145	1364.495239	71.685738
786.134277	733.516418	1612.963501	1360.036987	71.240280
786.446533	736.265686	1610.882935	1362.488892	71.599686
786.758606	734.333801	1600.034790	1357.956421	72.036720
787.070740	737.231628	1600.629272	1355.355835	71.592064
787.382690	743.547363	1604.641602	1347.925659	70.187241
787.694641	746.965271	1617.867554	1348.817383	69.106735
788.006653	745.702148	1636.889038	1363.232056	69.292976
788.318481	741.541199	1652.641113	1387.231812	70.869354
788.630310	737.083008	1677.086792	1407.219238	71.290802
788.942017	733.590759	1703.835571	1411.454468	69.865227
789.253784	730.247131	1724.120483	1430.104492	70.417160
789.565430	734.259460	1722.782837	1433.596680	70.745644
789.877014	736.934326	1720.925293	1437.237671	71.169693
790.188538	740.203613	1709.408569	1417.547363	69.886536
790.500061	737.157288	1695.439453	1407.293579	69.931000
790.811462	737.157227	1664.529419	1390.649780	70.467125
791.122925	742.209778	1638.969360	1371.405273	70.163231
791.434204	742.358459	1618.461792	1345.622192	68.857597
791.745483	742.432800	1596.765259	1324.371582	68.116196
792.056702	730.172852	1577.297974	1315.232300	69.064110
792.367920	732.476257	1567.564453	1300.743408	68.048759
792.678955	739.386414	1552.406738	1296.285278	68.497536
792.990112	742.655701	1554.710083	1289.969604	67.398674
793.301086	740.723816	1539.626831	1289.598145	68.703499
793.612122	732.476257	1533.013672	1285.437134	69.073708
793.922974	731.658936	1500.394897	1271.393921	70.210709
794.233826	726.977844	1495.713867	1281.276123	72.105148
794.544556	727.275085	1483.750977	1281.722046	73.293411
794.855286	725.937561	1491.924438	1286.328735	73.159370
795.166016	738.866272	1495.713867	1280.087280	71.509903
795.476624	738.643372	1522.685547	1287.071655	69.948822
795.787292	744.141785	1534.796875	1290.638184	69.119446
796.097778	737.528809	1546.536743	1303.938477	70.012871
796.408264	737.825989	1549.360352	1310.477051	70.563995
796.718689	735.819824	1561.694702	1326.080688	71.470978
797.029053	735.299744	1572.022827	1334.476929	71.609978
797.339355	742.358459	1571.948608	1324.817505	70.210457
797.649658	743.175781	1563.329468	1313.003418	69.478157
797.959839	740.798157	1554.338501	1298.068481	68.499405
798.270020	728.538269	1544.902222	1304.532837	70.556099
798.580078	732.327637	1547.502930	1303.864136	70.112099
798.890137	730.618652	1535.985962	1292.124268	69.720436
799.200195	732.030334	1522.537109	1277.412354	68.991440
799.510071	725.268860	1502.475464	1272.805542	70.449310
799.820007	723.114075	1485.237183	1272.805542	72.126335
800.129883	734.630920	1478.029785	1256.830566	70.244881
800.439575	736.637146	1470.227905	1239.740845	68.580978
800.749329	741.541077	1464.358032	1227.183716	67.187500
801.058960	734.556641	1449.125977	1228.595581	69.138000
801.368591	731.807434	1433.745483	1228.818481	70.805542
801.678162	725.863281	1427.875366	1226.812256	71.359024
801.987671	722.668274	1427.875366	1229.338501	71.847015
802.297119	721.330811	1430.178711	1225.251953	71.090164
802.606506	730.172852	1424.457397	1224.360229	71.179375
802.915894	730.321472	1421.336792	1218.490356	70.645164
803.225159	738.049011	1409.745483	1208.162354	69.988953
803.534424	736.265686	1401.646484	1200.360474	69.748749
803.843628	729.801453	1385.374390	1190.181030	70.225533
804.152771	722.371094	1396.073853	1187.654663	69.063629
804.461792	721.776611	1404.172852	1189.215088	68.499565
804.770874	719.696106	1412.791992	1197.239868	68.900101
805.079773	720.067688	1406.253296	1202.218140	70.265312
805.388733	721.330811	1409.968384	1206.676270	70.479088
805.697571	735.225403	1426.612305	1210.911499	68.801720
806.006470	738.643311	1435.305664	1226.515015	70.029861
806.315125	733.219238	1439.838257	1232.459229	70.651932
806.623901	728.240967	1431.516235	1237.660522	72.435303
806.932495	730.395752	1427.578125	1232.682129	72.045189
807.241150	740.352295	1418.438965	1225.549072	71.553802
807.549622	740.798096	1412.197632	1216.558472	70.860992
807.858154	729.504150	1413.683594	1216.707153	71.209831
808.166565	716.724121	1404.841675	1214.700928	72.367989
808.474915	723.857117	1396.816895	1212.248901	72.573700
808.783264	735.745605	1386.191528	1201.103516	71.544441
809.091492	737.603088	1380.247437	1188.397705	70.146828
809.399719	727.572266	1379.875610	1176.137695	68.766388
809.707825	723.857117	1371.553833	1169.450562	68.796616
810.015930	723.559875	1363.975098	1176.212158	70.681061
810.323975	732.773438	1347.702759	1183.345093	73.272102
810.632080	737.825989	1335.888794	1181.338989	74.158264
810.939880	738.346191	1340.421143	1173.239868	72.232483
811.247864	733.813660	1348.594360	1173.685669	71.549416
811.555664	732.104736	1341.832886	1163.729248	70.789665
811.863464	735.448425	1334.105469	1160.236938	70.956909
812.171143	740.723816	1326.229370	1145.227783	69.086273
812.478882	738.717590	1326.675171	1144.856323	69.076195
812.786438	735.299744	1321.473999	1142.404419	69.451134
813.094055	727.126465	1313.003296	1133.413818	69.346886
813.401489	726.531982	1311.740112	1131.184692	69.146805
813.708984	732.922058	1297.548462	1123.085693	69.101204
814.016357	735.002441	1299.331665	1130.887329	70.151405
814.323730	735.151062	1291.306885	1131.704712	71.302612
814.630981	726.903503	1301.263428	1134.602539	70.983200
814.938232	725.343201	1297.622681	1123.382813	69.553360
815.245361	727.869446	1299.182983	1124.125854	69.358833
815.552490	730.767273	1292.718628	1128.063843	70.699463
815.859619	737.974609	1292.718750	1131.481812	70.934898
816.166565	737.083008	1299.554565	1127.469482	69.405548
816.473572	742.358459	1306.390503	1128.509766	68.462654
816.780457	735.745544	1308.916748	1137.648926	70.119255
817.087341	732.476257	1317.981689	1140.621094	69.708122
817.394043	730.470032	1326.303589	1139.878052	68.711807
817.700806	731.956055	1341.609985	1142.478638	67.336983
818.007507	734.333801	1339.083496	1149.165894	68.595665
818.314209	737.083008	1343.318970	1155.630249	69.040321
818.620667	740.575195	1336.854614	1156.670532	69.781937
818.927246	741.912659	1347.405640	1160.831421	69.186394
819.233704	738.643372	1365.386719	1171.976807	69.140495
819.540161	728.389587	1399.194702	1199.394653	70.214890
819.846497	726.086243	1436.940430	1218.639038	69.290268
820.152832	726.680664	1491.255737	1241.449829	67.327484
820.458984	736.934387	1547.577148	1278.675415	66.828575
820.765259	736.934387	1614.300903	1341.907104	68.953247
821.071350	738.643372	1699.154663	1418.438965	70.774345
821.377502	736.637207	1844.119141	1517.633179	70.519974
821.683472	742.358398	2126.469727	1707.402344	69.723000
821.989441	736.042725	2593.239258	2033.145386	69.841972
822.295349	736.339905	3266.347656	2475.915283	68.757713
822.601196	732.996338	4010.192139	2977.087158	68.475945
822.907043	736.637207	4682.854492	3435.981201	68.403328
823.212769	730.692932	5119.085938	3747.458008	68.744186
823.518494	727.869446	5264.273438	3855.642578	68.948296
823.824097	725.343079	5132.386230	3772.943604	69.152962
824.129700	723.857117	4827.596191	3583.471680	69.683144
824.435242	721.999512	4482.683105	3365.393311	70.290245
824.740723	718.433044	4172.246582	3157.791260	70.627968
825.046082	722.073914	3877.041748	2971.811523	71.307785
825.351501	721.702393	3571.731689	2751.058350	71.204742
825.656799	733.813721	3230.459229	2498.057373	70.664566
825.962036	733.442200	2905.607666	2258.654053	70.216194
826.267212	739.832214	2648.817627	2079.064453	70.154137
826.572449	737.825989	2503.481689	1983.882446	70.571877
826.877502	737.157288	2481.785400	1960.774414	70.136276
827.182495	733.962219	2547.989258	2008.476563	70.258842
827.487488	728.909668	2674.675049	2096.748291	70.298233
827.792419	731.584534	2775.206299	2161.614746	69.975288
828.097290	733.144958	2817.336182	2179.967529	69.418900
828.402100	734.853821	2767.553467	2144.228027	69.335098
828.706848	736.265625	2665.238525	2079.138916	69.615974
829.011597	737.751709	2515.444336	1987.672241	70.311401
829.316223	734.036621	2360.597412	1887.660767	70.924133
829.620789	734.259460	2219.719482	1788.540894	70.973404
829.925354	731.956116	2090.209717	1696.776978	71.033920
830.229797	732.624817	1960.551758	1605.458984	71.081924
830.534302	737.380188	1819.747925	1519.119141	72.224899
830.838562	727.869446	1693.507446	1430.401733	72.753174
831.142944	734.853821	1578.932739	1342.724487	72.015854
831.447144	735.225403	1507.602173	1271.170898	69.389130
831.751404	745.850769	1451.578003	1221.759644	67.435242
832.055542	738.940613	1419.553589	1199.468872	67.663750
832.359619	729.578430	1396.816895	1186.465942	68.474396
832.663635	729.801331	1396.073853	1182.899292	68.004898
832.967651	726.606262	1423.640137	1195.382202	67.252960
833.271545	721.628113	1487.094727	1227.926880	66.142502
833.575439	713.826233	1584.728516	1301.783691	67.511299
833.879211	714.569275	1707.476563	1391.095581	68.135902
834.183044	720.216309	1821.382690	1490.438354	69.946022
834.486694	721.925293	1915.152710	1555.304565	69.842453
834.790344	728.018066	1955.870483	1586.437500	69.912262
835.093933	730.247131	1956.762085	1582.350708	69.473564
835.397522	733.665039	1912.626343	1554.933105	69.660309
835.700928	730.915955	1853.109741	1522.908569	70.575386
836.004395	739.757874	1778.361328	1475.131958	70.804123
836.307739	737.900391	1715.872681	1432.333618	71.007454
836.611023	741.615417	1647.142700	1385.077026	71.059326
836.914307	736.711426	1580.121704	1330.836060	70.443130
837.217529	740.352295	1510.202759	1276.297852	69.616837
837.520691	737.305908	1436.123047	1214.923706	68.346603
837.823730	731.138855	1362.637573	1174.874634	70.267090
838.126831	730.247131	1296.953979	1142.478516	72.741554
838.429749	734.185242	1258.688110	1119.519165	73.466507
838.732727	737.454529	1225.474731	1095.519409	73.370911
839.035522	736.117004	1204.892944	1071.445313	71.532745
839.338379	731.138733	1185.500000	1057.624878	71.856071
839.641113	733.665039	1188.843506	1062.454590	72.233109
839.943848	733.739319	1202.886597	1066.615601	70.953468
840.246460	734.631042	1228.966919	1081.178833	70.103714
840.549072	732.922058	1262.700439	1088.609253	67.138863
840.851563	731.435974	1282.762207	1105.327271	67.816704
841.154053	733.070618	1281.870483	1106.144653	67.979980
841.456482	739.089172	1269.982056	1101.760742	68.313515
841.758850	739.312195	1249.474487	1094.850586	69.691231
842.061157	740.946777	1232.533569	1087.717529	70.541107
842.363403	731.064453	1210.985718	1076.497803	71.977089
842.665588	725.194519	1190.775391	1055.990234	71.050110
842.967712	724.525818	1173.091309	1037.637451	69.802879
843.269775	724.748718	1148.274292	1018.690247	69.403488
843.571777	729.652649	1123.680054	1003.383972	69.470123
843.873840	731.956055	1102.355103	991.867004	70.170525
844.175659	735.374023	1088.460571	977.229431	68.497482
844.477600	742.878601	1078.726929	965.935364	66.415924
844.779297	738.048889	1066.838501	955.607239	66.169472
845.081116	733.887939	1051.457886	945.725037	66.705650
845.382751	727.423645	1040.015259	945.725037	69.835976
845.684387	726.457703	1032.213501	943.793152	71.081383
845.985962	729.801270	1024.931763	945.056213	72.935516
846.287537	736.860046	1009.996887	935.471191	72.714890
846.588989	739.386414	1003.532471	923.211243	69.592117
846.890381	731.584656	999.668762	920.462097	70.454544
847.191711	731.361633	1001.674988	913.551941	67.399666
847.493042	730.618652	987.854675	914.592102	71.519318
847.794250	735.671204	984.288147	905.007141	68.111183
848.095459	728.909668	979.681335	903.223877	69.511124
848.396606	726.086243	975.446106	898.096985	68.980927
848.697693	728.240967	971.210876	896.239441	69.143738
848.998657	730.395752	975.148926	900.994812	69.702492
849.299622	737.603088	980.870300	901.812073	67.501488
849.600464	739.832214	982.727783	915.186584	72.193321
849.901367	735.076721	969.650452	908.425110	73.899323
850.202087	731.658875	970.542175	899.434509	70.233307
850.502808	723.039795	967.198486	887.546082	67.376793
850.803467	732.550537	969.056152	890.295227	66.698074
851.104065	736.191406	971.210938	905.007141	71.830513
851.404663	737.825989	972.994141	904.635559	70.932045
851.705139	736.488586	977.526611	902.034973	68.680611
852.005615	731.287415	967.718567	885.614075	65.273407
852.306030	729.429871	958.876648	881.527405	66.288811
852.606384	728.241028	957.242004	883.087830	67.618401
852.906616	731.658875	967.792969	889.552185	66.865952
853.206909	733.813660	970.765137	889.700745	65.788612
853.506958	729.652649	959.025208	891.335449	70.489166
853.807129	726.086243	950.629089	886.580078	71.475815
854.107178	732.699158	943.198730	890.666687	75.044106
854.407166	735.671204	949.365906	893.638855	73.922119
854.707092	734.036621	948.325684	896.833801	75.970833
855.007019	733.887939	950.034668	891.484070	72.911644
855.306763	730.767273	952.783752	883.607971	68.842049
855.606567	730.990051	954.046936	875.954773	64.990021
855.906250	729.652649	954.641357	885.391174	69.220596
856.205933	735.151123	952.635193	887.323059	69.969231
856.505493	739.237793	950.926208	894.679016	73.429253
856.805054	733.962219	951.743469	891.929871	72.535011
857.104492	730.395813	948.622864	887.397461	71.944176
857.403931	729.206970	942.827332	891.484070	75.965187
857.703308	734.259521	944.313416	882.567810	70.604874
858.002563	730.024231	949.217285	894.976257	75.254219
858.301819	731.584656	954.269836	889.403564	70.870865
858.601013	731.213135	949.514465	892.747131	73.995880
858.900208	738.866394	938.963379	879.744324	70.404823
859.199219	741.615540	931.161621	885.762695	76.048607
859.498291	744.290344	939.260681	883.533691	71.417709
859.797302	746.073547	944.833435	887.100159	70.953255
860.096191	747.856934	947.879883	888.883484	70.505188
860.395020	748.748535	934.579651	891.558350	76.849251
860.693787	750.606140	932.350586	886.728699	74.897781
860.992554	742.135559	932.647766	882.716309	73.790939
861.291260	741.615417	934.728210	876.623535	69.911537
861.589844	731.435974	932.201904	876.326355	72.168808
861.888428	733.665039	929.452698	871.496582	70.398483
862.186890	731.064453	932.573425	873.651367	70.759583
862.485413	731.807434	939.260559	874.394470	68.732170
862.783813	728.909668	942.752869	875.583252	68.589317
863.082153	728.983948	941.638367	881.304504	71.628212
863.380371	728.240906	936.808655	887.991760	76.594223
863.678589	732.699158	942.307129	876.549133	68.628105
863.976746	730.247131	944.016052	876.326233	68.335052
864.274902	730.767273	948.325623	882.121887	69.569664
864.572937	727.720886	946.542419	899.508789	78.505943
864.870911	726.754883	950.257507	890.072266	73.071800
865.168884	727.572266	948.771484	883.905212	70.675179
865.466736	723.485535	939.632141	872.239563	68.820892
865.764587	726.309082	943.273010	874.765930	68.424667
866.062317	734.333801	954.789978	871.496582	62.217709
866.360107	747.411133	970.765076	878.629700	58.749161
866.657715	746.519470	961.700134	887.471680	65.504128
866.955322	744.141785	950.628967	892.078430	71.644470
867.252808	738.123230	936.957275	895.496399	79.148003
867.550293	730.544434	948.177002	894.456116	75.315788
867.847717	719.398926	949.960266	888.586182	73.380585
868.145081	718.655945	960.659851	882.121887	67.546822
868.442383	727.423645	952.115051	878.332520	67.162727
868.739624	734.036621	953.526855	875.286072	64.353409
869.036804	731.733215	944.981995	881.007324	69.999985
869.333984	725.566101	942.678650	887.545959	74.606400
869.631042	728.240967	938.591980	888.289001	76.086174
869.928101	726.680664	946.542419	886.802917	72.828606
870.224976	731.584656	956.499023	874.840149	63.693348
870.521851	734.779602	967.272949	881.155945	62.959370
870.818726	736.785828	968.461731	882.716370	62.989090
871.115479	738.197571	966.604187	888.437683	65.777481
871.412231	737.305908	958.059326	888.289063	68.394478
871.708862	735.671204	958.282166	887.100159	68.024033
872.005493	736.117004	957.613464	887.025879	68.131508
872.302063	729.652649	967.198547	881.750427	64.028793
872.598572	724.154297	966.529785	881.527527	64.929512
872.895020	725.640381	969.799133	882.121887	64.090065
873.191406	730.395813	968.833191	890.072266	66.967880
873.487671	731.956116	961.551514	885.465515	66.860832
873.783997	722.593994	963.557678	898.988586	73.203812
874.080200	720.662109	957.093445	900.771912	76.178482
874.376343	732.253357	957.762146	905.230164	76.705132
874.672424	734.928223	958.728027	901.292053	74.336006
874.968445	736.042786	964.969482	898.765686	71.080788
875.264465	730.915833	975.074646	896.313721	67.741928
875.560364	736.265625	975.817627	885.391174	62.251850
875.856201	738.940491	971.062317	892.747131	66.261169
876.152039	742.358459	969.799133	907.384766	72.557961
876.447754	739.237732	965.489563	914.815125	77.602638
876.743469	736.562805	971.359436	910.505554	74.082298
877.039063	734.259460	976.709290	899.583008	68.188766
877.334595	727.720886	972.771240	896.908142	69.041832
877.630127	726.754883	971.656677	897.428223	69.690521
877.925537	727.126465	961.923035	902.926697	74.873421
878.221008	734.779602	972.622559	909.762512	73.570778
878.516296	730.321472	974.331543	915.632385	75.943962
878.811646	736.414307	980.052917	917.118469	74.168938
879.106812	736.637207	985.328430	926.777832	76.456505
879.401978	741.987000	996.919617	929.527039	73.564552
879.697083	733.219238	1027.160767	942.009949	71.031372
879.992126	735.151184	1052.646606	953.526855	68.780731
880.287109	729.206848	1089.946655	979.086914	69.268784
880.582031	732.922058	1142.330078	1022.925598	70.834846
880.876892	731.510254	1262.328979	1102.280884	69.848824
881.171753	736.191345	1465.844116	1245.090698	69.745415
881.466492	730.395691	1764.986694	1449.571777	69.513077
881.761230	730.470032	2132.339600	1701.383789	69.258492
882.055786	727.795166	2515.146973	1941.010132	67.877792
882.350403	731.956055	2795.565674	2124.909180	67.500809
882.644958	732.179016	2926.709717	2216.301514	67.628242
882.939453	731.361633	2886.363281	2236.957764	69.865196
883.233826	734.036560	2798.686279	2194.679443	70.745308
883.528137	729.429871	2695.851318	2128.995850	71.173248
883.822449	733.219238	2618.947998	2061.751709	70.451942
884.116577	728.463867	2519.605225	1994.507813	70.683640
884.410828	735.151123	2401.389648	1918.867798	71.041252
884.704956	736.117126	2243.050293	1808.899780	71.189804
884.999023	738.346191	2051.720947	1671.068237	71.017204
885.292969	736.265625	1830.224609	1517.855957	71.446037
885.586914	731.881775	1634.734009	1367.690308	70.422211
885.880798	732.104675	1479.144165	1264.335083	71.245285
886.174622	730.544434	1377.275269	1185.797241	70.392937
886.468384	732.253357	1293.238892	1139.878052	72.662247
886.762085	727.869446	1231.567505	1091.952759	72.282059
887.055664	722.891174	1186.391479	1056.807495	72.042305
887.349304	727.869446	1167.964478	1024.634399	67.432014
887.642822	728.463867	1153.846924	1009.922546	66.165939
887.936340	732.624817	1129.475586	998.925781	67.103554
888.229736	733.962219	1094.107544	988.820557	70.765419
888.523071	743.398743	1075.011719	977.823792	70.692360
888.816284	751.571960	1051.309204	972.251038	73.624176
889.109619	752.017822	1036.820190	960.436951	73.180267
889.402710	749.342957	1016.684082	947.879822	74.263496
889.695862	741.169617	1015.941101	934.282410	70.281235
889.988892	730.098572	1006.801819	922.171082	69.414619
890.281921	715.535217	989.043457	900.994812	67.807678
>>>>>End Processed Spectral Data<<<<<
