Jaz Data File
++++++++++++++++++++++++++++++++++++
Date: Fri Jun 04 16:22:26 2021
User: jaz
Dark Spectrum Present: Yes
Reference Spectrum Present: Yes
Processed Spectrum Present: Yes
Spectrometers: JAZA3586
Integration Time (usec): 63200 (JAZA3586)
Spectra Averaged: 10 (JAZA3586)
Boxcar Smoothing: 1 (JAZA3586)
Correct for Electrical Dark: No (JAZA3586)
Strobe/Lamp Enabled: Yes (JAZA3586)
Correct for Detector Non-linearity: No (JAZA3586)
Correct for Stray Light: No (JAZA3586)
Number of Pixels in Processed Spectrum: 2048
>>>>>Begin Processed Spectral Data<<<<<
W	D	R	S	P
191.335022	0.000000	0.000000	0.000000	0.000000
191.713211	294.907501	299.365692	297.805298	64.999382
192.091385	595.536316	602.223572	592.712830	-42.221897
192.469528	903.743958	907.384827	896.833801	-189.794144
192.847641	913.849121	916.003967	905.973083	-365.503479
193.225739	927.520813	925.886230	917.118469	636.391479
193.603790	931.830383	930.715881	917.415710	1293.373535
193.981842	939.557861	937.997559	922.022461	1123.846069
194.359863	939.037659	936.957336	930.344421	417.879364
194.737854	938.814758	947.062500	940.746826	23.425417
195.115829	942.381348	947.656921	948.251404	111.268585
195.493774	944.016113	948.325500	949.663086	131.038879
195.871704	935.768555	944.536194	947.359680	132.203491
196.249603	942.752930	949.217224	943.718933	14.943679
196.627457	936.808777	949.143005	945.056335	66.867241
197.005310	951.074890	950.554688	947.731201	642.766602
197.383133	945.056335	939.780823	946.542297	-28.167156
197.760910	951.966492	949.217285	941.861267	367.568756
198.138687	951.223450	946.988220	938.294739	305.265900
198.516449	948.325623	953.675476	935.768372	-234.721405
198.894180	941.266846	942.084167	927.075012	-1736.382690
199.271866	937.031555	934.208069	929.378418	271.052734
199.649536	939.483643	929.898621	923.359924	168.217850
200.027191	942.009949	933.762390	924.623047	210.812714
200.404816	938.369080	947.211182	923.285645	-170.586533
200.782410	937.477356	960.734192	938.517578	4.472759
201.159988	935.322571	981.687561	951.520691	34.936100
201.537537	938.889160	989.563660	952.932434	27.712704
201.915070	927.446594	994.393372	945.204895	26.525997
202.292557	928.041016	987.185974	942.381348	24.246077
202.670029	927.446533	981.538879	942.975769	28.708750
203.047485	929.155579	980.721619	942.827209	26.512857
203.424911	916.152588	976.040527	946.765320	51.116688
203.802292	912.660339	973.662842	952.709473	65.651627
204.179688	913.997803	958.876648	955.978821	93.542999
204.557037	928.115295	957.762146	955.458679	92.230316
204.934357	929.824280	966.455505	952.858093	62.880268
205.311661	924.697327	972.251160	962.814697	80.156250
205.688934	922.022461	974.703125	959.471008	71.085945
206.066177	912.065857	969.278992	956.127441	77.013054
206.443390	918.381592	970.542175	945.576477	52.136848
206.820587	919.421875	966.826965	948.177063	60.658440
207.197769	927.892395	966.158386	952.486633	64.271790
207.574921	926.331970	966.158264	954.715637	71.268661
207.952042	925.217468	973.811462	949.514465	50.000000
208.329147	922.839783	976.709229	948.548523	47.724159
208.706223	937.105896	1005.835938	961.179993	35.027035
209.083267	942.827148	999.445862	963.780579	37.007957
209.460297	936.585754	997.142578	969.724792	54.723869
209.837280	921.873840	965.935364	954.046936	73.018570
210.214264	914.815125	960.288391	957.316223	93.463921
210.591217	918.827454	956.647644	946.542297	73.280548
210.968124	922.245422	967.272766	952.040710	66.171539
211.345016	928.783997	972.994141	953.898254	56.806549
211.721893	930.121521	971.210876	952.040771	53.345325
212.098724	931.013123	966.529785	943.421692	34.937317
212.475555	926.554932	967.347168	949.142883	55.373165
212.852356	926.703552	967.644348	949.514404	55.716679
213.229126	921.130859	962.666016	958.579407	90.161087
213.605865	909.985352	958.430847	947.656921	77.760727
213.982590	909.316650	962.145996	949.588806	76.230652
214.359283	912.065918	962.591797	943.273010	61.764572
214.735931	909.168152	960.065491	933.465088	47.737144
215.112579	910.282715	958.876648	934.059570	48.929680
215.489197	913.180420	964.820801	935.768372	43.740871
215.865799	922.616882	974.777405	944.684814	42.307728
216.242355	924.697449	976.635010	948.399902	45.636440
216.618896	918.976074	966.009766	949.737488	65.402931
216.995407	921.130859	958.653748	947.954163	71.485176
217.371902	916.598389	958.653748	949.291565	77.738434
217.748367	918.530273	962.368835	947.211121	65.423790
218.124802	920.387878	964.375000	952.412292	72.804070
218.501236	926.777832	959.099426	949.960266	71.724289
218.877609	919.942078	957.613464	955.087158	93.293831
219.253983	909.465332	955.384338	958.802246	107.443336
219.630295	911.768616	953.303894	961.179932	118.962288
220.006592	919.941895	948.622864	955.607239	124.351952
220.382889	929.229797	943.421631	950.331726	148.690643
220.759140	918.158691	952.040833	951.594910	98.683899
221.135391	910.728455	954.641418	950.703308	91.032013
221.511581	907.310547	964.820984	948.697083	71.963524
221.887772	911.917236	961.700195	947.062500	70.596977
222.263931	915.855286	968.238770	951.297668	67.659462
222.640060	917.118469	966.381165	959.248108	85.520370
223.016159	923.954346	965.563904	963.854919	95.892807
223.392212	923.880066	957.762024	964.375000	119.517693
223.768265	917.489990	959.768250	955.384460	89.631104
224.144302	911.099915	961.477234	946.245117	69.763939
224.520294	916.003906	972.696960	945.427795	51.900341
224.896286	922.765442	975.743347	943.644531	39.410938
225.272217	923.879944	975.817566	940.895325	32.761185
225.648148	925.143066	978.938293	938.369141	24.585962
226.024048	924.920227	982.802063	947.359680	38.767693
226.399902	923.136963	989.860840	958.876648	53.563560
226.775772	918.976074	982.504883	962.963318	69.239838
227.151581	920.462158	983.545105	958.356506	60.070667
227.527374	924.028625	981.241699	948.325623	42.467560
227.903137	918.753174	984.733948	943.050110	36.824268
228.278870	925.886230	977.526550	940.523865	28.345360
228.654572	925.886230	973.737122	943.644531	37.111744
229.030273	938.294739	966.306824	941.489746	11.405818
229.405930	929.749939	962.666016	943.793152	42.663689
229.781555	929.155579	957.910645	944.833435	54.522068
230.157181	924.697449	962.963318	948.994324	63.494900
230.532761	922.022461	962.740417	946.393738	59.853882
230.908325	915.706726	964.820801	950.257507	70.348022
231.283859	914.889343	968.387390	947.433899	60.833164
231.659332	920.239197	961.328613	949.885986	72.151886
232.034821	925.514648	959.471008	944.684814	56.455303
232.410263	920.090576	949.663086	944.238953	81.658188
232.785690	915.706726	956.573242	944.981934	71.636169
233.161087	908.425110	960.288391	944.907715	70.343803
233.536469	915.038025	960.734192	951.446350	79.674789
233.911804	914.666504	964.300781	955.756042	82.784599
234.287140	921.130859	960.882813	959.471008	96.448463
234.662430	928.338196	968.610352	958.802246	75.645439
235.037704	932.499207	972.399719	958.653625	65.549080
235.412933	928.486816	976.189148	964.523621	75.545166
235.788162	919.124573	974.554504	963.854980	80.697212
236.163345	916.747009	969.130371	964.077820	90.354668
236.538513	921.725281	970.542175	959.322449	77.016716
236.913635	917.415710	971.433777	960.214111	79.229790
237.288742	924.325928	970.764954	963.483398	84.320183
237.663834	930.047180	970.393494	959.173767	72.191444
238.038879	930.790222	971.730957	955.755859	60.979942
238.413910	920.536438	971.210754	953.378174	64.809433
238.788910	907.236267	969.799072	948.548523	66.033257
239.163879	911.397156	970.467773	950.108887	65.534668
239.538834	919.719055	966.083984	947.359680	59.615372
239.913757	926.629333	970.765076	953.824036	61.616055
240.288651	926.554993	976.709290	950.777588	48.296150
240.663528	922.394043	991.198303	952.486572	43.736435
241.038361	920.313538	985.476868	956.424622	55.416264
241.413177	922.914124	977.006409	961.551514	71.428650
241.787979	916.375488	972.548279	953.675476	66.402237
242.162735	918.976074	977.898132	945.279297	44.640705
242.537476	913.626282	983.396484	941.489746	39.936050
242.912170	923.360046	989.117859	949.217285	39.321926
243.286865	912.288879	996.771057	955.978821	51.714981
243.661514	915.855286	1001.154968	959.248230	50.871166
244.036148	912.363098	998.777161	958.133606	52.966503
244.410751	926.703552	992.164307	951.223450	37.457401
244.785339	928.709717	984.659668	948.028503	34.528694
245.159882	931.830383	984.362488	944.684814	24.469667
245.534378	928.635437	991.495422	948.474182	31.560213
245.908890	919.421875	990.306641	951.149109	44.758888
246.283356	913.774902	988.449036	946.393738	43.681572
246.657791	909.688171	989.786621	947.879883	47.680962
247.032196	915.929626	1002.640930	941.638367	29.648661
247.406586	918.827454	1004.275574	946.542297	32.434704
247.780960	924.920227	998.628601	951.297668	35.786221
248.155289	923.657043	996.845276	953.303894	40.507675
248.529602	926.109070	1001.674988	956.276062	39.921425
248.903870	921.502380	1001.377747	948.325623	33.581371
249.278122	929.601379	997.588379	953.452576	35.081997
249.652344	927.520935	1003.383972	950.406067	30.166380
250.026550	925.440430	1000.337463	949.663086	32.341274
250.400711	919.570496	1003.978333	948.102722	33.802818
250.774857	922.393982	998.257141	945.353516	30.264404
251.148987	920.907898	1003.681213	945.650696	29.892241
251.523071	916.895508	999.297302	949.068665	39.044243
251.897125	921.353760	997.662598	955.310059	44.498512
252.271164	919.273254	1001.229187	960.065430	49.773304
252.645187	919.273254	1001.972168	961.923035	51.572357
253.019165	916.524109	1004.795715	963.409180	53.114555
253.393112	929.601379	1009.848328	964.672302	43.703747
253.767044	925.143250	1011.111511	962.517395	43.474354
254.140930	918.381592	1011.260010	963.483398	48.560051
254.514801	912.140137	1000.783386	961.254395	55.406654
254.888657	915.409485	998.034180	957.019104	50.359787
255.262466	913.180420	994.839172	959.768372	57.052002
255.636276	914.963684	1000.263184	966.009705	59.843281
256.010010	921.650940	1007.247620	979.755676	67.881996
256.383759	929.304138	1010.739929	975.446045	56.660477
256.757446	927.149353	1008.808044	972.548279	55.595951
257.131134	920.685059	1006.207458	960.214050	46.220631
257.504791	912.363098	1009.551086	960.288391	49.311951
257.878418	907.979309	1010.888489	959.842590	50.397137
258.252014	908.276550	1013.712097	966.158264	54.897724
258.625580	914.517883	1020.622253	965.935364	48.459343
258.999115	915.112305	1032.139160	968.833191	45.904751
259.372650	917.118469	1051.606445	966.232605	36.519352
259.746124	912.214539	1058.219360	956.498962	30.330795
260.119598	911.545715	1068.696167	949.737366	24.302603
260.493042	912.957520	1069.810547	949.217285	23.117033
260.866425	915.929688	1073.674316	956.276062	25.577019
261.239838	918.010071	1076.274902	959.991150	26.525843
261.613159	918.455872	1070.925171	951.817810	21.881086
261.986511	923.136963	1064.089355	954.195496	22.034767
262.359802	927.000732	1051.755005	946.616638	15.723635
262.733063	926.257629	1049.600220	948.697083	18.192785
263.106293	920.684875	1044.547729	946.839539	21.115824
263.479523	920.759277	1039.643677	949.365906	24.062559
263.852692	922.393860	1038.454956	953.601135	26.888662
264.225861	923.582764	1040.981079	954.269836	26.139278
264.598969	923.137024	1043.284546	954.567078	26.159552
264.972076	915.855286	1044.324829	952.858093	28.802786
265.345154	913.403381	1043.953247	947.210999	25.896324
265.718201	910.728516	1044.027588	950.480408	29.821583
266.091217	914.592224	1046.033569	959.693909	34.313164
266.464203	918.604553	1044.993408	968.907471	39.800121
266.837158	923.731445	1050.046021	972.399719	38.529419
267.210114	922.691223	1049.228638	966.678284	34.762100
267.583038	920.982239	1058.368042	964.746399	31.854937
267.955902	920.685059	1067.581421	965.786682	30.703022
268.328766	925.366028	1071.073730	960.065430	23.814390
268.701569	922.914063	1073.971558	964.300720	27.397951
269.074371	915.632385	1073.377075	966.455505	32.218594
269.447144	911.917297	1083.779541	971.805359	34.846550
269.819885	918.010071	1097.228271	968.684570	28.275309
270.192596	922.393982	1098.119995	969.576172	26.849861
270.565277	918.827454	1105.252930	979.235596	32.403374
270.937927	914.443604	1103.098267	969.056152	28.948423
271.310577	917.861511	1107.407837	964.449402	24.578630
271.683136	927.223633	1109.413940	956.053162	15.823854
272.055725	924.325867	1120.707886	962.888977	19.636784
272.428284	927.520813	1138.986450	956.721863	13.808887
272.800812	915.483826	1149.388794	956.127441	17.376123
273.173279	923.137024	1144.336304	959.322449	16.358744
273.545776	913.477600	1138.837891	964.597900	22.683809
273.918152	922.616882	1124.794556	963.780579	20.360159
274.290558	918.753113	1122.565552	962.145996	21.290596
274.662964	920.907959	1127.692383	960.734314	19.259842
275.035278	916.375488	1125.834717	962.591797	22.064585
275.407593	914.443604	1134.602417	961.105774	21.194777
275.779907	916.747009	1131.036011	959.545349	19.972252
276.152161	913.329102	1150.503296	956.647461	18.264364
276.524384	914.963684	1155.927368	955.904480	16.990442
276.896606	906.418945	1154.515747	959.842468	21.533339
277.268799	911.991638	1154.812866	959.025208	19.369629
277.640930	904.412781	1153.921265	957.390564	21.232859
278.013031	917.118469	1164.546631	955.904480	15.675666
278.385162	920.685059	1157.785156	959.471008	16.358471
278.757233	932.201904	1160.162720	962.740295	13.396334
279.129272	932.944885	1162.986206	955.012878	9.593056
279.501282	928.561035	1173.611450	949.291565	8.459700
279.873230	917.415710	1175.171753	954.418457	14.355724
280.245178	914.740784	1183.196533	961.179993	17.298645
280.617126	917.935852	1190.849731	961.700134	16.035931
280.988983	922.765442	1201.252075	956.127441	11.979749
281.360870	919.050293	1207.270630	955.904602	12.786853
281.732697	915.706726	1211.357300	956.201721	13.696911
282.104492	921.799561	1225.920654	952.486633	10.090412
282.476288	918.307312	1232.310669	953.452454	11.192600
282.848053	919.347595	1243.678833	952.560852	10.240536
283.219757	918.455994	1244.644897	961.774414	13.280164
283.591461	920.982239	1249.028809	966.678406	13.929780
283.963135	921.353699	1251.332275	970.022034	14.748938
284.334747	916.969788	1251.109375	970.616455	16.055166
284.706360	917.341370	1263.220581	972.771179	16.025770
285.077942	918.976013	1273.920166	973.439941	15.344365
285.449524	924.920227	1276.297852	968.015869	12.264766
285.821014	926.257751	1281.721924	961.848816	10.012560
286.192535	922.839844	1295.467896	965.341003	11.405787
286.563995	925.514648	1322.514038	974.480225	12.333918
286.935425	930.195618	1333.362305	977.972473	11.850398
287.306824	934.133728	1326.452148	971.953918	9.640177
287.678223	929.229797	1323.108521	961.997375	8.319205
288.049561	920.462097	1325.114746	959.025208	9.529929
288.420898	919.867676	1326.898071	957.019043	9.127419
288.792145	918.455994	1329.052734	959.768311	10.061531
289.163452	920.239197	1319.170410	958.505066	9.592097
289.534668	917.564270	1326.154907	961.031433	10.638316
289.905914	913.031921	1327.120850	958.802307	11.053274
290.277039	916.969910	1343.021606	962.145996	10.603428
290.648193	913.329102	1352.309448	970.393555	12.999318
291.019318	923.657166	1375.269043	977.377930	11.895339
291.390381	922.245422	1384.185547	975.669006	11.565045
291.761475	931.533203	1389.981079	968.461670	8.055107
292.132507	927.446533	1380.544556	967.570068	8.855376
292.503510	930.270020	1378.018188	968.981750	8.645871
292.874481	929.824219	1379.355835	979.384216	11.024808
293.245422	926.852051	1376.012085	979.458496	11.712183
293.616364	924.623047	1384.928345	975.297546	11.008889
293.987213	916.895569	1402.166626	974.926025	11.958360
294.358093	921.799622	1429.287109	969.056152	9.311861
294.728943	916.003906	1442.290039	967.792969	9.840476
295.099731	922.914063	1456.704712	960.362793	7.015621
295.470490	916.746887	1479.441406	963.260559	8.266238
295.841248	919.050293	1507.379272	969.650574	8.600677
296.211975	916.301208	1521.571289	968.461670	8.617717
296.582642	916.821228	1531.824829	970.764954	8.771286
296.953308	918.158691	1545.645142	975.817566	9.188864
297.323883	917.489929	1557.533569	976.411926	9.205935
297.694519	917.787170	1564.889648	971.805237	8.347684
298.065063	917.489990	1567.787476	960.362732	6.592789
298.435608	920.090576	1563.700806	968.981750	7.596395
298.806122	924.771667	1552.406738	974.926025	7.991006
299.176575	931.236023	1521.571289	979.384216	8.156076
299.547028	928.263916	1508.568237	970.690735	7.311133
299.917450	925.737610	1490.066772	972.771240	8.334432
300.287872	920.164856	1496.308228	969.947754	8.640714
300.658234	922.839783	1491.255737	974.257324	9.045760
301.028564	920.016357	1489.620972	966.678406	8.192007
301.398865	924.400208	1488.877930	966.083984	7.384486
301.769135	924.846008	1482.859375	959.842529	6.271628
302.139374	924.771667	1492.072876	967.941589	7.609700
302.509583	922.022461	1484.345581	969.650574	8.469883
302.879791	921.056458	1492.964478	976.040527	9.614145
303.249939	924.251526	1488.506348	974.480225	8.901775
303.620087	920.833679	1493.558960	977.229309	9.846890
303.990173	915.112366	1483.750977	974.628723	10.466464
304.360260	913.923523	1484.568359	971.433838	10.078128
304.730286	919.941956	1484.939819	970.764954	8.995255
305.100281	922.393860	1490.735352	975.520325	9.347631
305.470276	925.737610	1493.038940	972.771179	8.290756
305.840179	920.907898	1499.726074	974.182922	9.204103
306.210144	926.926453	1514.586548	967.198486	6.852947
306.579987	921.725281	1520.456543	972.325439	8.451230
306.949890	920.907959	1529.967407	966.901306	7.551537
307.319702	919.273254	1530.338867	963.111877	7.174127
307.689484	922.319641	1532.122070	964.077820	6.847821
308.059265	921.502258	1535.911499	969.650452	7.836502
308.429016	918.233093	1553.818481	972.994141	8.615845
308.798737	920.239197	1580.716187	970.244934	7.571155
309.168396	920.313538	1611.774780	968.833191	7.016973
309.538055	922.245361	1639.638062	972.919861	7.063704
309.907684	919.124695	1655.241699	972.251160	7.217123
310.277313	927.520813	1662.894897	971.582336	5.991715
310.646851	929.824219	1666.312866	973.737122	5.962469
311.016388	931.533203	1681.321899	981.241699	6.629667
311.385895	923.211243	1682.510742	982.133301	7.760055
311.755371	919.867676	1677.161133	978.492493	7.741361
312.124817	921.799561	1680.058960	980.201477	7.702103
312.494232	923.954346	1688.677856	986.145691	8.132527
312.863617	921.725281	1686.151489	993.130188	9.340981
313.232971	919.124695	1677.161011	988.523376	9.155060
313.602295	919.198914	1671.216797	984.882568	8.734321
313.971619	922.245361	1685.334351	988.894836	8.734168
314.340820	923.731445	1685.854492	992.387207	9.008488
314.710083	918.753113	1694.919312	992.387207	9.486897
315.079285	915.929688	1698.411621	993.575989	9.923079
315.448486	915.038025	1711.563110	990.083740	9.421638
315.817596	924.028625	1707.253784	990.752441	8.519111
316.186707	925.811829	1702.944214	981.761780	7.199539
316.555786	922.468262	1688.232056	985.328369	8.208812
316.924866	912.511719	1680.207397	992.164246	10.375534
317.293884	906.121643	1662.300415	998.777161	12.253123
317.662872	904.932861	1663.340820	999.445862	12.462027
318.031830	907.682068	1669.953613	999.891663	12.096686
318.400757	908.796570	1679.835938	999.222961	11.727857
318.769684	914.517883	1680.875977	1001.154968	11.305039
319.138550	925.589050	1686.746094	996.845276	9.361567
319.507416	924.697327	1695.885254	1001.972229	10.020243
319.876190	921.725281	1703.390015	1007.619141	10.988581
320.244995	915.483826	1710.077148	1012.374573	12.193753
320.613770	922.022461	1708.591187	1020.696472	12.544868
320.982483	926.109131	1700.714844	1021.810974	12.354911
321.351166	923.434265	1684.516968	1022.776917	13.052806
321.719818	926.629211	1675.526367	1020.770813	12.570698
322.088440	928.338196	1688.826538	1024.263062	12.613588
322.457062	926.852112	1705.693237	1037.191650	14.167143
322.825623	921.725281	1726.795288	1045.587891	15.385322
323.194183	908.870911	1749.457520	1048.559937	16.618040
323.562653	911.545837	1773.680298	1049.302856	15.978601
323.931183	913.106140	1797.234375	1052.200806	15.732409
324.299591	923.731384	1831.041992	1061.191406	15.150271
324.668060	924.697327	1853.258423	1068.324585	15.467723
325.036407	924.771667	1882.905273	1081.773315	16.386196
325.404755	921.650940	1890.186890	1090.764038	17.460693
325.773102	918.158691	1908.390991	1101.092041	18.473782
326.141388	919.347595	1917.381714	1103.544067	18.455929
326.509674	913.997742	1906.310547	1112.534668	20.007494
326.877899	923.508484	1895.759399	1122.937012	20.512043
327.246124	922.468262	1899.400391	1130.515991	21.296026
327.614288	924.771667	1914.186523	1136.088623	21.357771
327.982422	910.431335	1921.542603	1146.045288	23.302475
328.350525	906.195984	1906.310547	1152.212280	24.598812
328.718628	904.561279	1898.434570	1165.735352	26.278408
329.086700	910.728455	1894.273560	1179.332764	27.309811
329.454712	910.951355	1908.985352	1201.623535	29.124477
329.822693	917.861511	1921.765625	1210.837036	29.183617
330.190674	922.542664	1931.722168	1215.518188	29.031061
330.558563	925.663330	1944.799316	1219.159058	28.798485
330.926483	923.434265	1958.842773	1248.508667	31.395765
331.294312	922.691223	1970.731079	1265.226685	32.683441
331.662231	917.712891	1990.941406	1293.907593	35.052620
332.029999	922.542542	2017.393188	1299.331665	34.414661
332.397766	918.530273	2050.829346	1318.873413	35.356659
332.765503	928.263916	2076.835205	1336.185913	35.515602
333.133240	922.691223	2084.488525	1352.012329	36.953182
333.500916	929.898499	2114.655273	1375.714844	37.629353
333.868561	925.514648	2120.971436	1388.643555	38.740749
334.236176	926.926453	2144.599365	1408.110840	39.516720
334.603790	909.985413	2142.964844	1419.925171	41.358334
334.971344	914.294983	2148.314697	1436.345825	42.304901
335.338867	910.728455	2150.097900	1452.543945	43.717030
335.706360	927.818054	2145.788086	1472.085449	44.686440
336.073853	922.691162	2152.104004	1483.899780	45.648506
336.441284	928.041016	2160.203125	1499.949097	46.415005
336.808655	923.285583	2171.422852	1510.202759	47.023449
337.176086	920.462097	2152.104004	1518.004517	48.515923
337.543396	918.678772	2124.983643	1516.444336	49.553436
337.910706	911.842957	2086.494873	1511.391724	51.040550
338.277954	917.787170	2090.952881	1525.360474	51.789211
338.645264	913.849182	2126.841064	1563.106323	53.525265
339.012421	918.307312	2192.375977	1618.387573	54.948395
339.379669	915.781067	2266.604492	1659.105347	55.027493
339.746796	915.186584	2308.957275	1699.377563	56.263985
340.113953	915.781067	2350.492432	1727.835571	56.600548
340.481018	910.877014	2356.436523	1765.358398	59.110771
340.848114	908.127869	2358.294189	1784.082642	60.403748
341.215118	903.669678	2357.253906	1796.342651	61.411850
341.582153	907.533447	2379.618896	1813.283691	61.528374
341.949066	916.895569	2400.126221	1834.088379	61.837502
342.316010	918.233093	2421.079834	1869.902344	63.324440
342.682922	922.245422	2432.225342	1894.868042	64.412949
343.049835	918.455872	2464.621338	1927.932617	65.289047
343.416656	924.251526	2491.296143	1960.031372	66.097656
343.783478	924.920349	2534.391602	2005.876343	67.162186
344.150269	924.623108	2573.400635	2054.321533	68.517334
344.516998	921.650940	2627.715820	2116.587158	70.040489
344.883728	916.969910	2667.542236	2177.143799	71.986389
345.250427	919.050293	2710.266357	2228.487061	73.103226
345.617065	912.288757	2730.402344	2257.019531	73.962967
345.983704	912.140137	2735.454834	2270.393799	74.493652
346.350281	910.059753	2721.560303	2279.533203	75.598839
346.716827	910.505554	2706.922607	2281.985107	76.345276
347.083405	908.945313	2694.662354	2295.285156	77.634911
347.449860	912.660339	2689.238281	2308.957275	78.594749
347.816376	918.381653	2669.399414	2307.842529	79.351616
348.182770	923.508484	2658.179688	2292.461914	78.917168
348.549194	916.895508	2645.919678	2267.347412	78.104858
348.915558	915.781006	2661.895020	2287.037842	78.531921
349.281921	912.808899	2668.582275	2314.827148	79.851891
349.648193	918.976013	2690.798828	2362.380859	81.464401
350.014526	917.192688	2712.940674	2393.662354	82.220314
350.380737	919.347656	2750.092529	2427.024170	82.353172
350.746948	916.747009	2786.723633	2466.107422	82.854530
351.113159	918.604675	2818.599365	2514.329834	83.985771
351.479309	921.576660	2839.849854	2548.360352	84.804588
351.845428	920.313477	2858.871338	2583.877197	85.814499
352.211517	925.886230	2874.103516	2620.582764	86.987038
352.577576	921.576660	2902.338623	2666.873291	88.112389
352.943604	920.016296	2926.561279	2710.489014	89.231628
353.309601	918.307312	2959.403076	2741.770508	89.337463
353.675537	914.443542	3009.928711	2793.559326	89.674500
354.041473	916.449707	3074.794922	2857.905518	89.951126
354.407379	912.288757	3137.878174	2918.982422	90.164597
354.773254	921.353699	3205.047852	2993.136719	90.720688
355.139038	924.771667	3251.264404	3058.077148	91.696205
355.504913	924.474426	3312.489502	3141.519287	92.840492
355.870636	922.839783	3362.495361	3192.267822	93.022476
356.236389	912.288818	3426.098389	3263.672607	93.538658
356.602081	910.356934	3498.543701	3337.529541	93.778885
356.967804	903.743958	3572.697998	3434.643311	94.827385
357.333405	912.660400	3663.718506	3516.896484	94.663071
357.699036	913.849182	3736.609375	3610.220703	95.522514
358.064606	911.991699	3811.877930	3699.829834	96.136124
358.430176	910.282715	3871.468750	3786.243408	97.121918
358.795654	909.242371	3929.202148	3846.800537	97.271431
359.161163	916.152527	3968.880127	3881.871094	97.149796
359.526581	917.341370	3983.889404	3898.366455	97.211098
359.892029	917.341309	4009.672119	3947.480713	97.988853
360.257416	919.941895	4057.523438	4032.112061	99.190094
360.622772	923.582825	4153.224609	4155.230957	100.062126
360.988098	925.514709	4274.635254	4288.158691	100.403793
361.353394	918.084473	4417.073730	4454.968262	101.083015
361.718658	912.586121	4565.976563	4609.294922	101.185699
362.083893	910.059753	4676.167480	4740.364746	101.704605
362.449097	916.969910	4764.661621	4802.110840	100.973289
362.814209	917.267029	4787.472656	4819.125977	100.817871
363.179382	920.536316	4732.562988	4729.665527	99.923988
363.544434	915.483826	4562.930176	4584.626465	100.594833
363.909546	921.205139	4359.637695	4380.813965	100.615868
364.274536	920.536438	4181.459961	4219.205566	101.157516
364.639587	927.075134	4061.386719	4090.364990	100.924553
365.004517	927.669434	3985.375000	4014.130615	100.940430
365.369507	928.858337	3938.935547	3969.845947	101.026894
365.734344	921.353760	3917.462158	3946.811768	100.979591
366.099274	919.347595	3894.502686	3940.198975	101.535927
366.464081	917.415710	3893.462158	3946.291748	101.775162
366.828918	920.833679	3893.387939	3960.557861	102.259666
367.193665	921.873840	3898.738281	3968.211182	102.333763
367.558411	925.143127	3893.314209	3963.827393	102.375641
367.923126	918.827454	3887.667236	3960.706299	102.460190
368.287781	918.530273	3882.762939	3971.331787	102.987915
368.652435	916.152527	3875.704102	3958.477295	102.796814
369.017059	918.158691	3872.806396	3960.855225	102.980011
369.381653	916.895691	3875.852783	3931.802734	101.890869
369.746185	925.291809	3876.670166	3945.325928	102.326225
370.110687	926.183411	3900.447266	3951.492920	101.716248
370.475220	919.496155	3938.935791	3995.703125	101.880058
370.839661	917.192810	3981.660156	4040.804688	101.930008
371.204041	917.341370	4016.731201	4075.281250	101.889084
371.568451	924.177246	4043.256836	4114.958496	102.298805
371.932770	918.604553	4082.711914	4151.590332	102.176865
372.297150	923.434265	4111.020996	4174.400879	101.988335
372.661377	917.415710	4134.203613	4195.280762	101.898697
373.025696	920.610657	4154.413574	4216.828125	101.930069
373.389862	917.415710	4158.054688	4236.964355	102.435005
373.754059	926.926514	4172.172363	4243.428223	102.195702
374.118225	921.948181	4182.945801	4263.118652	102.458534
374.482361	926.554932	4223.218262	4299.601074	102.316971
374.846436	920.164856	4268.097168	4356.888672	102.652130
375.210510	921.279480	4327.613281	4399.464355	102.109337
375.574524	921.725281	4390.919434	4470.943848	102.306717
375.938538	926.852112	4476.292969	4553.270996	102.168739
376.302460	926.034729	4560.032715	4643.920410	102.308411
376.666412	926.257629	4660.638184	4751.064453	102.421455
377.030304	917.787170	4742.668457	4832.946289	102.360275
377.394196	917.192810	4839.039063	4926.121582	102.220444
377.757996	919.570496	4924.933105	4986.827148	101.545280
378.121796	920.387756	4984.375000	5005.477051	100.519241
378.485565	919.124695	4995.743164	5003.396973	100.187752
378.849304	915.112305	4960.375488	4948.636230	99.709801
379.212982	916.821289	4911.409668	4900.487305	99.726570
379.576630	930.195740	4831.905762	4816.376465	99.601990
379.940277	923.657166	4754.333984	4737.021484	99.548058
380.303864	928.783997	4687.387207	4670.817383	99.559151
380.667450	924.103027	4683.151855	4648.006348	99.065041
381.030945	926.554993	4668.588379	4667.548340	99.972206
381.394501	919.793396	4698.309082	4691.696777	99.825005
381.757935	917.787170	4718.371094	4701.950684	99.567947
382.121399	921.799561	4762.581543	4716.811035	98.808304
382.484741	927.000793	4783.460449	4770.977539	99.676315
382.848145	920.462097	4807.014160	4826.110352	100.491341
383.211487	913.254822	4848.995605	4884.512207	100.902412
383.574768	901.886414	4903.310547	4946.926270	101.090004
383.938019	907.161926	4957.180176	5009.340332	101.287895
384.301270	908.499329	5023.012695	5090.999512	101.652367
384.664459	915.632507	5065.216309	5148.509766	102.007271
385.027649	914.517883	5107.420410	5217.016602	102.613853
385.390778	921.353821	5154.453613	5283.294922	103.043663
385.753876	920.387878	5201.858887	5329.734375	102.986717
386.116943	930.418701	5247.629883	5377.733887	103.013626
386.479980	925.960510	5261.598633	5380.929199	102.752319
386.842987	927.966736	5291.171387	5425.882324	103.087433
387.205994	917.118469	5330.923340	5461.250488	102.952713
387.568909	917.861511	5361.980957	5528.419922	103.745148
387.931793	917.489929	5391.256348	5581.992188	104.263428
388.294678	918.604492	5422.018066	5638.164551	104.799614
388.657471	915.929626	5458.277832	5673.384277	104.735580
389.020294	918.233093	5479.380371	5684.083984	104.487984
389.383057	917.192810	5492.531738	5704.220215	104.626724
389.745819	917.415710	5492.977051	5729.260254	105.164024
390.108521	915.558105	5520.320801	5782.980957	105.704094
390.471191	921.130859	5570.400879	5838.484863	105.766151
390.833801	917.192810	5668.926270	5934.038574	105.579277
391.196442	917.415710	5772.132324	6069.046387	106.115990
391.558960	919.421875	5867.982910	6221.515625	107.144150
391.921509	922.542664	5986.792969	6361.798828	107.404961
392.284027	922.022461	6110.210449	6490.193848	107.324013
392.646484	917.787170	6206.580566	6557.215332	106.629768
393.008911	918.084473	6207.472168	6564.051270	106.741409
393.371307	919.198975	6180.945801	6535.519043	106.738701
393.733673	916.598389	6127.745605	6508.546875	107.307426
394.096008	922.542480	6112.587402	6496.658691	107.400154
394.458344	923.582825	6129.677246	6498.292969	107.080467
394.820587	924.771667	6181.169434	6511.890625	106.291786
395.182831	918.455872	6236.821777	6549.933105	105.887360
395.545013	919.644775	6243.285645	6537.302246	105.522850
395.907196	923.434265	6201.007813	6501.413574	105.692116
396.269287	923.211365	6129.825684	6420.349121	105.579895
396.631409	925.068909	6040.216309	6322.641113	105.521339
396.993469	919.644775	5962.124512	6252.500000	105.758598
397.355530	925.960510	5898.595703	6199.670410	106.054634
397.717499	914.740784	5878.533691	6224.413574	106.968056
398.079468	919.198975	5877.270996	6237.787598	107.271309
398.441376	914.517883	5888.564941	6257.403809	107.415268
398.803284	924.325867	5905.877441	6245.664063	106.820900
399.165131	922.245361	5917.320313	6246.555176	106.591179
399.526978	924.548645	5935.450684	6250.567871	106.288635
399.888763	919.198914	5932.105957	6273.973145	106.819740
400.250519	921.205078	5962.718750	6305.626465	106.801682
400.612244	923.880066	5987.164551	6348.721191	107.140755
400.973938	922.468262	6013.467285	6364.474121	106.894653
401.335602	917.415710	6021.789063	6391.742676	107.247780
401.697205	921.056458	6032.415527	6425.178223	107.684113
402.058807	917.267090	6087.473145	6480.088379	107.593803
402.420349	918.530273	6176.785156	6577.351563	107.617859
402.781860	905.973083	6273.898438	6676.693848	107.503746
403.143341	918.381653	6361.056152	6797.063965	108.010910
403.504822	913.403381	6454.603027	6888.233887	107.825577
403.866241	918.901855	6555.580078	7009.792969	108.058167
404.227631	915.781067	6657.152344	7122.584473	108.106636
404.588959	923.211365	6792.755371	7263.165527	108.014427
404.950287	927.223694	6910.821777	7365.628906	107.600899
405.311554	928.189636	6999.687500	7436.885254	107.200821
405.672821	926.629211	7012.541504	7441.119629	107.042137
406.034027	916.969910	7017.742676	7439.782715	106.917816
406.395203	911.620117	6988.244629	7398.990723	106.759445
406.756348	907.682068	6957.335449	7383.015625	107.036438
407.117493	912.363098	6899.453125	7350.917480	107.540634
407.478516	917.118469	6864.457031	7351.882813	108.195694
407.839600	920.462097	6874.339844	7341.851563	107.852219
408.200592	920.833557	6913.645996	7321.716309	106.809326
408.561554	922.245422	6949.311035	7315.028809	106.067924
408.922485	923.285645	6959.490234	7321.195801	105.992271
409.283417	924.102966	6973.682129	7367.560547	106.510841
409.644257	923.805664	7032.455566	7423.212891	106.396790
410.005096	928.561035	7113.668457	7518.766113	106.549568
410.365906	928.932617	7198.967285	7603.769531	106.456139
410.726715	923.062683	7264.279785	7717.378418	107.145294
411.087433	918.084473	7315.920410	7781.649902	107.279488
411.448120	915.483826	7381.752441	7848.299316	107.215088
411.808807	917.712891	7414.296875	7858.181152	106.832581
412.169434	915.558105	7392.971191	7809.735840	106.434120
412.530029	917.044189	7380.935059	7772.732910	106.061333
412.890564	914.517883	7361.988281	7741.674316	105.888916
413.251099	911.322937	7400.625000	7765.673828	105.625397
413.611572	903.818359	7435.695801	7795.767090	105.512527
413.972076	907.087646	7489.342285	7853.203125	105.527901
414.332489	913.700623	7528.054688	7903.282715	105.672935
414.692871	914.220703	7620.933105	8023.579590	106.003632
415.053223	914.889465	7744.349609	8120.841309	105.512756
415.413574	918.084473	7886.861816	8302.214844	105.960197
415.773834	924.771667	7996.458984	8407.649414	105.814598
416.134094	922.542664	8077.671875	8553.208984	106.646103
416.494263	916.449707	8205.621094	8658.718750	106.216042
416.854462	920.684998	8388.925781	8852.649414	106.209274
417.214630	930.641602	8614.731445	9065.229492	105.862740
417.574738	925.960632	8828.351563	9323.951172	106.271507
417.934784	923.731445	9020.721680	9557.484375	106.629166
418.294861	916.226868	9285.090820	9859.450195	106.863052
418.654846	916.003906	9572.568359	10176.872070	106.980873
419.014832	911.025635	9902.992188	10515.618164	106.813034
419.374756	908.202148	10256.301758	10888.989258	106.768089
419.734680	917.638611	10658.205078	11291.859375	106.505310
420.094543	918.604492	11036.778320	11723.929688	106.791260
420.454376	919.941956	11364.750000	12080.878906	106.856316
420.814148	918.753113	11676.002930	12455.289063	107.244286
421.173920	925.811951	12017.127930	12830.667969	107.334930
421.533691	927.075012	12371.625000	13195.643555	107.200096
421.893341	923.731445	12654.718750	13467.516602	106.928642
422.253021	917.935852	12875.622070	13641.012695	106.400826
422.612640	917.044189	12936.030273	13708.333008	106.425690
422.972260	916.746887	12921.465820	13697.632813	106.465515
423.331757	918.827454	12819.895508	13633.881836	106.839607
423.691315	919.273254	12784.452148	13628.233398	107.111404
424.050781	923.508545	12862.320313	13703.426758	107.045143
424.410248	927.298035	12975.557617	13789.395508	106.754814
424.769653	928.189636	13120.448242	13890.745117	106.317917
425.128998	928.561035	13172.757813	13913.928711	106.053230
425.488373	920.536377	13148.832031	13907.018555	106.200264
425.847656	917.712891	13030.988281	13798.980469	106.340088
426.206940	909.688232	12882.160156	13654.315430	106.449425
426.566193	912.808899	12673.071289	13366.836914	105.899239
426.925385	913.329102	12466.139648	13081.588867	105.327271
427.284576	918.827454	12139.578125	12707.622070	105.062439
427.643677	910.133972	11884.125000	12458.187500	105.231117
428.002777	914.963684	11623.545898	12205.335938	105.432930
428.361847	909.613953	11380.352539	11961.401367	105.549263
428.720856	919.719055	11152.764648	11710.406250	105.449417
429.079865	918.976074	10971.984375	11512.018555	105.371880
429.438812	921.576721	10887.354492	11389.121094	105.034897
429.797760	927.743835	10831.850586	11343.648438	105.167534
430.156616	925.589050	10714.971680	11223.351563	105.193176
430.515503	929.378418	10643.715820	11156.924805	105.283005
430.874268	923.657166	10623.951172	11114.573242	105.057808
431.233093	915.706726	10666.229492	11157.668945	105.040138
431.591827	906.121643	10709.845703	11220.901367	105.212875
431.950562	903.223877	10716.607422	11246.164063	105.396271
432.309204	911.471497	10748.631836	11291.785156	105.521446
432.667877	920.090637	10853.250000	11381.393555	105.316978
433.026459	917.935852	10954.969727	11508.897461	105.518837
433.385010	918.084473	11100.379883	11637.664063	105.276657
433.743561	913.477600	11221.493164	11773.415039	105.354301
434.102051	919.570496	11358.062500	11899.952148	105.191261
434.460510	914.294922	11478.953125	12048.038086	105.386688
434.818939	918.530273	11558.085938	12095.071289	105.047066
435.177338	914.146301	11624.512695	12122.489258	104.649483
435.535675	919.347473	11586.543945	12081.993164	104.644608
435.894012	918.010071	11546.643555	12049.597656	104.732071
436.252289	920.016296	11530.890625	12082.215820	105.195854
436.610535	919.719055	11547.980469	12070.179688	104.913307
436.968719	927.743835	11653.118164	12189.063477	104.996986
437.326935	922.171082	11742.429688	12288.406250	105.045876
437.685028	915.112305	11881.672852	12431.737305	105.015831
438.043152	912.660339	11957.612305	12531.823242	105.198853
438.401215	918.604492	12132.445313	12676.862305	104.854866
438.759277	928.561096	12304.084961	12851.398438	104.811325
439.117249	928.561096	12597.803711	13169.860352	104.902260
439.475250	930.790222	12828.588867	13427.171875	105.031036
439.833130	924.994568	13122.604492	13766.957031	105.282616
440.191071	920.313538	13308.731445	13951.672852	105.189857
440.548889	916.226868	13508.829102	14191.670898	105.422562
440.906708	916.226868	13763.390625	14440.659180	105.271736
441.264496	912.883118	13999.524414	14673.746094	105.151985
441.622223	913.180420	14221.243164	14860.023438	104.799950
441.979950	908.796570	14298.370117	14931.206055	104.726334
442.337616	915.929688	14328.239258	14981.508789	104.870674
442.695251	910.579895	14254.976563	14863.590820	104.560822
443.052887	920.833679	14119.003906	14730.143555	104.630486
443.410461	913.403381	13999.971680	14540.671875	104.131721
443.768005	919.719055	13882.497070	14430.257813	104.225639
444.125458	916.672668	13812.950195	14334.555664	104.044617
444.482941	924.846008	13811.315430	14404.401367	104.602394
444.840393	927.149414	13867.711914	14510.801758	104.969566
445.197754	927.075012	14077.617188	14766.550781	105.238823
445.555084	921.576660	14275.040039	14993.546875	105.380684
445.912415	914.815125	14584.807617	15344.848633	105.559921
446.269714	913.180420	14814.476563	15590.495117	105.582344
446.626953	914.815125	15144.008789	15882.206055	105.187904
446.984161	908.870850	15416.997070	16145.981445	105.024666
447.341309	907.830566	15677.799805	16359.973633	104.618652
447.698456	912.957520	15807.309570	16513.482422	104.741219
448.055542	920.313477	15896.472656	16588.529297	104.621056
448.412598	920.090576	15838.367188	16537.779297	104.688293
448.769653	911.471497	15739.543945	16389.544922	104.383583
449.126617	911.248535	15523.769531	16108.606445	104.002296
449.483582	914.889343	15343.808594	15906.206055	103.897713
449.840515	914.443542	15128.554688	15637.527344	103.580757
450.197388	913.700500	14971.551758	15485.356445	103.654930
450.554230	908.350769	14836.172852	15356.515625	103.735992
450.911041	906.716125	14676.199219	15264.975586	104.275948
451.267822	907.161926	14519.867188	15173.062500	104.798424
451.624573	910.951355	14376.312500	15006.178711	104.677681
451.981262	910.208313	14268.127930	14888.481445	104.644089
452.337921	913.774902	14197.094727	14744.854492	104.123665
452.694580	914.963684	14131.782227	14719.293945	104.445183
453.051147	923.508484	14172.426758	14750.129883	104.360382
453.407715	922.096680	14149.541992	14710.750000	104.242752
453.764221	923.136963	14168.117188	14745.078125	104.356071
454.120728	924.177246	14003.907227	14550.405273	104.178207
454.477142	923.211243	13921.282227	14494.157227	104.407387
454.833557	925.068848	13778.473633	14326.902344	104.266808
455.189911	921.576660	13683.664063	14223.175781	104.227455
455.546265	921.130859	13540.854492	14077.541992	104.252769
455.902557	919.867676	13459.343750	13990.608398	104.236732
456.258820	919.496277	13433.188477	13999.002930	104.521561
456.615051	917.044189	13506.674805	14080.440430	104.557449
456.971252	910.356934	13514.475586	14056.663086	104.301666
457.327393	913.551941	13692.356445	14236.846680	104.260887
457.683502	921.873840	13900.329102	14453.215820	104.260033
458.039612	918.530273	14223.323242	14835.801758	104.603439
458.395630	919.124695	14525.735352	15175.959961	104.778740
458.751648	917.044250	14809.795898	15512.031250	105.054688
459.107605	919.867737	15325.901367	16079.480469	105.230995
459.463562	908.425110	15864.522461	16649.976563	105.251732
459.819458	906.493164	16430.486328	17250.119141	105.279778
460.175323	908.276428	16918.505859	17716.146484	104.982063
460.531158	909.168030	17432.234375	18214.197266	104.732552
460.886932	909.688171	17812.962891	18534.960938	104.271347
461.242676	909.093750	18038.470703	18669.966797	103.686623
461.598419	915.706726	17893.359375	18450.404297	103.281052
461.954102	913.849121	17520.656250	18021.751953	103.017410
462.309723	916.226868	16938.865234	17450.441406	103.192833
462.665344	917.861511	16372.160156	16892.427734	103.366493
463.020905	922.691223	15927.976563	16461.322266	103.554382
463.376373	918.604553	15574.370117	16138.996094	103.852585
463.731873	917.415710	15324.342773	15863.629883	103.743248
464.087341	915.260925	15114.511719	15636.264648	103.674507
464.442749	921.873840	15004.765625	15486.320313	103.419434
464.798126	924.474548	14899.924805	15397.901367	103.563225
465.153503	925.737610	14929.422852	15435.125977	103.611214
465.508820	922.393982	14950.375977	15474.135742	103.733681
465.864105	919.124695	15079.663086	15597.254883	103.655167
466.219330	914.517883	15291.276367	15833.093750	103.768700
466.574524	909.911133	15457.640625	16010.304688	103.798973
466.929657	904.041199	15628.016602	16182.389648	103.765106
467.284790	910.579834	15817.191406	16357.817383	103.626755
467.639893	911.025635	16047.233398	16566.906250	103.433311
467.994934	921.130798	16294.958008	16769.306641	103.085426
468.349945	918.455994	16435.017578	16871.771484	102.814758
468.704926	925.886230	16443.562500	16843.982422	102.580414
469.059875	924.103027	16206.389648	16625.306641	102.741188
469.414764	923.880066	15929.833008	16360.864258	102.872398
469.769653	927.298035	15709.971680	16175.628906	103.150017
470.124451	934.208191	15653.799805	16139.442383	103.299294
470.479248	928.932617	15557.207031	16021.449219	103.173592
470.834015	919.198975	15528.526367	15962.898438	102.973251
471.188721	906.270325	15573.256836	15999.752930	102.907867
471.543365	913.774902	15631.210938	16091.590820	103.128136
471.898010	919.050293	15695.260742	16201.039063	103.422913
472.252625	922.988464	15807.903320	16322.375977	103.456337
472.607178	923.508545	16048.125000	16565.568359	103.421204
472.961700	924.845947	16268.804688	16762.322266	103.216362
473.316193	922.393982	16526.931641	17007.001953	103.076477
473.670654	915.186584	16699.908203	17148.548828	102.842247
474.025055	916.449707	16968.214844	17371.976563	102.515373
474.379456	913.477600	17178.341797	17597.187500	102.575150
474.733795	912.511719	17303.468750	17754.412109	102.751175
475.088104	909.836853	17344.113281	17863.562500	103.160767
475.442383	918.010071	17286.306641	17821.953125	103.272461
475.796570	917.415710	17326.427734	17882.658203	103.389786
476.150787	919.867676	17465.298828	18047.087891	103.516312
476.504944	912.437439	17698.611328	18286.046875	103.499519
476.859070	919.719055	17945.816406	18553.240234	103.567604
477.213135	912.808899	18169.912109	18797.326172	103.635689
477.567200	913.774719	18534.591797	19181.767578	103.672791
477.921173	913.106140	18912.716797	19526.533203	103.410164
478.275146	915.781006	19363.585938	19975.171875	103.315224
478.629089	917.861511	19615.025391	20250.759766	103.400162
478.983002	915.558105	19996.570313	20698.062500	103.676392
479.336823	914.740784	20318.451172	21001.291016	103.519119
479.690643	914.146301	20725.628906	21425.710938	103.533722
480.044403	914.443604	21145.736328	21853.843750	103.500061
480.398163	917.489929	21721.507813	22486.009766	103.674782
480.751862	914.740723	22475.382813	23287.437500	103.766373
481.105499	915.855408	23415.537109	24277.595703	103.831429
481.459137	920.239258	24596.429688	25585.548828	104.177689
481.812744	928.784119	25987.822266	27117.968750	104.509933
482.166290	925.291809	27614.306641	28990.468750	105.156288
482.519806	919.050476	29533.250000	31186.783203	105.778717
482.873291	919.719177	31875.568359	33868.296875	106.437325
483.226715	922.245422	34760.152344	36992.203125	106.596306
483.580139	916.301086	37865.113281	40240.796875	106.429665
483.933502	913.180420	41261.042969	43612.722656	105.828514
484.286804	913.997803	44530.656250	46683.136719	104.934998
484.640106	925.291809	47548.238281	49339.605469	103.842247
484.993347	922.988464	49763.800781	51063.582031	102.661263
485.346558	924.177246	50724.906250	51693.144531	101.944221
485.699738	921.725281	50323.453125	51120.125000	101.612640
486.052887	920.833679	48576.593750	49473.277344	101.881584
486.405975	924.028625	46130.996094	47247.390625	102.469521
486.759064	926.926453	43550.605469	44971.574219	103.333755
487.112061	928.561035	41638.203125	43312.761719	104.113419
487.464996	925.589050	40771.164063	42500.265625	104.339508
487.817963	917.489929	40831.425781	42507.769531	104.199898
488.170868	916.226868	41343.816406	42846.144531	103.716095
488.523743	904.709961	41873.968750	43244.253906	103.344666
488.876587	905.675842	42240.425781	43372.574219	102.738976
489.229401	906.344727	42083.796875	43129.828125	102.540298
489.582153	916.747070	41383.566406	42349.203125	102.386246
489.934845	911.545837	40135.503906	41206.503906	102.730476
490.287537	912.957520	38756.667969	39941.875000	103.131844
490.640198	911.694336	37571.542969	38900.152344	103.624153
490.992798	920.685059	36705.246094	38129.406250	103.979820
491.345337	917.044128	36484.718750	37966.980469	104.167442
491.697876	916.226868	36640.308594	38105.109375	104.100319
492.050354	917.118469	37347.894531	38710.675781	103.740738
492.402832	924.548828	38055.402344	39194.832031	103.068687
492.755219	923.434265	38513.328125	39467.671875	102.538834
493.107605	923.285645	38356.996094	39062.203125	101.883881
493.459930	913.403381	37430.066406	37978.128906	101.500854
493.812225	922.542664	35823.792969	36271.167969	101.281830
494.164490	925.217468	33741.164063	34210.535156	101.430313
494.516724	932.127625	31664.773438	32135.927734	101.533073
494.868896	921.130859	29814.486328	30302.656250	101.689560
495.221039	912.437439	28423.318359	28979.695313	102.022392
495.573120	908.870911	27339.462891	27999.791016	102.498344
495.925201	916.598328	26799.429688	27471.500000	102.596588
496.277222	921.056458	26515.148438	27184.392578	102.614838
496.629211	921.353699	26509.056641	27184.617188	102.640175
496.981140	912.437439	26532.015625	27245.322266	102.784225
497.333069	912.140198	26686.787109	27382.039063	102.697426
497.684967	910.802734	26844.306641	27482.271484	102.459999
498.036804	914.740784	26973.000000	27597.812500	102.397751
498.388580	914.517883	26972.556641	27558.806641	102.249786
498.740326	920.016296	26891.716797	27439.773438	102.110207
499.092072	917.118469	26638.937500	27166.337891	102.050400
499.443756	907.533447	26346.333984	26841.041016	101.944695
499.795410	906.641785	26039.982422	26520.572266	101.912163
500.147003	920.239197	25727.093750	26153.962891	101.720772
500.498566	938.517639	25398.005859	25828.593750	101.760414
500.850098	931.384583	25065.427734	25516.966797	101.870964
501.201599	924.920227	24800.166016	25254.306641	101.902138
501.553009	917.415710	24524.578125	24976.562500	101.914604
501.904449	921.428040	24313.187500	24701.271484	101.659065
502.255859	925.366028	24153.658203	24490.474609	101.450027
502.607178	918.604492	24112.867188	24422.337891	101.334267
502.958405	916.969910	24043.693359	24355.984375	101.350349
503.309692	908.722229	23958.541016	24368.693359	101.779419
503.660919	916.821289	23935.283203	24402.052734	102.027802
504.012115	914.740784	24006.093750	24475.390625	102.032349
504.363251	918.901794	24145.708984	24553.484375	101.755623
504.714294	919.421875	24250.773438	24604.083984	101.514320
505.065369	929.155518	24305.384766	24696.367188	101.672562
505.416443	920.685059	24352.271484	24726.978516	101.599152
505.767395	919.496155	24392.171875	24755.437500	101.547607
506.118317	910.505554	24412.976563	24676.080078	101.119469
506.469238	914.963684	24427.314453	24669.169922	101.028633
506.820160	911.694336	24389.791016	24656.390625	101.135513
507.170929	919.719055	24350.562500	24713.755859	101.550064
507.521729	917.638611	24401.384766	24821.718750	101.789894
507.872498	916.672668	24514.771484	24949.517578	101.842293
508.223236	915.929688	24721.630859	25157.044922	101.829033
508.573883	919.942078	24860.500000	25329.427734	101.958717
508.924500	917.118469	25022.037109	25510.578125	102.026726
509.275116	917.638489	25169.601563	25670.548828	102.065598
509.625702	913.700500	25421.859375	25814.994141	101.604095
509.976196	916.895508	25709.408203	26048.525391	101.367821
510.326660	910.951355	25992.505859	26312.451172	101.275620
510.677124	913.403320	26254.125000	26613.375000	101.417679
511.027557	915.558105	26447.904297	26843.712891	101.550224
511.377869	919.050293	26630.318359	27015.650391	101.498688
511.728180	924.697327	26733.005859	27106.451172	101.446999
512.078430	930.270020	26846.021484	27193.681641	101.341499
512.428650	932.721985	26970.552734	27321.333984	101.347198
512.778931	925.217468	27094.117188	27486.062500	101.497749
513.129028	921.799561	27173.619141	27574.333984	101.526428
513.479126	918.232910	27259.515625	27609.927734	101.330276
513.829285	922.691162	27184.914063	27580.281250	101.505463
514.179382	923.880066	27146.947266	27563.041016	101.586746
514.529297	924.548767	27054.068359	27506.349609	101.730919
514.879272	924.697449	27096.791016	27508.724609	101.573944
515.229187	922.839844	26980.283203	27390.732422	101.575172
515.579163	918.307373	26973.892578	27392.070313	101.604942
515.928955	911.174316	26982.140625	27396.304688	101.588600
516.278748	912.065918	27189.593750	27618.916016	101.633797
516.628540	911.991699	27395.265625	27838.853516	101.674973
516.978333	921.279480	27744.935547	28238.453125	101.839859
517.327942	916.672668	28164.375000	28734.869141	102.093735
517.677612	924.028625	28673.123047	29318.218750	102.324745
518.027222	927.743713	29207.656250	29898.150391	102.441643
518.376831	931.013000	29903.724609	30518.728516	102.122704
518.726379	927.743835	30617.474609	31199.341797	101.959824
519.075867	923.954346	31257.445313	31742.048828	101.597588
519.425293	924.474426	31757.353516	32245.748047	101.584007
519.774658	921.948181	32094.021484	32490.572266	101.272133
520.124084	917.712891	32304.296875	32648.244141	101.095840
520.473389	915.632324	32164.904297	32435.068359	100.864548
520.822693	916.523987	31859.818359	32138.974609	100.902153
521.171997	915.632385	31325.880859	31641.888672	101.039146
521.521240	909.539612	30827.085938	31161.744141	101.118599
521.870361	913.329102	30337.281250	30691.412109	101.203537
522.219482	912.140198	29948.900391	30323.681641	101.290710
522.568604	920.239258	29691.515625	30074.623047	101.331558
522.917664	928.338196	29537.486328	29897.556641	101.258583
523.266724	930.790222	29596.630859	29944.220703	101.212555
523.615662	930.790222	29788.037109	30199.748047	101.426720
523.964600	921.650879	30152.564453	30639.396484	101.665466
524.313538	925.589050	30594.962891	31137.595703	101.828934
524.662354	922.542664	31170.734375	31710.023438	101.782883
525.011169	928.709778	31918.443359	32480.468750	101.813583
525.359985	922.245361	32865.949219	33490.761719	101.955978
525.708740	925.217468	33997.062500	34708.136719	102.150093
526.057434	916.226868	35280.941406	36031.542969	102.184219
526.406067	924.103027	36692.097656	37537.066406	102.362358
526.754700	921.502380	38162.175781	39066.589844	102.428566
527.103333	921.650879	39770.675781	40835.808594	102.741722
527.451782	916.226868	41565.980469	42725.402344	102.852226
527.800293	913.477722	43502.457031	44737.296875	102.899437
528.148743	911.248535	45532.925781	46779.359375	102.793335
528.497131	910.431213	47571.871094	48775.050781	102.578529
528.845642	913.997742	49605.464844	50672.671875	102.191772
529.193909	917.415710	51481.531250	52329.550781	101.677116
529.542175	918.530273	53022.125000	53548.484375	101.010216
529.890503	924.251465	53979.066406	54285.125000	100.576874
530.238770	924.177246	54201.605469	54271.300781	100.130814
530.586914	926.257629	53640.621094	53591.062500	99.905983
530.934998	923.731445	52130.343750	52070.605469	99.883339
531.283142	922.765442	50026.761719	50081.816406	100.112122
531.631226	918.381653	47433.593750	47623.886719	100.409096
531.979248	914.443542	45033.765625	45391.527344	100.810898
532.327148	914.072083	43016.371094	43520.292969	101.196899
532.675110	912.437439	41722.316406	42407.089844	101.677963
533.023071	909.242432	41255.472656	41957.933594	101.741081
533.370850	910.728516	41362.019531	42029.257813	101.649498
533.718689	912.511719	41934.523438	42509.550781	101.401756
534.066467	913.626282	42528.050781	43022.910156	101.189156
534.414246	917.415771	43002.847656	43408.093750	100.962914
534.761963	925.291809	43264.839844	43456.468750	100.452599
535.109619	924.697327	43151.527344	43150.710938	99.998070
535.457153	919.941956	42463.410156	42436.886719	99.936157
535.804749	914.517883	41388.027344	41404.968750	100.041855
536.152344	917.192810	40088.398438	40305.878906	100.555206
536.499817	914.740784	38923.332031	39209.769531	100.753616
536.847229	910.877014	37891.859375	38275.628906	101.037750
537.194641	914.517822	37267.421875	37529.785156	100.721710
537.542114	925.217468	36977.792969	37150.394531	100.478752
537.889404	926.109070	36708.890625	36869.972656	100.450165
538.236694	926.480652	36421.785156	36552.480469	100.368202
538.583984	926.554993	36018.691406	36155.406250	100.389587
538.931213	926.777832	35713.082031	35854.925781	100.407761
539.278381	919.793396	35321.730469	35607.718750	100.831314
539.625488	915.335266	35066.500000	35441.503906	101.098068
539.972595	916.821289	35078.312500	35560.761719	101.412262
540.319641	923.359863	35469.738281	36051.234375	101.683235
540.666687	924.548645	36289.968750	36963.824219	101.905411
541.013611	920.387756	37519.824219	38239.078125	101.965202
541.360596	915.706726	39041.250000	39702.617188	101.734711
541.707458	910.134033	40698.425781	41285.414063	101.475281
542.054260	918.753174	42255.140625	42665.808594	100.993477
542.401062	917.564270	43674.546875	43934.230469	100.607346
542.747864	918.307312	44689.000000	44780.910156	100.209984
543.094666	909.836731	45076.785156	45014.894531	99.859871
543.441284	914.294983	44650.437500	44455.316406	99.553871
543.787903	913.997742	43585.605469	43337.730469	99.419113
544.134460	919.273254	42033.792969	41870.402344	99.602600
544.481079	922.616882	40348.085938	40304.691406	99.889931
544.827637	925.143127	38587.261719	38640.910156	100.142448
545.174072	925.663269	36960.847656	37006.171875	100.125778
545.520508	918.158691	35547.683594	35611.582031	100.184517
545.866943	914.220703	34381.429688	34457.070313	100.226013
546.213318	912.288818	33529.402344	33641.000000	100.342148
546.559631	919.942078	32833.406250	32956.378906	100.385330
546.905823	926.406433	32316.484375	32401.263672	100.270081
547.252136	928.635437	31902.468750	31980.039063	100.250435
547.598389	926.852112	31611.943359	31611.720703	99.999275
547.944458	927.520813	31379.599609	31329.814453	99.836510
548.290588	923.359863	31070.349609	30913.943359	99.481186
548.636658	921.353699	30612.201172	30401.701172	99.291031
548.982727	918.604553	29989.544922	29759.650391	99.209198
549.328735	920.313477	29261.007813	29022.791016	99.159447
549.674622	919.347656	28442.041016	28220.396484	99.194687
550.020569	911.620117	27688.314453	27455.447266	99.130333
550.366455	913.552002	26905.312500	26705.361328	99.230713
550.712280	914.740784	26264.898438	26057.146484	99.180473
551.058044	919.050354	25725.978516	25552.929688	99.302414
551.403748	923.211243	25353.130859	25153.552734	99.183060
551.749512	922.468262	25139.287109	24907.460938	99.042709
552.095154	927.520813	24914.595703	24737.306641	99.260895
552.440735	922.616882	24858.867188	24714.494141	99.396843
552.786316	919.421875	24794.150391	24767.474609	99.888268
553.131897	916.003906	24892.599609	24808.859375	99.650742
553.477417	914.666504	24986.443359	24856.935547	99.461990
553.822815	920.685059	25091.283203	24867.337891	99.073479
554.168213	915.186584	25147.458984	24919.943359	99.061104
554.513672	921.948059	25147.384766	24914.445313	99.038452
554.859009	915.706726	24999.968750	24786.494141	99.113632
555.204285	926.257629	24825.728516	24540.703125	98.807396
555.549500	915.260925	24523.984375	24230.787109	98.758095
555.894714	910.802795	24248.099609	23947.990234	98.714035
556.239990	906.493225	23940.708984	23655.162109	98.760338
556.585022	918.233093	23686.890625	23415.685547	98.808868
556.930115	924.474426	23400.826172	23137.570313	98.828743
557.275146	924.325867	23126.203125	22923.726563	99.088020
557.620178	920.536377	22925.361328	22745.625000	99.183197
557.965149	924.548767	22813.908203	22597.390625	99.010857
558.310059	922.616882	22696.138672	22426.195313	98.760223
558.654968	923.657043	22565.513672	22264.958984	98.611237
558.999756	918.827454	22443.287109	22195.484375	98.848740
559.344604	921.576660	22417.281250	22134.853516	98.686119
559.689331	921.948181	22368.017578	22102.384766	98.761391
560.033997	926.852051	22324.921875	22032.462891	98.633247
560.378723	933.167786	22273.951172	22041.828125	98.912300
560.723389	933.465088	22279.224609	22011.884766	98.747574
561.067932	927.520935	22339.632813	22050.224609	98.648392
561.412476	914.666504	22369.427734	22014.632813	98.346313
561.757019	912.660339	22364.750000	22040.638672	98.489136
562.101501	914.517883	22388.078125	22059.062500	98.467812
562.445862	920.536438	22373.888672	22093.912109	98.694954
562.790222	914.666504	22382.357422	22068.650391	98.538704
563.134644	916.672668	22373.884766	22025.185547	98.374908
563.478943	919.867676	22370.171875	21984.169922	98.200485
563.823181	924.697327	22343.421875	21991.376953	98.356369
564.167358	922.914063	22327.671875	22028.974609	98.604530
564.511536	922.914063	22342.900391	22065.976563	98.707169
564.855774	918.604553	22357.984375	22080.912109	98.707649
565.199768	918.455994	22418.468750	22171.337891	98.850555
565.543823	913.849182	22528.806641	22309.466797	98.985237
565.887817	919.050354	22783.296875	22541.664063	98.894852
566.231812	924.325867	23002.859375	22751.642578	98.862167
566.575745	925.440430	23250.806641	22977.226563	98.774567
566.919617	925.663330	23489.021484	23169.373047	98.583328
567.263428	919.199036	23697.068359	23345.990234	98.458687
567.607239	918.158875	23828.064453	23467.845703	98.427673
567.950989	918.753235	23867.669922	23536.724609	98.557907
568.294678	924.697449	23871.681641	23504.476563	98.399765
568.638367	925.366028	23798.046875	23372.587891	98.139885
568.981995	911.620117	23626.406250	23175.687500	98.015747
569.325623	908.276550	23430.990234	22983.095703	98.011368
569.669128	905.007141	23244.564453	22836.572266	98.173676
570.012573	916.078308	23130.287109	22717.759766	98.142960
570.356140	919.793396	23072.853516	22669.166016	98.177734
570.699524	920.387878	23046.328125	22647.396484	98.196999
571.042908	922.839783	23105.396484	22747.779297	98.387848
571.386230	919.644714	23193.000000	22816.580078	98.309998
571.729492	923.434265	23369.320313	22950.031250	98.132004
572.072815	927.446533	23505.515625	23107.625000	98.237709
572.416016	932.201965	23655.087891	23259.724609	98.260063
572.759094	936.214294	23782.072266	23452.390625	98.556931
573.102234	936.214294	23905.265625	23545.492188	98.433662
573.445374	931.235901	23934.765625	23655.609375	98.786461
573.788391	920.833557	23973.849609	23640.451172	98.553772
574.131409	914.294922	23972.958984	23580.937500	98.299896
574.474365	908.276428	23972.583984	23495.486328	97.931442
574.817261	916.672668	23831.556641	23353.271484	97.912773
575.160156	917.564270	23654.568359	23189.062500	97.952652
575.502930	921.130859	23456.921875	22988.224609	97.920212
575.845703	918.604492	23269.458984	22817.400391	97.977448
576.188477	921.948181	23083.998047	22603.779297	97.833145
576.531250	918.307312	22897.500000	22383.619141	97.661964
576.873901	912.734619	22668.718750	22153.505859	97.631859
577.216431	909.465332	22415.125000	21921.679688	97.705513
577.559082	917.861511	22148.822266	21659.466797	97.695084
577.901611	923.211243	21877.023438	21354.304688	97.505379
578.244080	922.394043	21592.593750	21065.044922	97.447784
578.586487	920.313477	21285.798828	20737.369141	97.307060
578.928955	938.071838	20960.945313	20389.708984	97.147079
579.271301	934.653870	20610.462891	20048.138672	97.142052
579.613647	932.053284	20254.181641	19707.013672	97.168182
579.955872	921.725281	19965.513672	19449.554688	97.290672
580.298157	920.685059	19692.822266	19181.542969	97.276390
580.640320	927.892334	19437.591797	18965.396484	97.448929
580.982483	924.697449	19201.607422	18714.255859	97.333511
581.324524	930.344421	18981.224609	18505.017578	97.361862
581.666626	928.486877	18861.968750	18335.978516	97.066994
582.008728	925.811951	18765.671875	18257.960938	97.154068
582.350647	924.548828	18717.822266	18189.230469	97.029259
582.692566	924.623047	18631.556641	18092.935547	96.958138
583.034424	922.393982	18546.849609	17977.320313	96.768532
583.376343	929.601379	18459.693359	17881.544922	96.701965
583.718201	929.452820	18389.849609	17831.166016	96.800278
584.059937	928.709717	18322.976563	17766.822266	96.802658
584.401611	924.920227	18240.054688	17641.101563	96.540871
584.743347	922.096741	18186.556641	17575.490234	96.460556
585.085022	917.638611	18102.818359	17472.357422	96.331367
585.426514	911.768738	18023.685547	17418.562500	96.463730
585.768127	906.790344	17952.056641	17361.796875	96.537102
586.109619	916.672668	17846.546875	17344.335938	97.033585
586.451172	921.725281	17826.857422	17328.880859	97.054291
586.792542	931.013123	17766.970703	17265.427734	97.021004
587.133850	929.007019	17742.525391	17210.666016	96.836723
587.475220	926.183411	17696.009766	17214.750000	97.130203
587.816589	925.217529	17717.111328	17196.025391	96.896797
588.157776	922.022461	17792.529297	17243.580078	96.746094
588.498962	923.137024	17862.521484	17273.451172	96.522484
588.840210	923.954346	17908.367188	17321.080078	96.542198
589.181335	927.966614	17959.115234	17371.753906	96.551254
589.522400	925.366150	17989.876953	17406.527344	96.581505
589.863403	918.901794	18029.037109	17438.181641	96.546753
590.204407	910.877136	18066.259766	17440.259766	96.350998
590.545410	908.499329	18124.958984	17495.914063	96.346260
590.886353	912.437439	18158.619141	17528.753906	96.347801
591.227112	918.976013	18172.736328	17503.789063	96.122887
591.567932	921.427979	18134.173828	17460.470703	96.086021
591.908752	922.914063	18058.382813	17418.935547	96.268280
592.249512	923.434265	18027.771484	17407.939453	96.376167
592.590149	923.062683	17979.474609	17329.029297	96.186508
592.930786	922.245422	17936.453125	17282.218750	96.154785
593.271423	922.319641	17849.076172	17212.595703	96.239799
593.612000	922.616882	17754.708984	17159.841797	96.465874
593.952576	916.301208	17686.947266	17115.333984	96.591583
594.292969	907.533447	17693.632813	17107.013672	96.505325
594.633484	906.790466	17750.994141	17165.935547	96.526649
594.973877	909.688232	17857.320313	17228.126953	96.287422
595.314209	913.626282	17925.457031	17331.257813	96.507141
595.654480	915.409485	18039.660156	17450.218750	96.557854
595.994812	919.050293	18163.375000	17606.847656	96.772690
596.335022	924.400085	18364.585938	17818.238281	96.867310
596.675171	924.400146	18558.517578	18000.875000	96.837708
597.015320	915.335205	18797.548828	18195.029297	96.630623
597.355408	912.660339	18969.560547	18328.251953	96.448402
597.695496	914.666504	19170.771484	18474.033203	96.183533
598.035461	923.582825	19202.423828	18488.300781	96.093170
598.375366	929.229797	19210.224609	18473.068359	95.967636
598.715271	928.412415	19103.082031	18376.548828	96.002495
599.055176	933.093506	18925.794922	18196.958984	95.949272
599.395081	920.387756	18651.097656	17904.726563	95.790520
599.734802	919.347473	18291.025391	17555.951172	95.768547
600.074524	911.174255	17962.830078	17207.619141	95.571037
600.414246	920.387756	17584.853516	16866.123047	95.687050
600.753906	921.353699	17216.533203	16514.447266	95.691452
601.093506	921.799622	16852.152344	16201.187500	95.913681
601.433044	922.468262	16612.080078	15994.254883	96.062210
601.772583	926.109131	16478.857422	15876.856445	96.129295
602.112122	932.796387	16455.302734	15868.088867	96.217026
602.451538	931.310303	16487.326172	15889.042969	96.154007
602.790894	925.960449	16606.435547	15983.407227	96.026733
603.130310	914.815125	16763.064453	16140.557617	96.072075
603.469604	909.762512	16955.507813	16330.399414	96.104210
603.808838	910.951355	17175.593750	16564.824219	96.244804
604.148010	916.449768	17448.656250	16842.939453	96.336136
604.487305	919.198975	17739.552734	17141.414063	96.443962
604.826416	920.685059	18029.630859	17437.882813	96.541298
605.165527	921.873840	18283.447266	17671.638672	96.476074
605.504456	928.040955	18487.482422	17865.197266	96.456123
605.843445	928.561035	18646.417969	17936.304688	95.992104
606.182434	927.075012	18702.589844	17944.998047	95.738007
606.521423	921.650879	18611.791016	17824.330078	95.548592
606.860229	922.171082	18426.333984	17633.892578	95.472839
607.199036	923.359863	18177.789063	17373.015625	95.335846
607.537903	928.709717	17901.533203	17108.572266	95.328049
607.876648	932.350586	17565.685547	16821.912109	95.528412
608.215271	928.932617	17216.166016	16500.330078	95.604927
608.553955	915.632385	16945.480469	16202.153320	95.362854
608.892578	907.161926	16691.291016	15972.410156	95.445549
609.231140	910.579834	16557.990234	15870.468750	95.606163
609.569641	922.839844	16471.501953	15833.093750	95.894127
609.908081	922.394043	16521.283203	15842.602539	95.649178
610.246521	914.815125	16589.640625	15905.984375	95.638512
610.584961	914.815125	16690.025391	15944.992188	95.277191
610.923340	911.991638	16735.572266	15957.031250	95.079872
611.261597	920.982239	16694.113281	15854.864258	94.679253
611.599854	917.267090	16561.187500	15759.829102	94.877518
611.938110	924.623047	16418.822266	15659.819336	95.101372
612.276245	923.434143	16220.432617	15488.476563	95.215034
612.614319	920.610657	15977.090820	15216.676758	94.949593
612.952393	914.815125	15642.356445	14871.913086	94.768692
613.290466	913.254822	15334.223633	14553.823242	94.588432
613.628479	916.969971	15006.028320	14290.493164	94.921341
613.966370	925.291809	14750.502930	14053.914063	94.961456
614.304260	921.725281	14507.829102	13874.101563	95.335472
614.642151	915.038025	14325.862305	13666.945313	95.086678
614.979980	914.294983	14173.765625	13504.519531	94.952690
615.317749	916.969910	14033.778320	13344.769531	94.747131
615.655396	920.907959	13955.536133	13248.620117	94.576630
615.993164	917.118469	13870.164063	13190.070313	94.749542
616.330811	921.205139	13832.640625	13145.562500	94.678528
616.668396	920.685059	13807.081055	13101.502930	94.524628
617.005859	925.291809	13783.453125	13068.510742	94.439781
617.343445	924.623047	13778.401367	13038.640625	94.244797
617.680908	928.189514	13766.139648	13042.282227	94.361580
618.018311	922.691162	13770.151367	13063.383789	94.498779
618.355652	923.062683	13789.321289	13093.551758	94.592293
618.692993	919.719055	13816.293945	13107.668945	94.505325
619.030273	917.564270	13831.377930	13073.489258	94.131180
619.367554	914.220703	13802.399414	13052.387695	94.180626
619.704712	912.734680	13801.433594	13065.762695	94.292122
620.041870	917.415710	13794.523438	13091.395508	94.539703
620.379028	917.415710	13776.319336	13102.096680	94.756767
620.716064	923.359863	13701.421875	13024.747070	94.704391
621.053040	917.787170	13643.987305	12929.491211	94.385628
621.389954	924.325867	13590.117188	12819.002930	93.911835
621.726929	916.226868	13522.948242	12763.424805	93.975250
622.063843	905.378662	13450.129883	12720.848633	94.186562
622.400635	898.542786	13379.393555	12684.960938	94.436012
622.737427	899.805969	13333.698242	12614.817383	94.218376
623.074219	916.375488	13305.018555	12556.340820	93.956741
623.410889	916.152588	13261.327148	12489.915039	93.751305
623.747559	925.514648	13248.769531	12489.618164	93.839684
624.084167	921.799622	13198.020508	12448.825195	93.897186
624.420715	926.034851	13210.131836	12458.632813	93.882339
624.757324	923.880066	13200.471680	12454.175781	93.920982
625.093750	928.561035	13227.221680	12506.485352	94.139717
625.430176	927.520813	13263.184570	12565.036133	94.340408
625.766602	925.737610	13255.977539	12596.614258	94.652473
626.102905	928.189636	13331.171875	12660.664063	94.593979
626.439209	930.864502	13402.129883	12753.467773	94.798744
626.775452	932.424805	13570.797852	12879.187500	94.527695
627.111694	925.514648	13671.773438	12997.254883	94.708107
627.447876	924.177246	13769.854492	13056.250977	94.444794
627.783997	922.022461	13849.356445	13109.972656	94.280464
628.120056	929.081238	13925.518555	13163.692383	94.138191
628.456055	927.892334	13944.539063	13168.448242	94.037704
628.792053	929.972839	13967.053711	13168.968750	93.878349
629.128052	929.378418	13935.252930	13099.273438	93.572289
629.463928	921.651062	13889.704102	13030.394531	93.373642
629.799744	916.226868	13747.265625	12900.215820	93.398430
630.135559	912.437439	13592.643555	12754.804688	93.392548
630.471375	925.366028	13436.012695	12571.872070	93.092758
630.807068	926.629211	13262.664063	12432.703125	93.272064
631.142700	921.428040	13125.649414	12321.546875	93.411278
631.478333	905.527283	12944.127930	12197.237305	93.795868
631.813965	904.338379	12846.643555	12080.359375	93.583458
632.149475	909.762512	12717.281250	11930.936523	93.340302
632.484924	921.428040	12649.666992	11884.125977	93.472672
632.820435	922.691162	12515.698242	11782.034180	93.671494
633.155884	922.616882	12472.231445	11721.997070	93.504250
633.491150	924.548767	12418.362305	11653.711914	93.347290
633.826477	924.845947	12386.709961	11591.893555	93.065559
634.161804	924.325867	12311.218750	11561.502930	93.415977
634.497009	916.226807	12242.190430	11480.811523	93.277580
634.832153	917.787292	12160.903320	11425.973633	93.463295
635.167297	919.719055	12063.195313	11346.098633	93.564873
635.502380	920.239258	11972.768555	11288.441406	93.808411
635.837463	920.536438	11900.917969	11220.231445	93.800888
636.172424	911.768738	11855.742188	11129.730469	93.366104
636.507324	916.301086	11801.128906	11040.864258	93.015373
636.842224	918.678894	11741.389648	10972.430664	92.894951
637.177124	925.217468	11629.415039	10865.732422	92.865578
637.511963	916.969910	11520.562500	10767.058594	92.893883
637.846741	910.951355	11387.264648	10627.741211	92.750092
638.181396	914.294922	11274.026367	10532.336914	92.840652
638.516113	922.468262	11182.114258	10442.282227	92.788910
638.850769	923.285645	11082.473633	10362.703125	92.915085
639.185303	918.604492	10981.645508	10261.206055	92.840736
639.519836	919.719055	10856.742188	10174.940430	93.138771
639.854370	918.976013	10776.198242	10073.516602	92.871407
640.188843	920.907898	10694.614258	9981.975586	92.708611
640.523254	913.774902	10626.180664	9887.834961	92.397911
640.857605	914.369202	10527.284180	9792.653320	92.357880
641.191895	917.267090	10453.351563	9730.833008	92.423332
641.526184	924.251526	10385.216797	9657.496094	92.308174
641.860413	924.102966	10322.504883	9615.291992	92.475182
642.194580	922.542542	10260.314453	9547.973633	92.371407
642.528748	917.118469	10176.425781	9496.111328	92.652641
642.862793	921.502380	10111.559570	9436.222656	92.651443
643.196838	920.759338	10048.476563	9401.375000	92.910583
643.530823	921.948181	10017.194336	9339.257813	92.546257
643.864746	922.765442	9960.427734	9272.162109	92.384476
644.198669	919.644775	9913.022461	9228.100586	92.384155
644.532532	919.793396	9855.215820	9187.680664	92.529343
644.866333	911.917297	9827.649414	9183.221680	92.772018
645.200073	918.604553	9795.773438	9145.104492	92.670311
645.533813	922.616943	9775.043945	9142.875000	92.858803
645.867554	930.195801	9766.944336	9119.024414	92.667900
646.201172	929.898621	9756.244141	9100.670898	92.572540
646.534729	928.561035	9789.680664	9087.074219	92.070915
646.868225	924.474426	9800.305664	9094.875977	92.052238
647.201782	913.849121	9790.943359	9112.559570	92.358055
647.535217	914.517883	9760.702148	9127.271484	92.839508
647.868591	915.781006	9807.290039	9149.265625	92.599403
648.201965	917.712891	9823.190430	9150.007813	92.440804
648.535278	920.759277	9842.583008	9132.622070	92.042427
648.868591	928.263916	9818.583984	9100.002930	91.917267
649.201782	929.972900	9812.565430	9083.135742	91.788101
649.534912	920.090637	9764.863281	9064.336914	92.079773
649.868103	914.963684	9705.347656	9045.019531	92.488060
650.201172	916.152588	9663.292969	8993.973633	92.348137
650.534180	927.000732	9646.277344	8952.437500	92.042458
650.867188	919.421875	9648.431641	8908.004883	91.517632
651.200134	918.753113	9635.206055	8900.054688	91.565933
651.533020	916.301086	9588.542969	8881.182617	91.843391
651.865845	933.167786	9510.301758	8840.612305	92.192154
652.198608	941.192566	9457.844727	8810.371094	92.397560
652.531433	937.774658	9426.191406	8781.541016	92.405525
652.864136	927.892395	9403.901367	8777.528320	92.610046
653.196777	1185.202759	9667.452148	9036.993164	92.567322
653.529358	1196.868286	9653.409180	8997.019531	92.238083
653.861938	1190.478149	9599.911133	8932.227539	92.060310
654.194519	931.681824	9252.174805	8582.484375	91.951317
654.526978	924.623047	9192.955078	8521.927734	91.884369
654.859375	930.641602	9146.367188	8458.101563	91.622581
655.191833	929.229797	9085.366211	8410.993164	91.731712
655.524170	925.440369	9030.530273	8359.576172	91.721817
655.856445	922.616882	8974.729492	8334.164063	92.044754
656.188660	924.623047	8960.090820	8316.333008	91.988548
656.520874	922.765442	8906.444336	8268.704102	92.011948
656.853088	922.765564	8922.493164	8263.799805	91.766052
657.185181	920.090637	8893.589844	8245.818359	91.875946
657.517212	923.508484	8897.600586	8260.530273	92.010750
657.849243	929.081238	8904.808594	8262.387695	91.945297
658.181274	926.777832	8962.245117	8302.140625	91.785110
658.513123	919.719055	9036.473633	8379.192383	91.902168
658.844971	911.025696	9117.092773	8484.776367	92.294518
659.176819	910.059753	9202.168945	8567.920898	92.351189
659.508667	917.861572	9318.006836	8666.817383	92.247879
659.840393	920.833679	9416.161133	8746.692383	92.119568
660.172058	921.502380	9508.816406	8838.160156	92.190147
660.503662	919.050354	9566.995117	8880.586914	92.062767
660.835266	918.530273	9606.821289	8885.788086	91.701096
661.166931	923.359924	9568.184570	8840.686523	91.584587
661.498413	922.542664	9530.809570	8797.292969	91.478935
661.829773	927.892395	9437.262695	8718.384766	91.551926
662.161194	930.047119	9335.764648	8614.879883	91.423874
662.492615	921.948181	9186.491211	8485.371094	91.516525
662.823975	920.610657	9022.282227	8328.147461	91.432205
663.155212	913.329041	8856.141602	8145.287598	91.050346
663.486450	920.907898	8691.784180	7973.425293	90.755753
663.817627	922.096741	8539.240234	7871.259277	91.230560
664.148743	922.096863	8409.581055	7777.638184	91.560013
664.479858	921.725281	8298.945313	7707.941406	91.988800
664.810913	920.833679	8211.639648	7590.097656	91.474991
665.141907	920.610840	8158.958984	7514.902832	91.102165
665.472778	925.291809	8078.637207	7426.779785	90.887375
665.803711	924.474548	8049.584473	7387.027832	90.701103
666.134583	923.137024	7989.177246	7353.294922	91.000870
666.465454	919.496094	7986.650391	7348.390625	90.968643
666.796143	916.524109	7931.666504	7311.091309	91.153778
667.126831	919.719055	7911.976563	7285.233887	91.036621
667.457458	920.684998	7883.666504	7237.976563	90.726814
667.788147	919.124695	7868.063965	7218.138184	90.647125
668.118774	924.177246	7825.191406	7189.605469	90.789963
668.449219	921.725281	7797.104004	7190.497559	91.177116
668.779663	925.068848	7789.005859	7198.447754	91.396217
669.110107	919.941956	7789.600098	7187.600098	91.236824
669.440552	926.703552	7747.990723	7152.231934	91.266182
669.770874	927.297913	7716.783691	7105.197754	90.992165
670.101135	927.297913	7701.253906	7086.324707	90.922157
670.431396	921.428040	7688.399902	7058.164063	90.686592
670.761597	922.022461	7644.858887	7020.863770	90.718277
671.091797	927.297913	7601.763184	6984.752441	90.755653
671.421875	920.090576	7557.106934	6971.601563	91.178177
671.751892	919.941956	7541.355469	6955.031738	91.145035
672.081909	914.815186	7510.073730	6928.356934	91.179771
672.411865	918.233093	7493.429688	6876.196777	90.612709
672.741821	920.982239	7433.095703	6820.989746	90.600502
673.071716	917.935852	7395.275391	6791.640625	90.680824
673.401550	922.542664	7346.532715	6738.811035	90.539810
673.731262	917.044189	7327.808594	6725.956543	90.611847
674.060974	913.254700	7281.666504	6680.408691	90.558746
674.390625	914.220703	7250.236816	6670.897949	90.856415
674.720276	916.152588	7205.283691	6631.963379	90.883949
675.049927	917.935852	7169.915527	6582.998047	90.612297
675.379395	909.762512	7110.993652	6539.308594	90.781105
675.708923	906.567566	7059.130371	6493.760254	90.810822
676.038330	909.836914	7020.270020	6459.284668	90.819221
676.367737	913.031921	7004.592285	6424.361816	90.474846
676.697083	915.855408	6986.759277	6386.021484	90.104637
677.026428	917.341370	6966.771973	6351.396973	89.827553
677.355652	912.140198	6953.992188	6329.552246	89.664757
677.684875	914.443604	6948.122559	6338.170410	89.890877
678.013977	909.093750	6942.326172	6332.077637	89.885216
678.343079	915.260986	6930.808594	6320.635254	89.856720
678.672180	915.483887	6924.121094	6301.985840	89.645981
679.001221	919.867676	6930.734375	6326.431152	89.946487
679.330139	923.285645	6929.694824	6368.412109	90.655273
679.659058	923.211243	6948.938965	6402.888672	90.938019
679.987976	926.034851	6982.598145	6458.838379	91.352196
680.316772	922.096741	7041.074219	6497.401855	91.114983
680.645630	916.895569	7102.746094	6537.895996	90.868675
680.974304	908.350769	7159.364746	6568.583496	90.549034
681.302979	909.836853	7211.970703	6596.298340	90.230728
681.631653	909.242432	7244.068848	6628.693848	90.285843
681.960266	917.267090	7288.650879	6651.505371	89.999886
682.288757	916.821289	7321.566895	6668.892090	89.809509
682.617249	921.725281	7330.929199	6681.300781	89.864136
682.945679	915.781006	7286.050293	6647.566895	89.977135
683.274109	919.273254	7215.239746	6590.725098	90.080719
683.602478	921.205078	7148.144531	6512.707031	89.795349
683.930725	930.047058	7091.451660	6447.023926	89.540894
684.259033	927.372253	7020.714844	6396.498535	89.755768
684.587280	924.474365	6959.786621	6335.347168	89.653572
684.915344	919.198975	6875.676270	6259.855469	89.661316
685.243469	913.254700	6817.497559	6184.958496	89.286705
685.571533	911.620117	6732.569824	6120.314941	89.481873
685.899536	911.174316	6651.951172	6064.736816	89.771172
686.227539	917.341492	6572.224121	6003.734375	89.946922
686.555420	920.833679	6520.732422	5973.121094	90.221046
686.883301	919.347656	6499.185059	5964.130371	90.410927
687.211121	922.319641	6505.723145	5962.792969	90.276001
687.538940	926.554993	6507.134766	5951.944824	90.051392
687.866638	922.245422	6526.304688	5946.372559	89.651573
688.194336	917.712952	6507.803223	5936.712402	89.783875
688.521973	908.276428	6517.908691	5937.307129	89.649918
688.849609	911.322937	6513.673340	5922.818359	89.453445
689.177063	915.112305	6519.320313	5914.720215	89.211678
689.504578	921.725281	6494.949219	5878.459473	88.938362
689.832031	919.941956	6445.463379	5829.568359	88.853630
690.159485	920.090637	6364.919922	5784.095215	89.332542
690.486816	923.731445	6280.065918	5732.455078	89.776390
690.814087	931.161804	6200.265137	5683.712402	90.196571
691.141296	927.149353	6135.621582	5593.435059	89.590294
691.468506	917.787170	6038.507813	5489.485840	89.278427
691.795715	915.483826	5929.208496	5390.959961	89.264496
692.122803	915.409485	5836.404297	5309.003906	89.282646
692.449829	909.613953	5786.770020	5262.936035	89.259438
692.776855	913.997803	5738.324707	5204.756836	88.940048
693.103821	914.963684	5690.474121	5160.323730	88.898560
693.430664	917.267090	5606.511719	5106.677246	89.340836
693.757568	917.192688	5548.630371	5061.129883	89.474098
694.084351	914.666443	5486.066895	5007.706543	89.535805
694.411133	917.638489	5462.958984	4970.554688	89.166794
694.737854	911.768738	5411.913086	4938.679199	89.484024
695.064575	909.168152	5373.943848	4923.075684	89.901657
695.391174	914.889343	5333.598145	4891.942871	90.004875
695.717773	914.592224	5332.854980	4865.564941	89.423668
696.044250	919.198975	5329.362793	4853.305176	89.205437
696.370789	918.233093	5322.377441	4851.447266	89.307106
696.697205	919.050354	5324.234863	4863.633301	89.544106
697.023621	921.725281	5347.640625	4890.456543	89.670288
697.349915	920.016296	5398.092773	4940.833984	89.788940
697.676208	915.335205	5461.918457	5005.773926	89.967316
698.002380	913.180420	5545.286621	5088.621582	90.141312
698.328674	914.294983	5662.089844	5176.001465	89.761810
698.654724	919.496155	5774.807129	5264.793457	89.495758
698.980896	923.211243	5890.125488	5353.139648	89.188744
699.306946	923.359863	5983.895996	5433.906738	89.131798
699.632935	920.833557	6064.439941	5513.187500	89.282761
699.958862	914.592102	6127.522949	5572.407715	89.351189
700.284729	909.019470	6158.878418	5594.771973	89.254829
700.610596	915.260925	6158.061035	5587.341797	89.114227
700.936340	915.855286	6092.302734	5522.326660	88.989052
701.262146	919.347473	5987.685059	5432.346191	89.042976
701.587830	916.301086	5843.611816	5303.505371	89.038513
701.913513	924.102966	5701.768066	5178.899902	89.055992
702.239075	918.976074	5542.760254	5039.359375	89.112793
702.564697	918.604492	5397.943848	4910.295410	89.113388
702.890137	919.867737	5259.369629	4771.274902	88.752289
703.215698	927.298035	5138.107422	4648.526855	88.373238
703.541016	922.394043	5026.728027	4551.413574	88.419205
703.866455	921.799561	4926.270508	4468.491211	88.568298
704.191711	924.920227	4851.150391	4431.934082	89.322678
704.517029	925.366028	4792.748047	4370.857422	89.091057
704.842163	923.508545	4746.605957	4331.477051	89.141556
705.167419	917.118469	4710.940918	4280.505371	88.654305
705.492493	921.873779	4681.962891	4222.920898	87.791725
705.817566	924.771667	4636.712402	4179.379395	87.679413
706.142578	932.350525	4596.068848	4148.320801	87.778862
706.467590	932.424805	4561.741699	4151.887207	88.707115
706.792480	920.536377	4559.734863	4146.611816	88.647964
707.117371	911.843018	4550.744629	4136.358398	88.612328
707.442200	914.146423	4549.927246	4136.803711	88.637283
707.766907	916.003906	4549.406738	4131.528320	88.498978
708.091675	912.437439	4558.323242	4123.206543	88.065544
708.416321	913.551941	4563.895996	4112.655762	87.638420
708.741028	917.712891	4579.425293	4113.175781	87.266899
709.065552	927.818054	4609.146484	4138.513184	87.215668
709.390137	927.669434	4610.929688	4150.698730	87.504791
709.714600	927.520813	4615.981934	4175.144043	88.048187
710.039063	920.907898	4615.313477	4189.187012	88.465630
710.363403	918.901794	4648.601074	4221.657715	88.552872
710.687744	915.483887	4688.204590	4252.864746	88.460854
711.012085	915.706726	4733.603516	4295.812012	88.533173
711.336304	916.747009	4773.727051	4344.034180	88.859344
711.660461	918.901794	4819.125488	4376.801270	88.659004
711.984619	923.062683	4848.846680	4392.256348	88.369446
712.308716	917.638611	4869.354492	4391.216309	87.900490
712.632751	915.706726	4870.246094	4394.114746	87.959877
712.956726	916.152588	4862.369629	4392.256836	88.086998
713.280701	915.409607	4860.289551	4387.203613	88.007599
713.604553	914.220703	4822.915527	4355.254395	88.035362
713.928467	916.152588	4790.147949	4319.291504	87.845718
714.252258	913.329102	4739.250488	4268.766113	87.702721
714.575989	916.078308	4682.334473	4217.348145	87.653885
714.899719	911.099915	4608.403320	4149.955566	87.600487
715.223267	920.759277	4542.051270	4104.779297	87.924973
715.546936	922.691223	4503.934082	4077.510010	88.092850
715.870422	917.341309	4481.345703	4056.854248	88.089478
716.193970	904.932800	4461.135254	4025.275391	87.743668
716.517395	903.075195	4426.212891	3991.096436	87.649750
716.840820	910.059753	4390.547852	3966.651123	87.820770
717.164124	913.254700	4348.492676	3945.623047	88.272438
717.487488	911.694336	4320.034668	3906.540283	87.868164
717.810730	907.236267	4272.480469	3880.237061	88.344284
718.133972	915.706787	4235.031738	3829.785156	87.791298
718.457092	924.920227	4189.559082	3793.599854	87.871269
718.780212	933.910828	4137.992676	3730.591064	87.284920
719.103210	931.681824	4071.640381	3672.114990	87.276093
719.426208	924.251465	4005.139404	3626.196045	87.700188
719.749207	919.124573	3964.941650	3580.796875	87.387794
720.072083	922.245361	3923.035156	3543.571045	87.354523
720.394958	915.558167	3880.385498	3502.852783	87.266281
720.717773	915.260925	3818.936768	3458.865967	87.599480
721.040527	915.260925	3786.689453	3428.921875	87.540436
721.363281	925.960449	3758.454346	3388.352783	86.933723
721.685913	927.818054	3734.083008	3356.625732	86.549477
722.008545	924.994568	3703.470459	3332.328369	86.642242
722.331055	921.576660	3681.699463	3307.734131	86.451134
722.653503	917.415710	3659.780273	3297.331787	86.783356
722.976013	921.651062	3638.306885	3279.721924	86.800499
723.298401	925.514709	3632.585693	3274.372314	86.767494
723.620789	926.703430	3625.824219	3267.165039	86.711998
723.943115	920.833496	3608.883057	3259.140381	86.988983
724.265381	916.895508	3581.168701	3247.846436	87.489189
724.587585	916.598328	3570.543213	3232.391357	87.258522
724.909790	905.824524	3569.205811	3227.264404	87.161377
725.231873	907.459167	3565.267578	3211.437744	86.687157
725.553894	912.660400	3578.270508	3216.787842	86.439026
725.875916	991.049622	3649.898193	3274.074951	85.865189
726.197937	994.839050	3661.786865	3286.557861	85.930397
726.519775	995.879333	3653.687744	3287.598389	86.225891
726.841675	923.805725	3600.784180	3242.050781	86.599319
727.163513	919.050293	3600.338135	3255.202148	87.127975
727.485291	911.991516	3608.140381	3269.691162	87.446938
727.806946	919.793396	3619.434326	3280.836670	87.457680
728.128662	914.592285	3645.885986	3291.387451	87.020859
728.450256	912.511780	3681.031250	3307.437256	86.505638
728.771790	907.830627	3701.687500	3319.994141	86.338120
729.093323	915.335205	3714.690186	3330.173584	86.264099
729.414795	923.136963	3723.903564	3348.080322	86.581413
729.736145	923.285645	3722.120361	3349.046631	86.670387
730.057495	919.421875	3726.355713	3360.117432	86.952370
730.378845	916.969910	3714.169922	3351.201172	87.023857
730.700134	917.192688	3708.300049	3339.015625	86.769249
731.021301	921.725281	3696.188721	3332.476807	86.890732
731.342468	920.685059	3699.309326	3331.139404	86.749924
731.663574	929.229797	3702.653076	3350.904053	87.317154
731.984680	928.412598	3710.083252	3367.844971	87.696663
732.305664	931.384583	3716.101807	3375.944092	87.784836
732.626648	926.257751	3737.129639	3376.241455	87.160988
732.947571	923.508545	3753.550781	3368.588135	86.397285
733.268433	920.982239	3755.111084	3365.393311	86.249115
733.589233	919.644775	3739.582031	3359.151611	86.509262
733.909973	918.901794	3727.321533	3353.653076	86.694710
734.230713	922.468262	3713.947266	3331.362305	86.294540
734.551331	916.524109	3691.210938	3309.071533	86.227654
734.871948	917.044189	3643.433838	3266.719482	86.182663
735.192505	910.579895	3594.096924	3229.344971	86.407692
735.513062	917.118469	3561.626709	3175.475342	85.397987
735.833435	917.861511	3517.936523	3134.534912	85.254211
736.153931	917.415710	3469.713867	3087.129639	85.010208
736.474304	914.963684	3399.944092	3052.058594	86.000473
736.794617	917.341370	3361.975342	3023.823486	86.167587
737.114807	921.799500	3347.931885	3005.544922	85.887543
737.434998	919.198914	3348.377930	2990.758789	85.278191
737.755188	914.666504	3343.994141	2982.437256	85.116997
738.075256	910.802734	3335.671875	2977.830078	85.242844
738.395325	912.734680	3334.334717	2981.619873	85.434639
738.715271	909.985413	3351.349854	2990.313232	85.211685
739.035278	917.192688	3365.095703	3011.489258	85.554718
739.355164	918.678772	3383.522705	3029.544922	85.638939
739.675049	923.731445	3396.451904	3033.111328	85.306038
739.994873	917.341309	3410.940674	3029.396484	84.699059
740.314636	909.613831	3403.584961	3031.699463	85.088623
740.634277	908.127869	3377.875977	3021.148438	85.556114
740.953979	906.344543	3337.232422	3000.789795	86.159683
741.273499	911.099915	3312.266602	2971.514404	85.808891
741.593140	918.827454	3294.508545	2937.037842	84.952919
741.912598	923.582825	3263.301514	2907.168213	84.778801
742.232117	930.864502	3230.162109	2872.914795	84.462761
742.551453	928.189636	3189.964600	2838.809814	84.474373
742.870850	932.499207	3155.933594	2802.475586	84.103058
743.190063	929.007019	3112.318115	2772.977539	84.457527
743.509338	920.610657	3074.944092	2760.048828	85.383171
743.828552	915.558167	3041.061768	2739.838623	85.828156
744.147705	904.858582	3018.919678	2716.953369	85.716293
744.466797	908.870850	2992.393799	2694.142334	85.685234
744.785828	912.734558	2986.375000	2680.619141	85.255119
745.104858	925.886230	2964.827148	2650.452148	84.581459
745.423706	922.765442	2934.734375	2623.183350	84.515121
745.742615	919.867676	2903.304443	2599.406250	84.678200
746.061401	921.428040	2879.899170	2606.985107	86.064941
746.380249	925.068848	2869.496826	2609.437256	86.625397
746.698975	928.635437	2859.911377	2603.716064	86.734398
747.017639	928.115295	2860.803467	2584.620117	85.709885
747.336304	928.189514	2852.555664	2565.449951	85.080505
747.654907	920.090576	2838.066650	2554.007080	85.189621
747.973389	916.746887	2823.726318	2544.942139	85.380852
748.291931	917.564270	2815.924561	2547.245850	85.846802
748.610352	921.873840	2828.630127	2550.366455	85.406441
748.928711	929.452698	2835.020264	2556.162109	85.366135
749.247070	926.852112	2842.004883	2552.149658	84.865166
749.565308	927.892395	2836.729492	2549.920654	84.974686
749.883545	917.564270	2832.568359	2536.397461	84.534187
750.201782	917.341492	2823.949219	2532.013916	84.688232
750.519836	915.260925	2823.726318	2527.481445	84.477325
750.837952	920.462097	2822.537354	2519.753906	84.081413
751.155884	917.044189	2818.896729	2502.070068	83.341156
751.473877	920.759277	2794.971436	2482.899902	83.349190
751.791809	924.325867	2769.114014	2468.930908	83.728043
752.109619	929.675598	2752.024414	2459.568604	83.951714
752.427490	924.623047	2752.024170	2452.435547	83.605751
752.745300	915.409485	2755.516357	2460.906006	83.989502
753.062988	919.793396	2742.141846	2459.048584	84.465469
753.380615	918.753113	2723.046143	2455.630615	85.178932
753.698303	924.325867	2705.956299	2439.804443	85.061333
754.015808	917.267090	2715.690186	2438.392334	84.581055
754.333374	916.152588	2728.469971	2432.374023	83.662025
754.650757	915.855286	2722.080322	2430.516357	83.857826
754.968262	921.205078	2708.556885	2421.302979	83.928520
755.285583	925.068848	2697.114258	2409.563232	83.772934
755.602905	915.558105	2695.925537	2401.686768	83.473145
755.920105	910.282532	2682.328369	2396.782959	83.886116
756.237305	914.517883	2676.235596	2404.213135	84.559250
756.554443	915.706726	2661.672119	2403.990479	85.241310
756.871582	918.976013	2654.316162	2402.949951	85.514870
757.188599	910.951355	2640.570068	2386.974854	85.338081
757.505615	921.948181	2636.632080	2386.974854	85.440041
757.822510	924.474548	2660.334717	2385.340332	84.158035
758.139465	927.075012	2671.628662	2397.005859	84.258278
758.456238	925.589050	2697.337158	2415.507080	84.093109
758.773010	918.158752	2700.606689	2427.692871	84.688820
759.089783	916.895569	2711.974854	2439.284180	84.808990
759.406433	911.174255	2707.071045	2426.652588	84.385605
759.723145	916.969910	2721.782959	2442.107422	84.503906
760.039673	922.245361	2747.045898	2450.577881	83.753403
760.356201	919.942078	2773.274658	2476.732666	83.999527
760.672668	917.341370	2767.999023	2472.645752	84.040634
760.989136	916.449768	2748.680420	2474.429199	85.031837
761.305481	919.793396	2736.420654	2454.590332	84.486069
761.621826	923.434265	2748.085938	2460.088867	84.216324
761.938049	926.257629	2760.940674	2464.918457	83.865211
762.254333	925.886169	2782.190674	2483.717041	83.921082
762.570496	919.644714	2805.744873	2499.097656	83.741730
762.886597	913.254700	2856.939453	2537.809326	83.581177
763.202637	913.329102	2924.257813	2592.644775	83.509460
763.518677	922.616943	3018.622314	2681.882568	83.934212
763.834656	923.879944	3127.178711	2788.655518	84.635620
764.150574	918.530212	3277.270264	2920.394287	84.870056
764.466370	916.746887	3415.027344	3030.585205	84.611732
764.782288	918.678772	3513.478516	3112.392334	84.542694
765.097961	930.567200	3557.539795	3153.407471	84.616043
765.413696	925.440369	3548.549072	3133.122803	84.162827
765.729309	918.233093	3500.252686	3072.566162	83.435966
766.044861	919.793396	3383.968750	2959.105713	82.758408
766.360474	921.799622	3235.437744	2845.422607	83.142776
766.675903	926.703613	3086.832275	2718.142334	82.932037
766.991394	930.195801	2953.087158	2608.694336	82.975220
767.306763	933.613708	2848.765869	2521.239990	82.898178
767.622131	932.722107	2751.355469	2447.085693	83.269318
767.937378	924.028625	2670.662598	2392.696289	84.085602
768.252625	917.267090	2613.301025	2343.582275	84.097092
768.567810	916.449707	2556.533936	2299.594971	84.333794
768.882996	923.359863	2515.593018	2255.905029	83.690331
769.197998	928.040955	2466.479248	2216.375977	83.743042
769.513062	934.579590	2434.528564	2185.688965	83.410126
769.828064	926.109131	2385.191650	2156.339600	84.315346
770.142944	927.892395	2356.139404	2128.624268	84.070320
770.457825	919.719055	2327.086914	2108.934326	84.499252
770.772705	920.833679	2306.653564	2082.185303	83.802490
771.087402	917.861511	2288.077881	2058.408447	83.238457
771.402100	925.514648	2266.158691	2026.309570	82.109413
771.716736	921.873840	2248.771973	2016.724487	82.512024
772.031372	922.914063	2220.462646	2004.984497	83.393440
772.345947	919.496155	2200.252197	2004.167358	84.689903
772.660461	923.359863	2197.502930	1989.083984	83.642426
772.974854	920.090576	2182.568115	1966.792969	82.908592
773.289246	915.558105	2162.060547	1947.548462	82.790878
773.603638	911.174255	2144.079346	1922.434204	82.022537
773.917908	917.489990	2126.023682	1917.307251	82.729782
774.232178	925.886230	2120.005127	1914.038086	82.751549
774.546265	931.384583	2099.646484	1911.734741	83.915268
774.860474	923.805847	2096.897217	1897.542847	83.006073
775.174561	917.564392	2085.900146	1880.824707	82.447220
775.488586	911.248535	2074.754883	1870.942383	82.482903
775.802551	914.369202	2047.040039	1855.338989	83.075302
776.116516	910.877136	2030.173340	1833.048218	82.388481
776.430359	910.654114	2019.399414	1822.051392	82.200775
776.744202	908.127869	2020.216675	1819.896484	81.987030
777.057922	913.997742	2008.625366	1814.100952	82.229164
777.371704	919.719055	1998.668945	1806.299194	82.170647
777.685303	921.948181	1987.003418	1798.645996	82.314781
777.998962	923.211243	1975.635132	1796.862671	83.013268
778.312500	919.793274	1967.090454	1790.249634	83.114555
778.626038	918.307312	1970.656860	1789.803833	82.814354
778.939453	914.666504	1976.898071	1790.472656	82.449646
779.252869	914.889404	1974.223267	1793.296265	82.920685
779.566223	916.078186	1959.362793	1783.859741	83.177834
779.879578	922.691162	1954.013062	1783.934082	83.508644
780.192749	924.474426	1945.468140	1776.355103	83.436424
780.505920	926.331970	1943.610474	1779.624512	83.879936
780.819031	920.239075	1932.316406	1773.605957	84.318344
781.132141	930.567200	1943.833374	1776.949585	83.530113
781.445190	932.053284	1934.322754	1766.026978	83.208527
781.758118	939.706543	1933.505371	1766.547241	83.200005
782.071045	932.350586	1918.199097	1759.414063	83.893570
782.383911	925.737610	1919.462280	1755.550415	83.505302
782.696838	923.880066	1905.939087	1739.129517	83.014305
783.009583	926.183411	1897.542969	1719.662109	81.687431
783.322266	930.641602	1872.057007	1710.968750	82.888718
783.634888	923.731445	1854.893066	1697.891235	83.139145
783.947510	923.508545	1832.230835	1688.306274	84.161873
784.260132	924.251526	1829.481567	1673.371460	82.754646
784.572571	923.359924	1820.342407	1670.919556	83.341606
784.885010	914.369324	1817.221680	1666.907227	83.351158
785.197449	911.248596	1807.042114	1662.003296	83.808899
785.509766	917.415771	1805.704712	1649.223267	82.383949
785.822083	922.022461	1793.667847	1645.805298	83.036385
786.134277	925.068848	1789.358276	1640.678589	82.797462
786.446533	923.954285	1786.832031	1638.003540	82.752075
786.758606	918.604492	1778.658569	1639.043579	83.766716
787.070740	915.632507	1783.711060	1655.539063	85.234978
787.382690	911.025635	1791.512817	1648.554565	83.763733
787.694641	914.740723	1813.877930	1650.189331	81.794922
788.006653	919.570496	1825.469238	1641.792969	79.724419
788.318481	924.771667	1841.592896	1667.798828	81.043846
788.630310	925.960449	1856.527710	1684.665649	81.531471
788.942017	922.914063	1872.948608	1704.355835	82.254036
789.253784	922.022461	1888.998047	1722.188477	82.749352
789.565430	923.954346	1900.292114	1726.869507	82.237434
789.877014	926.629211	1901.852417	1727.463989	82.118103
790.188538	926.703552	1891.375610	1713.643555	81.575912
790.500061	924.028625	1871.685547	1693.433228	81.190208
790.811462	922.171143	1857.567993	1670.770874	80.030174
791.122925	916.226868	1833.345337	1660.294312	81.131004
791.434204	916.078308	1812.020508	1645.136597	81.373360
791.745483	916.524109	1783.116699	1640.529785	83.546257
792.056702	922.839844	1754.807251	1607.464966	82.289894
792.367920	930.047180	1742.770386	1608.282227	83.452156
792.678955	927.595215	1730.064575	1591.489868	82.731468
792.990112	926.703430	1718.101929	1596.616699	84.649300
793.301086	914.220520	1700.863647	1583.762329	85.113792
793.612122	912.511658	1687.711914	1566.895874	84.414864
793.922974	914.666504	1693.210327	1555.973267	82.372597
794.233826	927.297913	1687.860352	1547.057007	81.486946
794.544556	934.876770	1688.380737	1550.772095	81.737503
794.855286	933.242188	1684.442749	1547.279907	81.740852
795.166016	929.675598	1681.396362	1541.930054	81.447060
795.476624	923.731445	1684.665649	1548.171509	82.062294
795.787292	927.372314	1683.253906	1554.858765	83.013855
796.097778	923.211243	1701.978149	1566.895874	82.654335
796.408264	927.892395	1716.244141	1576.852417	82.318588
796.718689	925.068848	1735.562988	1585.471558	81.481491
797.029053	919.198975	1745.148071	1595.502319	81.881966
797.339355	909.465332	1749.829102	1591.489868	81.158249
797.649658	909.242371	1751.835327	1595.650879	81.463829
797.959839	912.437317	1744.999390	1587.849121	81.124496
798.270020	924.400146	1739.723999	1584.431274	80.953247
798.580078	924.697449	1726.869507	1581.087769	81.826622
798.890137	926.777832	1718.101929	1567.192993	80.929565
799.200195	922.171082	1695.811035	1558.276733	82.222443
799.510071	917.787109	1684.145508	1549.434692	82.421959
799.820007	919.421875	1665.866821	1538.066406	82.878792
800.129883	918.010071	1667.278687	1524.766113	80.979774
800.439575	921.873840	1653.161133	1511.614624	80.644203
800.749329	917.564270	1654.795898	1509.311157	80.266075
801.058960	917.192810	1642.907593	1500.023438	80.311249
801.368591	917.044250	1639.118042	1490.066772	79.357887
801.678162	922.394043	1630.573120	1495.119263	80.872940
801.987671	923.359863	1614.969604	1498.314453	83.132805
802.297119	915.260925	1608.876587	1489.843872	82.838806
802.606506	919.719055	1603.155396	1474.983398	81.245949
802.915894	923.211243	1610.882813	1467.330078	79.124809
803.225159	930.270020	1605.087280	1470.525024	80.059456
803.534424	926.406311	1593.273315	1465.918335	80.902489
803.843628	924.994568	1582.276489	1465.992676	82.308380
804.152771	929.155518	1584.356934	1460.122681	81.038773
804.461792	932.722107	1587.849243	1460.122681	80.503548
804.770874	931.310303	1587.849121	1460.048462	80.534180
805.079773	927.446594	1589.038086	1464.060913	81.109619
805.388733	925.589050	1588.220703	1472.011230	82.462433
805.697571	927.446533	1593.793457	1481.076172	83.084297
806.006470	926.629211	1596.393921	1485.757202	83.481255
806.315125	922.245422	1599.886230	1492.147095	84.100845
806.623901	913.403320	1601.743774	1488.654907	83.570793
806.932495	907.533447	1604.938599	1487.466187	83.155785
807.241150	912.883240	1608.728149	1493.633301	83.459702
807.549622	922.542542	1609.768433	1489.992554	82.571106
807.858154	924.325867	1605.161621	1483.007935	82.058273
808.166565	918.678894	1599.663208	1468.890503	80.796516
808.474915	920.462158	1590.003906	1461.460327	80.801262
808.783264	929.527039	1579.898804	1455.813110	80.920807
809.091492	932.053223	1570.165039	1444.742188	80.344688
809.399719	923.285583	1554.190063	1446.525391	82.934868
809.707825	912.957520	1541.261230	1440.209595	83.916756
810.015930	916.746887	1529.744507	1434.339722	84.436356
810.323975	920.090637	1535.688599	1414.575195	80.325890
810.632080	931.533203	1535.242798	1412.048828	79.593834
810.939880	930.418762	1537.694702	1406.327637	78.367813
811.247864	926.926514	1525.955078	1407.219238	80.178604
811.555664	918.084473	1520.456665	1395.182251	79.203156
811.863464	918.530273	1509.459839	1390.501343	79.869263
812.171143	920.090637	1513.769531	1387.529175	78.735916
812.478882	924.548828	1505.373169	1389.609497	80.069077
812.786438	914.815125	1504.778687	1385.448608	79.773315
813.094055	920.685059	1500.023315	1374.971802	78.414764
813.401489	923.508545	1502.475220	1373.783081	77.772102
813.708984	930.047180	1497.051147	1370.959473	77.761765
814.016357	926.332031	1480.258789	1377.275269	81.408463
814.323730	924.771667	1476.097778	1372.074097	81.132095
814.630981	924.994568	1467.404419	1372.519897	82.506859
814.938232	925.737610	1473.645874	1369.696411	81.027946
815.245361	921.873840	1473.200073	1372.668579	81.765518
815.552490	920.016296	1484.048218	1373.485840	80.397850
815.859619	924.474426	1484.048218	1381.956177	81.755394
816.166565	926.109070	1488.580688	1374.748901	79.762215
816.473572	924.474426	1494.450684	1370.439331	78.242714
816.780457	921.799500	1505.521851	1371.033813	76.960274
817.087341	920.833679	1501.806641	1382.996460	79.549789
817.394043	921.799500	1500.840698	1388.346313	80.572304
817.700806	920.907898	1499.577515	1382.179321	79.712395
818.007507	922.022461	1504.035767	1381.882202	79.011894
818.314209	921.353699	1513.249146	1392.433105	79.588280
818.620667	916.301086	1516.667114	1399.566040	80.495056
818.927246	917.118469	1523.428711	1405.881836	80.612755
819.233704	922.839783	1532.122070	1415.169556	80.804871
819.540161	924.548767	1549.954712	1444.519165	83.141266
819.846497	921.948181	1586.288696	1477.658203	83.648369
820.152832	916.672668	1614.821167	1513.769531	85.525764
820.458984	915.409485	1670.696777	1547.502808	83.689125
820.765259	916.078308	1734.522827	1589.558228	82.287788
821.071350	923.434265	1843.227539	1655.613281	79.602562
821.377502	923.731445	1996.439819	1784.379883	80.231354
821.683472	926.406250	2232.425049	1980.539063	80.713448
821.989441	915.483826	2570.279541	2261.105957	81.316513
822.295349	916.598328	2991.055908	2619.393799	82.083893
822.601196	917.341309	3471.274414	3028.727539	82.671944
822.907043	922.914063	3991.690674	3457.454346	82.591225
823.212769	923.211243	4509.431641	3835.134766	81.197563
823.518494	922.988342	4911.707031	4109.609375	79.890846
823.824097	923.879944	5092.856934	4215.639160	78.958443
824.129700	923.285583	5018.108887	4151.293457	78.831429
824.435242	920.239258	4818.977539	3978.613281	78.445229
824.740723	920.239258	4555.277344	3775.915283	78.559731
825.046082	923.508545	4298.857910	3548.103516	77.757729
825.351501	918.010071	3964.421875	3285.072266	77.700005
825.656799	914.666504	3600.338135	2999.080811	77.612404
825.962036	913.700623	3223.474854	2714.055420	77.945053
826.267212	919.050293	2918.164795	2478.664551	78.015251
826.572449	922.171082	2703.281494	2316.015869	78.257065
826.877502	921.502380	2602.527100	2239.261475	78.390228
827.182495	927.075012	2602.081299	2259.917236	79.572372
827.487488	927.818115	2650.675537	2305.390625	79.958588
827.792419	930.270020	2710.711670	2370.777100	80.907288
828.097290	920.982178	2779.144531	2418.627686	80.598206
828.402100	921.948059	2819.639648	2443.593506	80.184021
828.706848	922.691162	2819.268311	2414.392822	78.652306
829.011597	924.102844	2728.990479	2344.548096	78.699928
829.316223	924.846008	2614.861572	2240.895752	77.872047
829.620789	919.719055	2482.751221	2152.846924	78.893318
829.925354	922.914063	2355.098877	2052.612549	78.879379
830.229797	916.152527	2218.902100	1943.982056	78.896950
830.534302	923.062683	2075.943604	1835.128540	79.111893
830.838562	927.743713	1938.409302	1728.281250	79.208946
831.142944	933.985168	1805.333130	1639.786743	81.001114
831.447144	931.756042	1704.950195	1564.072266	81.779747
831.751404	921.205078	1646.028198	1505.596069	80.625328
832.055542	920.982178	1618.090210	1465.695435	78.139000
832.359619	913.849121	1593.719116	1441.398438	77.595619
832.663635	929.081238	1576.183594	1436.643188	78.436119
832.967651	927.223633	1582.573608	1449.423218	79.682549
833.271545	935.174072	1614.300903	1482.859375	80.645508
833.575439	922.691223	1682.064941	1530.041626	79.980438
833.879211	923.657166	1760.380005	1602.858398	81.173981
834.183044	920.090637	1856.304810	1674.337524	80.563499
834.486694	926.332031	1941.158569	1739.426758	80.121544
834.790344	935.174072	2011.746094	1793.370483	79.715652
835.093933	934.653870	2046.445679	1822.720093	79.877029
835.397522	932.647766	2057.219482	1827.549805	79.577141
835.700928	917.861511	2043.845093	1806.893555	78.956032
836.004395	916.821289	2016.947388	1778.286987	78.306084
836.307739	913.031921	1971.176880	1735.637207	77.740318
836.611023	920.387878	1911.437500	1686.003052	77.252960
836.914307	921.948181	1844.490723	1614.598267	75.080559
837.217529	922.988342	1754.881714	1563.552246	77.000725
837.520691	919.867676	1667.947388	1499.503296	77.483139
837.823730	919.793396	1574.548828	1447.714233	80.628708
838.126831	924.548767	1509.905640	1393.175903	80.058365
838.429749	917.415710	1463.614868	1355.875977	80.274796
838.732727	916.226868	1433.745239	1325.114746	79.009346
839.035522	913.180420	1418.215942	1298.514404	76.298393
839.338379	919.421814	1402.092163	1285.362793	75.815926
839.641113	914.294922	1386.117188	1281.870483	77.905518
839.943848	911.620117	1387.083130	1289.078003	79.387436
840.246460	908.870911	1391.987183	1291.084106	79.114120
840.549072	916.969910	1411.677368	1305.498901	78.537117
840.851563	925.811829	1412.791992	1314.043579	79.722290
841.154053	933.985168	1429.287109	1327.269531	79.402954
841.456482	933.836609	1434.191040	1322.959961	77.769539
841.758850	930.121521	1436.494629	1311.740234	75.363144
842.061157	922.765442	1417.101563	1299.034546	76.116043
842.363403	921.353699	1404.247070	1299.703247	78.350540
842.665588	916.821289	1383.888306	1296.582397	81.307625
842.967712	922.616882	1376.755249	1285.214111	79.842896
843.269775	923.062683	1356.619141	1258.836670	77.446426
843.571777	928.189514	1338.786377	1237.437378	75.316666
843.873840	923.211365	1302.898071	1220.793579	78.375725
844.175659	920.164856	1276.372192	1200.806274	78.785973
844.477600	920.982239	1258.762329	1194.490601	80.972313
844.779297	923.582825	1249.697388	1177.029297	77.717003
845.081116	926.926453	1244.347656	1172.125366	77.247177
845.382751	923.880066	1235.654297	1151.543579	73.021912
845.684387	918.604553	1227.778198	1150.131836	74.885841
845.985962	920.313477	1212.248901	1144.559082	76.813431
846.287537	918.976074	1206.230591	1147.011108	79.384315
846.588989	922.022461	1200.212036	1145.302246	80.261734
846.890381	915.038086	1198.280029	1133.413696	77.098610
847.191711	913.106140	1192.558716	1129.921509	77.585747
847.493042	916.821289	1192.707397	1119.444702	73.444588
847.794250	927.149353	1189.289429	1121.822388	74.262978
848.095459	930.195801	1184.088257	1120.559204	74.977966
848.396606	925.811951	1181.784790	1117.810059	75.007217
848.697693	922.319763	1172.051147	1121.748169	79.857162
848.998657	919.421875	1166.329834	1118.701782	80.710197
849.299622	921.205261	1160.534180	1125.760620	85.470390
849.600464	925.068848	1172.868530	1120.559448	78.890579
849.901367	928.858398	1172.125366	1116.992798	77.336601
850.202087	928.783997	1166.701416	1107.853516	75.265411
850.502808	923.508484	1166.552734	1100.869141	72.974632
850.803467	923.211243	1168.113159	1102.578125	73.240295
851.104065	928.783997	1170.044922	1104.510010	72.836502
851.404663	934.059570	1163.060547	1104.881470	74.594398
851.705139	932.796387	1161.574585	1100.943481	73.497864
852.005615	927.149353	1158.453735	1092.770142	71.602959
852.306030	919.198914	1154.664429	1092.770142	73.714073
852.606384	918.084412	1154.069824	1088.237671	72.103294
852.906616	917.787170	1152.286499	1096.782593	76.330887
853.206909	917.044189	1156.298950	1093.438965	73.726753
853.506958	916.375488	1157.636353	1100.348999	76.255013
853.807129	916.003967	1155.704590	1093.364502	73.992523
854.107178	918.010071	1149.537354	1100.794800	78.947380
854.407166	917.415710	1144.410522	1099.531738	80.229156
854.707092	917.341370	1145.376465	1104.658569	82.144020
855.007019	916.969910	1148.125610	1100.051880	79.202881
855.306763	916.598389	1151.617798	1089.649414	73.632652
855.606567	919.570496	1147.754150	1084.151001	72.126335
855.906250	921.725281	1153.326782	1081.030396	68.784149
856.205933	932.573486	1144.261841	1097.302612	77.816811
856.505493	933.985291	1141.289673	1096.039429	78.172073
856.805054	930.492981	1131.853394	1106.887573	87.601425
857.104492	922.839844	1136.980225	1097.599731	81.609962
857.403931	920.239258	1140.621094	1099.383057	81.287918
857.703308	921.353760	1140.546753	1088.683472	76.338989
858.002563	926.332031	1142.330078	1086.603027	74.200203
858.301819	924.400146	1135.940063	1087.866211	77.274338
858.601013	926.480652	1133.042236	1091.729980	80.000031
858.900208	919.050354	1130.813110	1094.850586	83.017540
859.199219	921.353699	1131.927612	1095.147827	82.533554
859.498291	922.765442	1132.373535	1094.553345	81.956711
859.797302	922.914063	1131.110229	1094.924927	82.619614
860.096191	921.873840	1144.559082	1092.027222	76.409813
860.395020	913.700500	1145.896606	1095.296509	78.208031
860.693787	916.152588	1135.494141	1086.082886	77.472916
860.992554	919.496277	1122.416870	1080.361572	79.274994
861.291260	924.771667	1120.559326	1074.491699	76.470619
861.589844	924.771667	1128.881226	1073.154175	72.697479
861.888428	924.251526	1135.642700	1081.699097	74.481621
862.186890	924.102966	1136.980225	1083.705200	74.973831
862.485413	921.502380	1137.203247	1089.426514	77.850464
862.783813	922.245361	1133.265015	1085.637085	77.429626
863.082153	920.313477	1137.723267	1085.785767	76.110779
863.380371	924.994568	1139.060669	1088.832153	76.535980
863.678589	919.273254	1146.119507	1088.014771	74.385849
863.976746	922.988342	1144.187622	1087.940430	74.571709
864.274902	915.855408	1139.283569	1085.414185	75.889618
864.572937	914.666504	1138.317627	1083.630981	75.548233
864.870911	913.997803	1134.231079	1083.482300	76.956810
865.168884	915.706726	1137.351685	1086.751587	77.170654
865.466736	918.901672	1132.522095	1093.290161	81.634743
865.764587	913.626160	1143.147339	1090.615356	77.112358
866.062317	908.870789	1147.605591	1096.782471	78.711472
866.360107	911.025635	1149.834595	1094.256226	76.726852
866.657715	913.700500	1138.540527	1095.370728	80.799774
866.955322	911.248535	1137.351685	1085.934204	77.259285
867.252808	907.607727	1140.992554	1081.178833	74.371201
867.550293	908.127869	1147.234009	1079.990112	71.876968
867.847717	915.706726	1147.531372	1079.469849	70.640945
868.145081	916.152527	1133.413696	1080.807373	75.786598
868.442383	912.808899	1129.252808	1074.194458	74.562302
868.739624	912.437317	1128.138306	1083.556641	79.331726
869.036804	920.982178	1133.413696	1082.219116	75.900665
869.333984	931.830383	1137.574585	1094.553345	79.089935
869.631042	934.505310	1133.190796	1085.042603	75.766624
869.928101	929.081238	1137.648926	1090.764038	77.520538
870.224976	920.759277	1138.837769	1086.380127	75.945526
870.521851	921.205078	1147.308228	1095.816650	77.226509
870.818726	920.090576	1143.296021	1094.404785	78.095856
871.115479	921.576660	1135.791382	1095.816528	81.338882
871.412231	920.090576	1125.166138	1095.444946	85.507202
871.708862	920.759277	1125.166138	1094.404785	84.950920
872.005493	922.393982	1134.973999	1090.986816	79.307938
872.302063	929.527039	1146.268066	1091.729858	74.837158
872.598572	926.554871	1153.103882	1097.228149	75.336136
872.895020	916.523987	1156.298950	1103.395386	77.936157
873.191406	914.963684	1160.905640	1099.085815	74.864059
873.487671	917.192688	1162.763306	1097.079590	73.252617
873.783997	924.920227	1157.710693	1098.491333	74.561089
874.080200	923.136963	1153.029663	1097.599731	75.888779
874.376343	919.198914	1153.698364	1100.720459	77.408089
874.672424	922.542542	1162.688965	1109.116577	77.691780
874.968445	923.136963	1162.986206	1108.447876	77.261414
875.264465	925.886230	1173.611450	1108.076538	73.545319
875.560364	919.496155	1180.818848	1103.321167	70.344070
875.856201	911.471497	1182.082031	1104.064209	71.169701
876.152039	907.682068	1178.812866	1097.302612	69.936928
876.447754	909.762512	1170.936646	1096.336792	71.436737
876.743469	915.855286	1173.165771	1095.222046	69.708298
877.039063	918.604492	1166.924316	1101.463501	73.638504
877.334595	923.359863	1164.992310	1094.850586	70.971725
877.630127	928.783997	1166.626953	1105.475952	74.289337
877.925537	935.991394	1171.902466	1113.351929	75.181099
878.221008	940.226563	1176.657837	1123.531494	77.529900
878.516296	933.465088	1180.224487	1120.336426	75.730179
878.811646	934.505371	1193.375977	1127.989624	74.741684
879.106812	929.155518	1205.264404	1131.704712	73.358452
879.401978	926.183411	1217.227173	1136.162964	72.147072
879.697083	925.143250	1221.685425	1138.466431	71.936874
879.992126	922.468262	1239.592285	1150.949219	72.047821
880.287109	916.821289	1271.468262	1181.413208	74.607124
880.582031	906.938965	1335.219849	1228.223999	75.017365
880.876892	910.877014	1429.435669	1312.483276	77.446640
881.171753	919.570496	1593.050293	1439.392212	77.184456
881.466492	927.149353	1823.314453	1612.591919	76.486191
881.761230	929.527039	2116.141602	1822.868652	75.284904
882.055786	925.886230	2437.054932	2063.906494	75.307297
882.350403	922.988464	2727.429932	2288.152100	75.655746
882.644958	918.381653	2975.155273	2479.110107	75.882362
882.939453	917.489990	3112.763916	2579.047363	75.687927
883.233826	917.415710	3159.351563	2607.208252	75.372032
883.528137	918.307373	3109.494385	2564.335449	75.120384
883.822449	917.118469	3049.011963	2511.431885	74.783913
884.116577	911.397217	2969.508057	2448.646240	74.692238
884.410828	911.843018	2856.493408	2369.142334	74.938889
884.704956	921.353699	2671.108643	2244.833740	75.638023
884.999023	926.332031	2431.407959	2078.544189	76.555084
885.292969	917.935791	2188.958252	1888.552246	76.365013
885.586914	907.013367	1955.722046	1716.392944	77.178680
885.880798	904.487061	1785.717407	1574.326050	76.011795
886.174622	912.140198	1655.316040	1481.001831	76.544685
886.468384	923.508545	1566.301392	1410.414429	75.748489
886.762085	927.446594	1494.302124	1356.396118	75.671753
887.055664	926.406433	1437.088867	1308.619507	74.843590
887.349304	924.028625	1396.519653	1271.765381	73.596481
887.642822	917.341370	1366.947266	1252.149536	74.467033
887.936340	913.774902	1344.210571	1244.719116	76.885872
888.229736	906.493164	1324.520264	1225.994995	76.430893
888.523071	918.976013	1302.378052	1212.100342	76.453514
888.816284	922.468262	1278.675415	1195.010742	76.512352
889.109619	931.087402	1261.511597	1181.413208	75.758919
889.402710	929.675598	1240.483887	1163.952148	75.376549
889.695862	928.783997	1222.056763	1145.079224	73.752235
889.988892	921.205139	1214.775269	1135.271362	72.918259
890.281921	910.356934	1222.205444	1127.246582	69.549683
>>>>>End Processed Spectral Data<<<<<
