Jaz Data File
++++++++++++++++++++++++++++++++++++
Date: Fri Jun 04 16:45:13 2021
User: jaz
Dark Spectrum Present: Yes
Reference Spectrum Present: Yes
Processed Spectrum Present: Yes
Spectrometers: JAZA3586
Integration Time (usec): 60600 (JAZA3586)
Spectra Averaged: 10 (JAZA3586)
Boxcar Smoothing: 1 (JAZA3586)
Correct for Electrical Dark: No (JAZA3586)
Strobe/Lamp Enabled: Yes (JAZA3586)
Correct for Detector Non-linearity: No (JAZA3586)
Correct for Stray Light: No (JAZA3586)
Number of Pixels in Processed Spectrum: 2048
>>>>>Begin Processed Spectral Data<<<<<
W	D	R	S	P
191.335022	0.000000	0.000000	0.000000	0.000000
191.713211	232.493210	234.870911	234.202194	71.875504
192.091385	473.456940	475.314545	468.107178	-287.992432
192.469528	711.374268	717.838623	704.464172	-106.895348
192.847641	721.033630	726.829285	709.813965	-193.587555
193.225739	724.451599	734.110840	717.169922	-75.385605
193.603790	736.042725	744.959045	725.194519	-121.666840
193.981842	747.039551	755.361511	732.327637	-176.784241
194.359863	754.246887	760.488464	738.197510	-257.136566
194.737854	757.367676	759.893982	748.377014	-355.881714
195.115829	756.401672	756.401672	750.680359	0.000000
195.493774	757.367676	752.983826	753.726868	83.050468
195.871704	756.773254	751.646301	752.240723	88.405952
196.249603	758.556458	750.754700	757.516296	13.332395
196.627457	758.259277	756.847473	759.373840	-78.946007
197.005310	753.949707	758.556458	751.869202	-45.162102
197.383133	750.085999	758.927979	747.485352	-29.412495
197.760910	746.222351	754.321228	747.782532	19.264160
198.138687	744.290344	752.092224	751.720642	95.237274
198.516449	742.952942	748.822754	750.011658	120.254547
198.894180	746.742371	747.782532	750.085938	321.447021
199.271866	757.590515	744.067444	751.126160	47.802422
199.649536	756.030212	737.231689	753.949707	11.067388
200.027191	751.794922	740.723877	751.794922	-0.000000
200.404816	744.736145	748.005554	751.869324	218.179443
200.782410	741.838379	768.958801	755.955872	52.054840
201.159988	745.404846	780.104309	755.287170	28.479761
201.537537	744.290344	791.249695	762.717468	39.240585
201.915070	754.989929	783.968018	765.095154	34.871952
202.292557	752.240723	779.212646	767.249939	55.647556
202.670029	753.355286	767.472839	761.305664	56.315552
203.047485	744.290283	769.850525	760.562683	63.662933
203.424911	742.729980	773.788574	765.763855	74.162643
203.802292	742.729980	777.800964	769.553223	76.482719
204.179688	738.940613	783.447937	767.992920	65.275337
204.557037	741.318298	781.070251	767.844299	66.728798
204.934357	736.488525	786.642883	767.547119	61.926014
205.311661	740.723816	781.887512	770.221985	71.660645
205.688934	734.853821	779.064148	765.986755	70.420052
206.066177	730.098572	777.503723	759.448181	61.912277
206.443390	726.309082	770.890808	760.859863	77.499870
206.820587	731.807556	764.352112	759.968262	86.529701
207.197769	741.021057	764.797913	764.649353	99.375191
207.574921	734.853943	775.200256	757.962097	57.274513
207.952042	723.931396	775.571777	759.150879	68.201439
208.329147	715.832458	773.862793	761.751526	79.129417
208.706223	748.822815	793.255859	773.342712	55.183926
209.083267	752.389343	799.794495	772.228210	41.849602
209.460297	758.407898	802.766602	764.723633	14.237871
209.837280	725.789001	784.711121	754.321228	48.423626
210.214264	728.909729	778.023743	745.330566	33.434116
210.591217	730.990234	770.296326	749.565857	47.258892
210.968124	737.974609	769.701843	742.952820	15.690654
211.345016	739.906494	774.234314	759.076599	55.844227
211.721893	734.333801	774.308655	751.943542	44.052048
212.098724	731.658875	761.825867	757.813477	86.699402
212.475555	731.213074	764.352112	750.085938	56.950546
212.852356	736.191406	768.215820	760.934143	77.262108
213.229126	740.872375	778.915466	759.076660	47.851749
213.605865	742.358459	775.125977	760.562683	55.555702
213.982590	733.888000	766.581238	757.590576	72.499931
214.359283	740.055176	761.231384	760.042542	94.385948
214.735931	732.476257	761.825745	757.590576	85.569870
215.112579	736.117004	777.355042	754.024109	43.423756
215.489197	729.132629	779.361267	750.308899	42.159752
215.865799	731.436035	777.726563	753.280945	47.190884
216.242355	737.454529	769.553284	750.531738	40.740551
216.618896	737.900330	765.020813	746.668030	32.328701
216.995407	740.055115	762.420227	747.262451	32.225800
217.371902	736.488586	764.426453	751.497742	53.723343
217.748367	732.104736	764.129150	756.030212	74.710114
218.124802	728.909668	767.695618	747.262451	47.318123
218.501236	728.612488	756.698914	748.154114	69.576767
218.877609	733.070618	759.150879	752.686584	75.213844
219.253983	733.442139	757.739197	756.253113	93.883690
219.630295	727.943665	767.770020	752.463684	61.567322
220.006592	731.138733	776.612000	745.181946	30.882349
220.382889	728.835266	775.348938	753.281006	52.556030
220.759140	729.578369	773.045593	757.590515	64.444298
221.135391	728.389587	763.386230	766.804138	109.766388
221.511581	737.454529	770.147705	757.070496	60.000187
221.887772	744.959167	774.011475	761.380066	56.521839
222.263931	743.547363	778.915466	764.649231	59.663555
222.640060	736.414307	778.023865	766.878418	73.214218
223.016159	731.733215	769.627502	766.506836	91.764809
223.392212	731.807434	767.770020	763.311829	87.603256
223.768265	734.556641	767.324219	772.302551	115.192863
224.144302	737.305908	770.221985	775.051758	114.672989
224.520294	737.528809	770.073425	769.107422	97.031754
224.896286	743.027161	768.810303	768.364441	98.270721
225.272217	737.603088	772.599792	760.042480	64.118584
225.648148	733.962219	774.160156	764.649231	76.339767
226.024048	726.011902	778.915466	761.305664	66.713394
226.399902	726.309082	781.887512	762.345886	64.839554
226.775772	725.045959	781.738953	753.949707	50.982929
227.151581	731.956055	776.834961	757.887756	57.781490
227.527374	728.538147	766.655518	762.123047	88.109169
227.903137	737.900391	761.825867	762.791748	104.037041
228.278870	741.912781	762.568848	764.797913	110.791336
228.654572	748.005554	771.187988	757.293396	40.064137
229.030273	743.844543	774.903076	762.197266	59.090755
229.405930	731.064453	774.085754	754.172607	53.713284
229.781555	726.829163	767.844299	753.801208	65.761200
230.157181	719.696106	767.027039	754.024109	72.527626
230.532761	719.250305	764.352051	751.720520	71.993256
230.908325	715.980957	772.079590	753.058044	66.092674
231.283859	726.234802	769.107422	755.212891	67.591133
231.659332	731.436035	769.776184	756.104492	64.341057
232.034821	740.055115	758.110657	756.030212	88.477531
232.410263	727.423645	765.763855	748.748535	55.620171
232.785690	735.151123	767.695740	747.708252	38.584351
233.161087	734.482422	775.571777	753.726807	46.835449
233.536469	742.730042	771.856689	761.157043	63.265095
233.911804	741.021057	777.577942	766.729736	70.325134
234.287140	733.442200	772.896912	765.838196	82.109322
234.662430	735.076843	772.228210	756.921875	58.800076
235.037704	734.036560	764.500732	753.875427	65.121964
235.412933	738.791992	771.485168	749.714355	33.408695
235.788162	732.179016	772.822693	760.562561	69.835083
236.163345	733.293640	773.342773	763.311829	74.953407
236.538513	734.854004	771.410889	771.633789	100.609734
236.913635	732.773438	770.221985	764.352112	84.325500
237.288742	726.160461	775.200378	768.364441	86.060463
237.663834	724.228699	776.537781	756.476013	61.647640
238.038879	732.847717	775.348877	758.556458	60.489502
238.413910	735.671204	776.760559	754.098328	44.846466
238.788910	740.426575	775.125977	762.940247	64.882019
239.163879	737.603027	783.224915	760.488281	50.162884
239.538834	730.247131	780.550049	755.138489	49.482929
239.913757	728.315247	779.435547	747.336731	37.209259
240.288651	731.138733	774.903015	752.092102	47.877785
240.663528	736.562805	773.639954	758.407898	58.917942
241.038361	731.138733	774.085754	763.088867	74.394295
241.413177	721.850891	773.416992	759.893860	73.775154
241.787979	715.906738	774.234375	757.739075	71.719582
242.162735	718.210144	772.302429	762.717468	82.280357
242.537476	720.810730	775.200195	754.841309	62.568329
242.912170	718.210144	773.491272	753.132324	63.171974
243.286865	722.965515	769.999023	741.987000	40.442410
243.661514	728.761047	764.797852	751.794922	63.917641
244.036148	734.631042	769.627625	755.658691	60.084866
244.410751	734.928223	773.565674	758.333557	60.576809
244.785339	725.120300	773.342773	762.568848	77.657875
245.159882	729.949951	773.491394	763.386230	76.791847
245.534378	730.990173	783.522217	769.924805	74.115967
245.908890	736.191406	790.952454	759.150879	41.926651
246.283356	727.200684	784.265198	756.178894	50.781490
246.657791	727.423645	782.184753	744.216064	30.664864
247.032196	734.333801	780.327209	755.955872	47.011238
247.406586	737.305969	782.704834	753.355286	35.351803
247.780960	731.361633	779.138367	759.076599	58.009335
248.155289	726.754883	781.887512	751.126282	44.205036
248.529602	721.330811	786.271423	754.098389	50.457760
248.903870	726.309082	782.779114	752.983826	47.236992
249.278122	724.971619	783.968018	758.928040	57.556770
249.652344	734.482361	783.893738	757.516296	46.616665
250.026550	730.618652	788.351807	754.618469	41.570251
250.400711	739.757874	787.014404	757.219055	36.949776
250.774857	740.426575	783.819336	758.110657	40.753529
251.148987	740.055115	782.556213	770.073425	70.629494
251.523071	732.030334	775.274597	768.661621	84.707855
251.897125	732.327637	788.500488	773.119812	72.619019
252.271164	729.801331	791.918396	766.135437	58.492954
252.645187	728.240967	800.314636	762.494568	47.525818
253.019165	721.405090	795.187744	760.785645	53.373730
253.393112	727.572266	799.348633	764.352112	51.242279
253.767044	731.361633	795.930725	764.872253	51.898857
254.140930	729.578430	793.627380	757.739075	43.967381
254.514801	727.126465	785.899902	758.482239	53.350246
254.888657	720.736389	788.426208	750.606140	44.127392
255.262466	724.674500	781.738953	753.726746	50.911285
255.636276	726.160461	787.608887	752.017761	42.079678
256.010010	731.956055	795.113464	757.962097	41.176552
256.383759	737.157227	798.605652	760.116882	37.364109
256.757446	739.609192	800.166016	758.927979	31.901915
257.131134	737.305908	796.153625	763.609070	44.696995
257.504791	735.596924	797.193848	760.414063	40.289574
257.878418	731.658875	797.268250	768.661621	56.398567
258.252014	727.795166	799.794495	771.708008	60.990627
258.625580	721.107910	799.794495	778.989746	73.559982
258.999115	723.782776	799.868835	765.318054	54.589867
259.372650	730.618652	795.039124	757.590515	41.868465
259.746124	735.522644	808.933777	754.098328	25.303633
260.119598	729.801331	816.215393	762.494446	37.833096
260.493042	733.590759	827.658020	769.479004	38.151684
260.866425	734.705322	827.137878	768.884583	36.977512
261.239838	731.510315	824.314270	768.067200	39.391518
261.613159	721.256531	819.707520	766.506836	45.962265
261.986511	723.114075	814.877930	764.500671	45.101196
262.359802	738.123230	817.181335	770.147705	40.507515
262.733063	738.271912	815.472351	771.039307	42.444572
263.106293	736.042786	811.682861	766.283936	39.980328
263.479523	731.510254	813.243347	765.169373	41.181751
263.852692	740.575195	809.528137	758.259216	25.646507
264.225861	737.454529	814.655090	760.562561	29.932467
264.598969	740.500977	809.008057	753.280945	18.654961
264.972076	731.584656	815.175232	755.584290	28.710932
265.345154	732.550476	817.404297	760.636902	33.099777
265.718201	727.274963	818.815918	758.110657	33.685135
266.091217	737.528809	825.949036	762.568848	28.319357
266.464203	741.095276	830.110046	762.048767	23.539343
266.837158	733.590759	832.339050	771.039368	37.923298
267.210114	723.559875	829.292664	758.407898	32.958576
267.583038	722.519714	821.342285	768.810242	46.842060
267.955902	730.470032	824.834473	766.358215	38.031471
268.328766	731.138855	823.274109	770.890808	43.145214
268.701569	734.928223	830.630127	765.020813	31.444088
269.074371	737.008728	832.041931	763.683350	28.068739
269.447144	741.318176	837.837463	769.850525	29.561293
269.819885	739.832214	847.794006	766.729797	24.913984
270.192596	734.631042	849.577332	773.565674	33.872021
270.565277	739.832214	855.595764	775.051697	30.423637
270.937927	737.900208	853.961182	777.355042	33.994919
271.310577	737.974609	863.992004	769.256042	24.823107
271.683136	735.968445	863.620422	763.237549	21.362070
272.055725	724.525818	877.589355	757.144775	21.310730
272.428284	729.652771	889.626465	765.986816	22.712513
272.800812	739.312073	895.199219	763.980530	15.824561
273.173279	753.652527	893.341614	766.729797	9.361698
273.545776	751.572021	885.316895	761.305664	7.277769
273.918152	736.785828	887.991882	773.268372	24.127701
274.290558	731.956116	880.190002	770.816467	26.215565
274.662964	730.395752	876.549133	768.215820	25.876970
275.035278	731.510315	877.812317	762.866028	21.432182
275.407593	729.950012	879.521301	762.717468	21.907583
275.779907	737.231628	885.688477	761.082764	16.066040
276.152161	738.049011	883.830872	753.132324	10.346495
276.524384	742.507141	889.552185	761.008484	12.582092
276.896606	730.618652	889.329285	758.556458	17.602983
277.268799	725.194519	889.849365	756.476013	18.998222
277.640930	718.061462	901.514954	754.544128	19.886602
278.013031	720.216309	912.883301	753.206726	17.123026
278.385162	723.931396	920.759338	758.556458	17.591537
278.757233	727.795166	916.375488	751.943542	12.805353
279.129272	725.268860	912.511719	752.017822	14.285705
279.501282	725.640442	916.895508	758.630676	17.249338
279.873230	722.296692	920.907898	757.516296	17.732939
280.245178	722.371094	927.149353	767.621399	22.097221
280.617126	726.903503	938.443359	760.414063	15.841250
280.988983	737.603088	945.279236	758.333557	9.982114
281.360870	748.154053	958.430847	746.519470	-0.777348
281.732697	747.039551	971.359436	743.250183	-1.689270
282.104492	746.816650	984.288147	747.113831	0.125144
282.476288	742.432800	986.145691	758.482117	6.585338
282.848053	738.271912	991.792786	763.311829	9.876866
283.219757	736.637207	999.371582	765.169434	10.859723
283.591461	735.448425	1004.424133	766.506836	11.546921
283.963135	734.036621	1000.634705	764.575012	11.454843
284.334747	730.618652	1007.024719	774.085754	15.725813
284.706360	733.962341	1021.811035	766.655457	11.357743
285.077942	738.197510	1034.368164	772.451111	11.565495
285.449524	736.785828	1040.015259	764.426453	9.115417
285.821014	736.785828	1047.073853	764.500671	8.931973
286.192535	740.278015	1058.888062	760.042480	6.203340
286.563995	743.770264	1065.055176	757.664856	4.324695
286.935425	736.265686	1069.439087	761.305664	7.515599
287.306824	735.076843	1064.312134	768.810242	10.245985
287.678223	730.172852	1065.575317	767.324219	11.076653
288.049561	726.977844	1063.717773	774.160095	14.011481
288.420898	721.776672	1065.278198	775.125977	15.531024
288.792145	728.686829	1067.804321	776.389160	14.066609
289.163452	738.569031	1068.621704	773.714172	10.648343
289.534668	729.504150	1076.275024	766.283936	10.606365
289.905914	723.857117	1090.243774	768.884521	12.289586
290.277039	716.426941	1115.952515	769.181824	13.204382
290.648193	727.349365	1135.196899	772.748352	11.131362
291.019318	735.225403	1150.874756	774.457336	9.438709
291.390381	731.584534	1153.401001	773.788574	10.005309
291.761475	727.497864	1157.487671	778.766846	11.923302
292.132507	721.405090	1147.754028	775.423157	12.669919
292.503510	730.098572	1143.890503	769.107483	9.427180
292.874481	738.569031	1145.450806	771.782410	8.162907
293.245422	736.488586	1145.079224	779.435547	10.511000
293.616364	735.448303	1150.429077	779.435547	10.599827
293.987213	725.045898	1164.175049	772.748230	10.862939
294.358093	726.234802	1189.289429	773.119812	10.125157
294.728943	727.423645	1212.992065	779.509766	10.726834
295.099731	728.538147	1231.121826	772.079529	8.663509
295.470490	731.435974	1243.307495	768.067200	7.156332
295.841248	724.748779	1259.356812	758.630859	6.337742
296.211975	725.863281	1269.907837	758.853699	6.063918
296.582642	719.398926	1292.941650	758.333557	6.788445
296.953308	719.993347	1321.845337	763.683350	7.259260
297.323883	725.714661	1338.489380	766.581238	6.669103
297.694519	725.714661	1352.904053	767.101318	6.598750
298.065063	733.665039	1352.458130	766.506836	5.307395
298.435608	726.977844	1351.863647	765.318054	6.135555
298.806122	733.590759	1329.572876	758.927979	4.251339
299.176575	731.658875	1305.721802	764.649353	5.746840
299.547028	732.773376	1285.734253	767.175537	6.221446
299.917450	734.036621	1284.173950	762.717468	5.213398
300.287872	734.333801	1278.675537	753.503906	3.521704
300.658234	739.386414	1277.783813	748.079773	1.614673
301.028564	727.349304	1273.845825	758.259277	5.656024
301.398865	722.296814	1280.235840	765.243713	7.697418
301.769135	720.290588	1286.477295	768.587402	8.530192
302.139374	731.064453	1286.180054	768.810242	6.799627
302.509583	732.030457	1279.344238	765.169434	6.054841
302.879791	735.002502	1280.533081	772.971252	6.959967
303.249939	728.686829	1287.369019	769.627625	7.328101
303.620087	734.556702	1289.078003	773.268372	6.981097
303.990173	728.612488	1289.375122	768.215820	7.062406
304.360260	732.922058	1287.814819	769.330322	6.561316
304.730286	725.343079	1291.009766	773.788513	8.564307
305.100281	724.822998	1305.201538	773.565613	8.398417
305.470276	723.931335	1309.511108	774.382874	8.615656
305.840179	730.024231	1325.932007	764.426453	5.773078
306.210144	730.990234	1327.417969	767.101318	6.054562
306.579987	729.875671	1335.294067	770.890808	6.774676
306.949890	730.470032	1344.804810	774.903076	7.232708
307.319702	739.534973	1354.315796	774.903137	5.752971
307.689484	733.888000	1367.615845	765.243713	4.947820
308.059265	740.723816	1384.631226	769.330383	4.442652
308.429016	738.866211	1411.157227	770.890808	4.763502
308.798737	744.141785	1441.101196	770.667908	3.805978
309.168396	736.339905	1464.878296	763.683350	3.753192
309.538055	732.030457	1477.732544	758.110657	3.497402
309.907684	731.510315	1496.605469	762.791748	4.088568
310.277313	733.144958	1502.326660	761.380066	3.670798
310.646851	737.603088	1507.007813	762.420227	3.225499
311.016388	739.609314	1514.586548	765.095215	3.288600
311.385895	738.197510	1523.057129	770.742188	4.146560
311.755371	734.408142	1534.574097	774.382996	4.995821
312.124817	736.339905	1533.608032	776.686340	5.060585
312.494232	733.887939	1535.540039	776.612061	5.329509
312.863617	730.172852	1531.750610	773.194153	5.367078
313.232971	720.662109	1521.199585	768.884583	6.023762
313.602295	720.067688	1518.524780	771.559509	6.448915
313.971619	720.067688	1534.722656	774.977356	6.740236
314.340820	721.702332	1544.902222	774.605896	6.426576
314.710083	719.770508	1562.660522	769.330383	5.879756
315.079285	718.804504	1563.849487	764.277832	5.381173
315.448486	724.748779	1585.694336	765.466614	4.729432
315.817596	727.052063	1582.053589	768.215820	4.814466
316.186707	731.287415	1573.731812	767.992920	4.357024
316.555786	731.807556	1546.908203	771.336609	4.849592
316.924866	732.847717	1531.230469	766.952698	4.271758
317.293884	735.819824	1529.521484	766.878418	3.913132
317.662872	734.259460	1542.078735	762.643127	3.513616
318.031830	736.934387	1548.468750	763.683411	3.296105
318.400757	735.522644	1553.892700	775.051758	4.830225
318.769684	734.482422	1564.443726	777.206482	5.147717
319.138550	724.525818	1577.075195	775.497498	5.978736
319.507416	716.278259	1599.366089	762.568848	5.241901
319.876190	720.662109	1605.013062	756.476013	4.049739
320.244995	734.408142	1605.235962	763.163269	3.302045
320.613770	737.380188	1582.870972	772.896973	4.200730
320.982483	738.197510	1565.484009	780.178528	5.074544
321.351166	732.921936	1557.087891	773.862854	4.967557
321.719818	738.420410	1548.320190	772.822571	4.247706
322.088440	736.339905	1559.465454	771.262207	4.242646
322.457062	735.225403	1573.731567	771.633728	4.342046
322.825623	736.339905	1601.817993	771.782410	4.095136
323.194183	733.367859	1620.913940	767.472839	3.842615
323.562653	734.259521	1658.065308	768.067200	3.659609
323.931183	726.532043	1690.758423	761.751526	3.652616
324.299591	725.120300	1739.055176	774.754578	4.895214
324.668060	721.776611	1760.974609	774.903137	5.112262
325.036407	717.541321	1786.980469	776.983582	5.558265
325.404755	717.764343	1797.160034	768.810303	4.729124
325.773102	713.677673	1811.797485	769.404724	5.074769
326.141388	720.513489	1822.422729	773.045593	4.767372
326.509674	714.643555	1831.784790	776.463440	5.533757
326.877899	721.479431	1843.896362	781.293152	5.329010
327.246124	717.838562	1849.171753	778.023743	5.319846
327.614288	723.336975	1853.852905	777.726563	4.811041
327.982422	722.148132	1849.989258	776.389160	4.809279
328.350525	728.389587	1845.753906	776.760742	4.329041
328.718628	732.030457	1841.592896	771.782410	3.582669
329.086700	734.556641	1834.162720	771.559387	3.365091
329.454712	733.070618	1837.060547	766.655457	3.042133
329.822693	734.333801	1849.766113	769.627625	3.164138
330.190674	726.977844	1868.639160	764.203430	3.260650
330.558563	725.194519	1886.174438	770.890686	3.936000
330.926483	724.897400	1901.183594	771.485168	3.960581
331.294312	729.429871	1923.251587	775.051697	3.821494
331.662231	733.367859	1945.245239	775.051697	3.439608
332.029999	736.562805	1968.873535	773.268372	2.978596
332.397766	743.250183	1986.334595	782.556335	3.161986
332.765503	744.438965	2020.662476	785.231201	3.196324
333.133240	746.519348	2052.909912	778.321045	2.434318
333.500916	742.358459	2091.993164	770.519226	2.086547
333.868561	741.318176	2101.355225	767.249817	1.906686
334.236176	737.751709	2102.841553	774.234375	2.672547
334.603790	732.550537	2107.745117	765.466614	2.393558
334.971344	727.572266	2111.163330	764.203430	2.647543
335.338867	722.371094	2117.181641	766.209656	3.142976
335.706360	721.702332	2117.181641	772.599609	3.647297
336.073853	721.553711	2118.221924	769.404602	3.426074
336.441284	723.634216	2126.766846	763.311829	2.827788
336.808655	728.018066	2115.398438	767.101257	2.817050
337.176086	727.572266	2095.856689	774.457275	3.426554
337.543396	729.058289	2051.572266	785.751282	4.286760
337.910706	730.247131	2024.377563	784.190918	4.168343
338.277954	732.401917	2044.290649	784.636719	3.981649
338.645264	727.646545	2117.999023	774.531555	3.372167
339.012421	726.011902	2220.313965	767.547119	2.779573
339.379669	734.631042	2302.641357	768.364441	2.151351
339.746796	737.380188	2360.597412	770.965027	2.069029
340.113953	739.906494	2380.584717	778.172363	2.332320
340.481018	733.367859	2393.810791	769.107422	2.152411
340.848114	734.556641	2386.380615	775.497498	2.478524
341.215118	728.686707	2387.420898	771.782288	2.598101
341.582153	735.596924	2398.269043	782.853516	2.842207
341.949066	736.265625	2423.829102	780.029968	2.593345
342.316010	744.216003	2450.652344	791.101074	2.747543
342.682922	736.488586	2455.036377	790.878113	3.164854
343.049835	737.528809	2457.562500	795.187683	3.352195
343.416656	734.705322	2478.292725	792.661438	3.323958
343.783478	735.671204	2527.629883	786.791565	2.852764
344.150269	736.860046	2592.644531	785.677002	2.630529
344.516998	734.705322	2651.864014	786.419983	2.697464
344.883728	737.380188	2707.368408	787.237305	2.530833
345.250427	729.504150	2748.457764	778.098083	2.406887
345.617065	730.990173	2776.766846	774.159973	2.110191
345.983704	726.754944	2789.101563	775.571777	2.367053
346.350281	731.287415	2780.184814	776.463379	2.204891
346.716827	733.590820	2770.897217	769.553223	1.765194
347.083405	724.971619	2756.185547	766.804016	2.059478
347.449860	737.825989	2747.566406	776.017578	1.900324
347.816376	737.677429	2722.823486	785.676941	2.417934
348.182770	749.194336	2706.179443	790.135071	2.092031
348.549194	732.550537	2703.355713	789.466370	2.887948
348.915558	732.327637	2721.783203	781.070129	2.450042
349.281921	729.727051	2748.160400	773.937195	2.190320
349.648193	728.240967	2759.454834	767.324219	1.924133
350.014526	720.364807	2790.884766	765.615234	2.185462
350.380737	715.163757	2813.769531	773.491394	2.779352
350.746948	716.055359	2855.304932	772.896912	2.657079
351.113159	722.742493	2868.382080	775.720398	2.469096
351.479309	728.092346	2905.310547	777.429382	2.266058
351.845428	729.206848	2930.721924	778.766785	2.251174
352.211517	726.606262	2972.406006	780.995911	2.421839
352.577576	725.343201	2998.857666	778.618164	2.343287
352.943604	730.767334	3033.334229	779.658447	2.123331
353.309601	733.293640	3063.426758	788.797668	2.382011
353.675537	730.692932	3110.906250	787.906067	2.403698
354.041473	728.761047	3169.679688	788.203308	2.435241
354.407379	724.451477	3246.508545	781.367371	2.256725
354.773254	727.497864	3320.440186	784.190918	2.186437
355.139038	721.999512	3392.513672	784.339539	2.334383
355.504913	725.268860	3464.067139	782.556335	2.091701
355.870636	727.795166	3530.270752	774.605896	1.670335
356.236389	739.312073	3608.808594	773.714172	1.198890
356.602081	740.872498	3683.037354	773.714172	1.116242
356.967804	739.980774	3761.055420	778.469543	1.274009
357.333405	731.584656	3832.757080	777.949524	1.495075
357.699036	733.144958	3928.756592	781.441711	1.511346
358.064606	733.219238	4038.501221	778.989746	1.384769
358.430176	734.705261	4137.026855	774.977356	1.183665
358.795654	732.773438	4203.750488	772.971191	1.158111
359.161163	728.686829	4199.069824	773.119812	1.280348
359.526581	726.011963	4174.252930	781.590332	1.611789
359.892029	727.423645	4179.230957	785.751282	1.689771
360.257416	725.714661	4270.400391	783.968018	1.643400
360.622772	726.903564	4427.104980	782.184753	1.494005
360.988098	722.816895	4578.459473	777.503723	1.418358
361.353394	728.092285	4752.402344	776.537781	1.203821
361.718658	733.887939	4895.211914	776.537781	1.024910
362.083893	731.287415	5043.445801	776.983582	1.059705
362.449097	734.185242	5158.986328	776.091980	0.947087
362.814209	729.578430	5184.397949	781.590332	1.167542
363.179382	732.847839	5088.027344	781.441711	1.115772
363.544434	738.717773	4874.258301	784.042297	1.095976
363.909546	732.476257	4660.786621	778.098145	1.161362
364.274536	731.138855	4469.308594	770.742126	1.059430
364.639587	728.612488	4334.895020	766.729797	1.056970
365.004517	730.321472	4243.576660	763.460449	0.943256
365.369507	739.534973	4205.607910	769.033203	0.851056
365.734344	737.825989	4162.884277	777.057922	1.145438
366.099274	740.129395	4139.924805	780.029968	1.173617
366.464081	729.875671	4120.308594	789.243469	1.751039
366.828918	725.863281	4125.583984	786.122803	1.772484
367.193665	727.052063	4141.707520	784.933899	1.695100
367.558411	727.795105	4153.818848	782.110413	1.585375
367.923126	731.361633	4167.640137	788.351868	1.658487
368.287781	738.420410	4172.469238	787.831726	1.438865
368.652435	745.627747	4163.255859	791.992676	1.356641
369.017059	745.107666	4160.209473	788.723328	1.277141
369.381653	739.906555	4139.701660	797.416809	1.691580
369.746185	740.723877	4129.671387	791.621155	1.501861
370.110687	733.367859	4132.940430	793.330139	1.763818
370.475220	725.863281	4151.367188	791.844177	1.926166
370.839661	716.798340	4210.065918	790.655273	2.114265
371.204041	717.838562	4259.625977	786.717224	1.944743
371.568451	732.996338	4324.566895	783.596497	1.408859
371.932770	738.197510	4363.353027	781.070129	1.182642
372.297150	739.460693	4388.244629	783.968018	1.219785
372.661377	725.937561	4401.321777	785.454102	1.619328
373.025696	728.315247	4417.965332	786.494324	1.576818
373.389862	721.702332	4438.175781	784.265320	1.683397
373.754059	728.909668	4438.027344	783.968018	1.484406
374.118225	727.423645	4428.813477	786.642883	1.599919
374.482361	734.036560	4435.203613	786.865906	1.427370
374.846436	735.448303	4495.388672	793.627380	1.547340
375.210510	736.934326	4583.362793	792.141296	1.435279
375.574524	739.089172	4689.987793	793.181580	1.369117
375.938538	733.888000	4794.605957	787.608887	1.322941
376.302460	734.482361	4895.583496	786.345703	1.246385
376.666412	735.299744	5010.381348	789.317871	1.263558
377.030304	736.488525	5120.423340	796.971008	1.379639
377.394196	732.104675	5242.651855	801.949219	1.548472
377.757996	737.231628	5324.384766	800.834717	1.386548
378.121796	744.810486	5376.396484	790.952454	0.996246
378.485565	744.438965	5383.083496	784.933899	0.872991
378.849304	736.860107	5362.873047	783.299255	1.003870
379.212982	730.172852	5298.304199	782.927734	1.154846
379.576630	731.138855	5198.069824	793.553040	1.397250
379.940277	733.144958	5100.361328	794.444641	1.403633
380.303864	735.076843	5015.953613	795.707825	1.416322
380.667450	734.110840	5002.504883	793.330078	1.387389
381.030945	730.990234	4996.115234	798.011230	1.571372
381.394501	729.281250	5027.916992	802.320801	1.699133
381.757935	728.612488	5030.889160	802.172180	1.709785
382.121399	733.145020	5052.437012	797.193848	1.482855
382.484741	736.191406	5087.061523	797.268250	1.403785
382.848145	732.996338	5127.927734	800.834717	1.543559
383.211487	730.767273	5193.389160	806.853271	1.704962
383.574768	726.606262	5257.289063	803.509583	1.697389
383.938019	733.070618	5326.464844	798.159851	1.417018
384.301270	733.739441	5397.869629	793.330139	1.277638
384.664459	737.454590	5468.978027	798.977234	1.300271
385.027649	739.534973	5524.853027	797.565430	1.212677
385.390778	734.556702	5561.335938	807.967773	1.520912
385.753876	725.268860	5587.787598	811.534241	1.774089
386.116943	719.547546	5622.412598	823.199890	2.114118
386.479980	730.024231	5642.251465	827.658020	1.987567
386.842987	741.764099	5688.170410	835.385559	1.892717
387.205994	742.284180	5729.037109	842.295715	2.005544
387.568909	738.271790	5799.847656	842.592957	2.061041
387.931793	732.327637	5834.843750	850.766174	2.321179
388.294678	734.631042	5888.416016	853.812683	2.312507
388.657471	736.488586	5893.171875	865.998291	2.511492
389.020294	739.757874	5897.035645	872.091003	2.565949
389.383057	738.494812	5875.414063	888.214661	2.914584
389.745819	732.401917	5886.261719	902.555176	3.301472
390.108521	736.562805	5913.604980	918.976074	3.523504
390.471191	738.197571	5987.238770	924.474426	3.548779
390.833801	741.912659	6064.587891	933.093567	3.591820
391.196442	736.414307	6193.279785	943.718811	3.798967
391.558960	735.076843	6315.136719	977.675232	4.347595
391.921509	734.556641	6464.187988	1009.328125	4.795622
392.284027	728.835449	6590.874512	1041.947144	5.341344
392.646484	721.702393	6713.027832	1061.340088	5.668824
393.008911	722.668274	6747.281250	1086.082886	6.032166
393.371307	730.767273	6732.867188	1118.776123	6.464551
393.733673	730.247070	6663.021973	1161.128784	7.262735
394.096008	735.374023	6633.449219	1201.474976	7.902594
394.458344	735.151123	6643.257813	1231.939087	8.408582
394.820587	739.089172	6673.053223	1269.907837	8.945432
395.182831	740.500977	6717.857422	1326.303589	9.800363
395.545013	739.683594	6707.678223	1382.922241	10.778137
395.907196	744.587585	6671.642090	1434.042603	11.632338
396.269287	728.018066	6585.079590	1466.512817	12.608622
396.631409	722.073914	6503.420410	1518.004517	13.767218
396.993469	716.872620	6401.996582	1562.437622	14.873290
397.355530	724.377258	6338.542480	1617.941772	15.916249
397.717499	727.646545	6305.700684	1676.640991	17.013002
398.079468	733.293640	6304.808594	1748.194336	18.215883
398.441376	729.206970	6325.390625	1822.794312	19.541664
398.803284	728.909668	6335.421875	1887.289063	20.661320
399.165131	722.148132	6375.322266	1968.130493	22.040403
399.526978	724.674500	6388.845215	2047.783081	23.359264
399.888763	719.696106	6401.773438	2138.952393	24.977774
400.250519	719.027405	6404.597168	2210.282959	26.228781
400.612244	724.971680	6422.950684	2285.403076	27.385700
400.973938	732.253418	6442.937500	2355.173340	28.419010
401.335602	733.962341	6463.593750	2447.903320	29.913633
401.697205	733.813660	6488.039063	2548.954834	31.544491
402.058807	727.349304	6538.342285	2651.938477	33.119797
402.420349	731.361633	6624.904785	2752.024170	34.286041
402.781860	729.578430	6701.957031	2863.701172	35.733215
403.143341	731.807434	6814.005371	2991.873291	37.158707
403.504822	728.761047	6916.171875	3111.946533	38.516685
403.866241	724.674500	7044.864746	3251.784424	39.984711
404.227631	721.182190	7164.045410	3369.479736	41.104359
404.588959	723.857117	7287.388184	3526.630127	42.702209
404.950287	723.559875	7416.229004	3653.836182	43.783375
405.311554	734.482422	7498.481934	3779.853516	45.023232
405.672821	732.996338	7574.048340	3885.363525	46.080154
406.034027	735.374023	7571.298828	3972.594971	47.356007
406.395203	733.367859	7527.311035	4045.411865	48.749950
406.756348	732.476257	7456.871582	4099.875488	50.077351
407.117493	734.853821	7432.575684	4153.299316	51.038933
407.478516	730.990173	7420.761230	4233.396973	52.354660
407.839600	739.089172	7428.785645	4295.217285	53.158291
408.200592	737.380188	7439.188965	4376.653320	54.302853
408.561554	734.853943	7440.600098	4432.826172	55.146320
408.922485	726.532043	7436.959473	4507.871582	56.350204
409.283417	724.005676	7442.978027	4568.650879	57.220734
409.644257	724.228577	7506.357910	4667.845703	58.147182
410.005096	726.383362	7611.422363	4769.788574	58.727413
410.365906	728.463867	7686.988281	4883.620605	59.713188
410.726715	734.928223	7795.915527	4984.301270	60.181004
411.087433	735.894104	7866.428223	5086.838867	61.018497
411.448120	739.832214	7952.545410	5180.979980	61.573887
411.808807	727.869446	7969.115723	5239.233398	62.300930
412.169434	727.349304	7936.273926	5266.725098	62.968834
412.530029	729.132568	7913.017090	5296.520996	63.578255
412.890564	740.946777	7894.515625	5342.812012	64.329643
413.251099	746.147949	7913.685547	5387.096191	64.749550
413.611572	746.742371	7935.382324	5442.080078	65.316078
413.972076	739.089172	7956.558594	5500.110840	65.965248
414.332489	741.466797	8003.071777	5571.366699	66.512840
414.692871	737.603027	8108.359375	5683.118652	67.096443
415.053223	743.695862	8230.140625	5787.291016	67.369698
415.413574	731.436035	8394.350586	5925.865234	67.786598
415.773834	729.578430	8527.574219	6032.415527	68.002563
416.134094	726.309082	8657.307617	6152.934082	68.422974
416.494263	730.544373	8783.547852	6268.103027	68.763893
416.854462	725.343201	8967.595703	6426.591309	69.170990
417.214630	727.572266	9191.395508	6596.669922	69.343338
417.574738	729.281250	9421.584961	6778.265625	69.590118
417.934784	734.779602	9645.682617	6947.601563	69.721573
418.294861	737.454529	9932.341797	7163.005371	69.881775
418.654846	733.145020	10260.760742	7410.878906	70.088196
419.014832	730.915833	10619.047852	7686.318848	70.340919
419.374756	729.578430	10983.577148	7960.941406	70.522369
419.734680	736.042786	11393.057617	8251.019531	70.516716
420.094543	730.098572	11828.695313	8535.970703	70.332062
420.454376	721.850891	12215.961914	8806.358398	70.336082
420.814148	721.182190	12568.973633	9107.507813	70.783875
421.173920	728.092346	12917.825195	9417.053711	71.280983
421.533691	733.813660	13299.221680	9715.303711	71.477905
421.893341	725.640381	13622.512695	9961.541992	71.613503
422.253021	725.194580	13851.215820	10119.065430	71.566780
422.612640	722.668274	13919.574219	10207.559570	71.872086
422.972260	725.937500	13909.617188	10215.956055	71.983078
423.331757	725.045898	13827.809570	10184.823242	72.196808
423.691315	729.281189	13823.203125	10189.578125	72.249527
424.050781	736.265686	13913.481445	10256.301758	72.246185
424.410248	740.426575	14050.570313	10347.248047	72.176689
424.769653	739.980774	14181.195313	10451.495117	72.251762
425.128998	739.460693	14215.002930	10511.976563	72.520393
425.488373	739.386414	14168.562500	10498.157227	72.668427
425.847656	739.386414	14044.776367	10440.201172	72.908913
426.206940	733.442139	13902.484375	10313.960938	72.750305
426.566193	732.253357	13650.079102	10154.656250	72.941093
426.925385	730.395691	13400.348633	9974.248047	72.958855
427.284576	737.231628	13045.032227	9721.396484	72.995697
427.643677	734.259460	12777.987305	9543.738281	73.145782
428.002777	741.541199	12500.764648	9325.958008	73.001564
428.361847	736.711426	12205.411133	9165.166992	73.490944
428.720856	743.844482	11948.174805	8971.682617	73.434448
429.079865	743.844543	11741.539063	8851.385742	73.720367
429.438812	738.717590	11657.725586	8748.700195	73.358154
429.797760	733.144958	11581.565430	8701.962891	73.456017
430.156616	730.247131	11476.796875	8594.744141	73.181602
430.515503	728.538147	11371.957031	8556.032227	73.543045
430.874268	731.436035	11335.622070	8526.535156	73.509644
431.233093	729.801331	11340.081055	8585.381836	74.037453
431.591827	732.476257	11404.354492	8621.418945	73.922722
431.950562	737.751709	11442.471680	8658.868164	73.996483
432.309204	732.773438	11497.231445	8673.802734	73.770821
432.667877	744.364685	11605.268555	8733.319336	73.556992
433.026459	741.243958	11706.617188	8831.399414	73.779114
433.385010	737.974609	11859.754883	8929.404297	73.652145
433.743561	726.531982	11977.747070	9023.322266	73.741280
434.102051	718.433044	12134.155273	9120.065430	73.597031
434.460510	725.343201	12280.531250	9238.280273	73.671989
434.818939	730.024231	12342.871094	9305.450195	73.844307
435.177338	739.386414	12373.409180	9356.571289	74.068832
435.535675	735.299805	12342.722656	9364.149414	74.339066
435.894012	732.847717	12310.920898	9340.669922	74.345894
436.252289	723.708496	12328.531250	9336.285156	74.215492
436.610535	726.160461	12297.843750	9290.514648	74.011307
436.968719	731.956055	12400.901367	9380.718750	74.117775
437.326935	733.813660	12475.946289	9450.636719	74.235435
437.685028	735.374023	12613.480469	9555.254883	74.253258
438.043152	735.745544	12696.774414	9622.202148	74.295090
438.401215	740.129395	12857.045898	9736.850586	74.249260
438.759277	738.123230	13038.270508	9903.883789	74.517487
439.117249	733.367859	13365.276367	10125.529297	74.352669
439.475250	732.476257	13613.297852	10311.434570	74.366051
439.833130	734.185242	13922.398438	10543.110352	74.376450
440.191071	732.922058	14134.829102	10757.844727	74.802208
440.548889	721.033630	14418.293945	10959.502930	74.748299
440.906708	725.640381	14724.272461	11172.528320	74.627922
441.264496	730.767273	14952.976563	11297.950195	74.300575
441.622223	742.432800	15113.842773	11417.727539	74.281471
441.979950	735.448425	15173.656250	11461.268555	74.287750
442.337616	728.761047	15207.834961	11500.351563	74.394196
442.695251	733.145020	15132.342773	11452.948242	74.447227
443.052887	732.179016	14966.574219	11370.323242	74.735489
443.410461	733.665039	14809.573242	11246.979492	74.690132
443.768005	728.241028	14685.932617	11157.816406	74.722778
444.125458	725.491760	14623.815430	11081.729492	74.514290
444.482941	725.045959	14659.480469	11101.346680	74.465172
444.840393	724.525879	14737.497070	11171.265625	74.550507
445.197754	732.253235	14952.678711	11310.507813	74.387749
445.555084	735.522644	15113.768555	11487.942383	74.782555
445.912415	731.733215	15435.350586	11730.094727	74.800377
446.269714	729.281250	15657.217773	11924.249023	74.993401
446.626953	727.943665	15979.765625	12118.475586	74.683090
446.984161	725.714661	16236.481445	12307.129883	74.666939
447.341309	723.411316	16475.587891	12499.277344	74.757072
447.698456	724.897400	16646.558594	12645.952148	74.873184
448.055542	733.813721	16759.869141	12752.948242	74.997459
448.412598	739.014893	16761.505859	12743.213867	74.920929
448.769653	739.237793	16652.949219	12692.464844	75.112755
449.126617	726.457703	16395.265625	12510.499023	75.207008
449.483582	724.971680	16182.315430	12383.143555	75.421570
449.840515	724.302917	15936.745117	12190.847656	75.376091
450.197388	736.637207	15763.842773	12047.145508	75.266876
450.554230	745.181946	15605.949219	11930.639648	75.268372
450.911041	743.918762	15497.245117	11805.588867	74.977463
451.267822	743.101563	15395.449219	11725.266602	74.951576
451.624573	734.779602	15259.699219	11579.708008	74.664291
451.981262	732.327637	15128.554688	11501.838867	74.807877
452.337921	733.516541	14997.484375	11391.350586	74.718582
452.694580	733.442200	14929.051758	11346.471680	74.762756
453.051147	729.801331	14923.331055	11350.484375	74.827637
453.407715	727.200684	14879.937500	11334.805664	74.950912
453.764221	727.646484	14941.608398	11399.597656	75.080765
454.120728	735.076721	14783.046875	11323.585938	75.373947
454.477142	736.637207	14772.124023	11313.182617	75.355743
454.833557	738.717712	14607.320313	11189.840820	75.358154
455.189911	732.401917	14507.457031	11086.336914	75.164383
455.546265	725.491699	14342.133789	10964.331055	75.193573
455.902557	722.668274	14188.773438	10878.140625	75.415070
456.258820	726.606262	14185.653320	10855.329102	75.255867
456.615051	731.881775	14232.538086	10893.298828	75.266098
456.971252	735.373962	14261.367188	10878.512695	74.989975
457.327393	735.299622	14389.019531	11001.855469	75.192375
457.683502	735.968445	14555.382813	11167.921875	75.487663
458.039612	733.888000	14904.307617	11454.507813	75.654922
458.395630	733.516541	15246.620117	11683.656250	75.450020
458.751648	735.225403	15576.301758	11921.425781	75.373245
459.107605	737.380188	16111.132813	12305.496094	75.245880
459.463562	738.866272	16667.140625	12761.195313	75.477913
459.819458	740.575256	17215.791016	13175.506836	75.476601
460.175323	742.655762	17660.123047	13578.004883	75.870399
460.531158	743.621643	18130.904297	13944.168945	75.920700
460.886932	735.819824	18530.058594	14234.247070	75.858421
461.242676	732.104736	18757.498047	14379.731445	75.713341
461.598419	732.104736	18672.199219	14324.895508	75.767670
461.954102	733.293518	18365.552734	14099.460938	75.805183
462.309723	739.906494	17864.603516	13701.049805	75.686852
462.665344	739.757874	17335.046875	13264.520508	75.471794
463.020905	743.175781	16877.863281	12922.729492	75.486763
463.376373	736.785828	16502.783203	12659.920898	75.625633
463.731873	739.237793	16202.301758	12443.031250	75.688705
464.087341	733.219238	15911.035156	12226.067383	75.721352
464.442749	731.807434	15761.092773	12121.151367	75.781006
464.798126	730.098450	15654.839844	12070.773438	75.985741
465.153503	736.042725	15715.471680	12120.481445	76.000488
465.508820	733.070618	15743.557617	12118.402344	75.849182
465.864105	728.984070	15824.472656	12191.292969	75.932014
466.219330	728.240967	16062.539063	12381.954102	75.997696
466.574524	727.572266	16225.930664	12538.436523	76.207199
466.929657	724.228577	16432.417969	12671.511719	76.057671
467.284790	727.274963	16591.425781	12777.319336	75.957703
467.639893	731.733215	16792.265625	12896.872070	75.745552
467.994934	739.460693	16982.554688	13046.590820	75.768387
468.349945	734.036560	17060.796875	13122.456055	75.878006
468.704926	727.200684	17089.552734	13149.352539	75.919113
469.059875	726.011902	16946.369141	13042.208008	75.930489
469.414764	722.519714	16758.310547	12897.614258	75.924507
469.769653	727.795166	16572.404297	12784.377930	76.092651
470.124451	728.984070	16469.718750	12717.950195	76.165222
470.479248	736.637207	16350.090820	12612.366211	76.060875
470.834015	736.860046	16250.524414	12534.719727	76.048180
471.188721	734.779602	16298.524414	12548.465820	75.905167
471.543365	733.888000	16350.090820	12608.206055	76.038445
471.898010	730.841614	16459.093750	12694.174805	76.062698
472.252625	729.949951	16569.951172	12804.959961	76.231117
472.607178	727.423645	16796.796875	12980.981445	76.254112
472.961700	729.875671	16999.869141	13092.882813	75.986549
473.316193	731.213074	17254.802734	13282.799805	75.961624
473.670654	734.408020	17428.667969	13385.559570	75.781448
474.025055	732.773438	17646.375000	13600.592773	76.079712
474.379456	734.333801	17798.029297	13729.135742	76.154678
474.733795	728.315247	17956.291016	13873.581055	76.301857
475.088104	729.504211	18069.232422	13986.819336	76.456306
475.442383	730.395813	18108.984375	13998.929688	76.349899
475.796570	735.894226	18190.345703	14063.721680	76.357758
476.150787	740.946777	18343.410156	14162.766602	76.249672
476.504944	735.968445	18557.996094	14299.484375	76.105347
476.859070	740.426575	18754.677734	14457.971680	76.148293
477.213135	739.014893	18972.605469	14604.793945	76.045250
477.567200	735.819824	19349.025391	14889.968750	76.043587
477.921173	723.857117	19735.769531	15154.487305	75.903099
478.275146	721.850891	20180.992188	15485.578125	75.870399
478.629089	728.018066	20446.771484	15706.777344	75.961998
478.983002	730.024231	20806.619141	16028.954102	76.202805
479.336823	726.234863	21153.166016	16287.676758	76.181000
479.690643	725.789001	21535.156250	16601.085938	76.289185
480.044403	730.692932	21958.162109	16890.123047	76.125092
480.398163	734.482422	22479.248047	17307.406250	76.215691
480.751862	737.974670	23208.828125	17862.076172	76.205833
481.105499	733.590820	24134.490234	18585.710938	76.288185
481.459137	737.305969	25326.750000	19557.369141	76.537163
481.812744	731.733215	26823.578125	20725.630859	76.628914
482.166290	733.739319	28599.117188	22161.232422	76.896477
482.519806	726.606262	30795.359375	23826.654297	76.824097
482.873291	732.401917	33357.984375	25793.000000	76.812721
483.226715	737.974609	36385.003906	28092.224609	76.736404
483.580139	741.020996	39471.390625	30500.820313	76.838402
483.933502	733.590759	42743.679688	33048.066406	76.920753
484.286804	737.157288	45771.738281	35468.031250	77.120453
484.640106	735.819885	48453.996094	37653.949219	77.367020
484.993347	735.225403	50259.996094	39336.605469	77.943581
485.346558	735.002502	51084.683594	40145.015625	78.272614
485.699738	732.104736	50835.324219	40008.300781	78.390564
486.052887	733.442200	49701.832031	38995.406250	78.136047
486.405975	717.541443	48061.750000	37580.535156	77.861671
486.759064	718.433044	46186.347656	35983.988281	77.561409
487.112061	721.182190	44464.605469	34556.187500	77.348785
487.464996	729.355469	43265.503906	33605.187500	77.289162
487.817963	732.327637	42831.800781	33235.683594	77.206085
488.170868	728.761047	42879.355469	33216.363281	77.075073
488.523743	725.863281	43141.425781	33344.089844	76.901550
488.876587	715.906738	43246.636719	33377.824219	76.796043
489.229401	722.965515	43096.917969	33311.769531	76.907631
489.582153	723.634216	42479.605469	32914.546875	77.092949
489.934845	730.024231	41547.105469	32289.287109	77.318764
490.287537	726.532043	40461.171875	31428.341797	77.267113
490.640198	724.377197	39570.136719	30670.080078	77.088737
490.992798	724.302917	38779.035156	30046.609375	77.052986
491.345337	719.101624	38500.769531	29777.187500	76.910545
491.697876	723.114075	38423.644531	29701.841797	76.865570
492.050354	728.909668	38833.500000	29996.007813	76.807274
492.402832	738.123230	39176.855469	30296.189453	76.896576
492.755219	736.785828	39319.218750	30385.578125	76.845314
493.107605	734.110840	38994.363281	30129.755859	76.830765
493.459930	729.652649	38206.832031	29538.005859	76.869057
493.812225	739.237732	36878.593750	28621.705078	77.152641
494.164490	742.432800	35216.812500	27358.708984	77.205963
494.516724	744.884766	33341.707031	25896.505859	77.159737
494.868896	736.711426	31560.970703	24463.947266	76.975853
495.221039	730.990173	30085.986328	23264.927734	76.763550
495.573120	733.442139	28892.908203	22347.435547	76.755692
495.925201	735.448303	28211.775391	21807.998047	76.693474
496.277222	737.900330	27742.406250	21506.552734	76.908096
496.629211	737.603210	27568.615234	21372.583984	76.907204
496.981140	738.346191	27503.968750	21309.650391	76.857185
497.333069	740.723816	27593.357422	21355.939453	76.771667
497.684967	736.414246	27740.697266	21469.175781	76.775826
498.036804	736.042786	27868.275391	21522.154297	76.610397
498.388580	733.888000	27873.849609	21561.757813	76.742447
498.740326	737.231628	27763.509766	21483.294922	76.762558
499.092072	732.699158	27540.080078	21344.125000	76.887131
499.443756	729.504150	27258.623047	21092.164063	76.755882
499.795410	723.857178	26959.255859	20887.310547	76.855904
500.147003	724.451599	26673.337891	20675.474609	76.885857
500.498566	738.866211	26364.908203	20446.398438	76.904312
500.850098	736.785828	26077.802734	20211.156250	76.849205
501.201599	740.575195	25765.804688	19984.683594	76.898827
501.553009	727.869446	25509.162109	19764.302734	76.817757
501.904449	732.773438	25280.087891	19567.992188	76.730263
502.255859	736.711487	25023.593750	19403.634766	76.860107
502.607178	732.699158	24917.267578	19356.822266	77.008293
502.958405	732.847717	24788.427734	19271.748047	77.066940
503.309692	722.296814	24759.968750	19208.367188	76.904579
503.660919	725.194580	24733.294922	19173.593750	76.842392
504.012115	721.479492	24780.773438	19213.867188	76.861725
504.363251	730.841614	24891.263672	19304.962891	76.878296
504.714294	736.414307	24945.208984	19362.101563	76.937691
505.065369	739.534973	25017.875000	19400.365234	76.862053
505.416443	741.987000	25022.259766	19457.431641	77.080864
505.767395	738.791931	25036.822266	19490.494141	77.173752
506.118317	743.918884	25007.250000	19493.912109	77.277077
506.469238	736.488586	25048.710938	19464.414063	77.030907
506.820160	731.436035	25062.234375	19453.863281	76.949501
507.170929	726.532043	25101.462891	19473.851563	76.912300
507.521729	730.321472	25167.744141	19544.068359	76.987442
507.872498	735.522644	25247.843750	19615.324219	77.021683
508.223236	734.853943	25381.140625	19761.328125	77.198135
508.573883	725.491760	25516.818359	19858.814453	77.177483
508.924500	728.612488	25699.750000	19979.185547	77.091293
509.275116	725.714661	25864.482422	20086.923828	77.017334
509.625702	732.327637	26051.351563	20266.289063	77.151321
509.976196	727.943787	26294.470703	20463.341797	77.192329
510.326660	732.773438	26534.095703	20669.976563	77.272018
510.677124	730.321472	26772.234375	20855.212891	77.278854
511.027557	730.915833	26994.328125	21060.884766	77.407951
511.377869	730.395752	27267.539063	21217.662109	77.202232
511.728180	729.578430	27411.539063	21360.470703	77.321503
512.078430	729.355469	27527.375000	21435.740234	77.268341
512.428650	722.148132	27614.310547	21537.089844	77.401520
512.778931	725.789001	27784.314453	21602.474609	77.153816
513.129028	725.937561	27881.203125	21626.697266	76.967613
513.479126	724.971619	27908.177734	21654.486328	76.994286
513.829285	724.377197	27864.708984	21671.205078	77.179703
514.179382	725.120300	27810.244141	21691.119141	77.407799
514.529297	725.937561	27789.812500	21652.703125	77.323608
514.879272	722.816895	27827.705078	21681.458984	77.324219
515.229187	725.863281	27740.845703	21612.580078	77.315308
515.579163	730.618652	27706.148438	21627.294922	77.465302
515.928955	730.247070	27660.302734	21591.998047	77.466423
516.278748	718.878845	27825.328125	21712.814453	77.449966
516.628540	728.612488	28056.632813	21891.587891	77.440575
516.978333	734.853943	28445.533203	22194.369141	77.441315
517.327942	740.798157	28919.662109	22575.025391	77.484413
517.677612	740.129395	29482.205078	22964.666016	77.324051
518.027222	734.556702	30041.257813	23398.150391	77.332466
518.376831	735.374023	30692.150391	23873.093750	77.237007
518.726379	729.727051	31317.630859	24380.580078	77.320938
519.075867	737.528809	31868.662109	24781.666016	77.235023
519.425293	745.999329	32288.025391	25132.968750	77.315796
519.774658	737.231628	32550.164063	25347.109375	77.358093
520.124084	733.590820	32664.666016	25432.781250	77.351585
520.473389	736.117004	32584.416016	25354.912109	77.300186
520.822693	740.426575	32304.521484	25169.974609	77.396637
521.171997	733.293518	31940.437500	24928.414063	77.530708
521.521240	723.931396	31562.681641	24638.560547	77.547333
521.870361	721.479431	31208.630859	24325.447266	77.422676
522.219482	727.795166	30827.603516	24066.501953	77.537727
522.568604	727.200745	30478.306641	23842.185547	77.694542
522.917664	730.618652	30279.025391	23727.685547	77.828453
523.266724	728.018066	30288.240234	23685.630859	77.663872
523.615662	731.138733	30502.603516	23822.345703	77.561539
523.964600	739.163391	30844.322266	24083.443359	77.542458
524.313538	734.333801	31343.189453	24437.421875	77.438660
524.662354	728.463867	31895.109375	24890.521484	77.525375
525.011169	724.080017	32609.009766	25448.013672	77.541130
525.359985	729.875671	33483.554688	26163.328125	77.650673
525.708740	728.463867	34550.539063	26955.093750	77.542938
526.057434	726.086182	35766.949219	27894.208984	77.532684
526.406067	729.949890	37105.218750	28981.031250	77.665627
526.754700	734.928223	38622.253906	30225.828125	77.838432
527.103333	732.327637	40365.027344	31630.296875	77.960800
527.451782	724.674500	42284.789063	33174.453125	78.079140
527.800293	722.519714	44306.562500	34841.214844	78.282539
528.148743	726.606262	46385.703125	36516.886719	78.385872
528.497131	732.104736	48377.761719	38202.890625	78.644707
528.845642	732.699158	50168.894531	39808.347656	79.042587
529.193909	724.005676	51668.550781	41300.199219	79.647766
529.542175	719.844727	52793.050781	42515.496094	80.263260
529.890503	729.355530	53513.781250	43242.097656	80.540314
530.238770	738.420410	53608.296875	43435.441406	80.758690
530.586914	742.358459	53213.078125	43010.949219	80.556526
530.934998	737.454407	52172.625000	42037.582031	80.295502
531.283142	735.522644	50752.406250	40648.566406	79.799141
531.631226	735.522644	48864.144531	38920.656250	79.339760
531.979248	734.185242	46854.558594	37126.171875	78.906532
532.327148	741.541199	44944.531250	35419.589844	78.451813
532.675110	739.237793	43469.023438	34179.695313	78.260300
533.023071	739.386414	42631.484375	33483.328125	78.162575
533.370850	735.076843	42328.250000	33243.703125	78.158569
533.718689	739.014893	42441.191406	33355.308594	78.212448
534.066467	737.900330	42708.683594	33543.890625	78.163872
534.414246	730.395752	42891.839844	33709.066406	78.219978
534.761963	730.990173	42937.613281	33755.875000	78.245743
535.109619	729.949951	42820.214844	33664.183594	78.246681
535.457153	733.367859	42378.406250	33311.097656	78.227158
535.804749	727.646484	41703.886719	32696.318359	78.017578
536.152344	727.869446	40831.351563	32028.857422	78.050552
536.499817	725.937561	39928.722656	31296.380859	77.980286
536.847229	723.039856	38978.613281	30558.406250	77.989594
537.194641	719.993469	38085.273438	29857.287109	77.979591
537.542114	729.206970	37455.777344	29394.156250	78.049622
537.889404	731.881836	36969.246094	29053.849609	78.156815
538.236694	737.083008	36643.574219	28733.234375	77.969612
538.583984	736.265625	36306.316406	28514.931641	78.095657
538.931213	738.271790	36154.218750	28375.763672	78.036865
539.278381	742.878601	35940.597656	28308.000000	78.315079
539.625488	743.770264	35887.988281	28188.669922	78.092216
539.972595	748.451355	35977.082031	28230.796875	78.011398
540.319641	745.999329	36400.531250	28510.322266	77.870392
540.666687	736.711487	37052.613281	29066.779297	78.010094
541.013611	732.624817	38078.511719	29889.162109	78.071617
541.360596	731.658936	39244.617188	30842.914063	78.184738
541.707458	733.887939	40666.175781	31953.291016	78.180847
542.054260	728.538147	41932.148438	32959.945313	78.224716
542.401062	726.903503	43179.988281	33900.097656	78.140831
542.747864	730.395752	43931.332031	34547.347656	78.278282
543.094666	735.894226	44241.699219	34820.484375	78.344925
543.441284	738.717773	43901.542969	34632.871094	78.526260
543.787903	740.203796	43228.058594	34083.996094	78.478409
544.134460	738.866272	42162.410156	33234.269531	78.446701
544.481079	728.315247	40880.984375	32161.039063	78.283028
544.827637	722.668274	39324.273438	30890.687500	78.152237
545.174072	730.024170	37727.878906	29645.150391	78.153519
545.520508	730.692932	36259.878906	28545.099609	78.286072
545.866943	731.361633	35089.832031	27646.484375	78.336212
546.213318	723.114075	34202.582031	26947.218750	78.328918
546.559631	729.206970	33466.683594	26335.115234	78.215889
546.905823	727.126465	32866.839844	25828.814453	78.101776
547.252136	726.532043	32367.751953	25399.937500	77.978683
547.598389	722.593994	31992.150391	25120.634766	78.024902
547.944458	726.977783	31666.408203	24880.117188	78.065880
548.290588	732.624817	31230.548828	24552.740234	78.104057
548.636658	729.058289	30727.296875	24145.187500	78.058350
548.982727	730.915833	30104.861328	23676.710938	78.116150
549.328735	729.281189	29516.978516	23246.201172	78.217163
549.674622	739.757874	28773.951172	22687.072266	78.287659
550.020569	737.974609	28087.468750	22158.630859	78.321945
550.366455	740.872375	27320.962891	21549.646484	78.287071
550.712280	741.689758	26753.212891	21035.025391	78.016716
551.058044	743.621643	26222.171875	20579.328125	77.852570
551.403748	741.318176	25829.039063	20290.810547	77.924545
551.749512	738.866211	25526.552734	20102.601563	78.118355
552.095154	739.163513	25256.978516	19930.142578	78.273613
552.440735	745.404846	25167.072266	19812.375000	78.073990
552.786316	747.708313	25117.662109	19742.306641	77.942696
553.131897	743.918884	25201.697266	19757.093750	77.738770
553.477417	734.482422	25276.150391	19766.009766	77.547813
553.822815	723.336975	25288.562500	19818.466797	77.732361
554.168213	722.816895	25250.146484	19816.015625	77.844589
554.513672	723.262695	25159.943359	19785.107422	78.005051
554.859009	729.429871	25043.062500	19658.197266	77.852486
555.204285	736.414246	24923.062500	19529.060547	77.698433
555.549500	738.197510	24706.025391	19391.078125	77.824661
555.894714	741.615417	24454.585938	19225.531250	77.948547
556.239990	732.996338	24162.130859	19032.865234	78.107323
556.585022	736.785828	23896.646484	18851.269531	78.214996
556.930115	729.355469	23668.462891	18639.654297	78.077576
557.275146	732.550537	23423.634766	18453.898438	78.098289
557.620178	726.011902	23210.460938	18281.886719	78.080078
557.965149	734.185242	23025.150391	18151.783203	78.137474
558.310059	735.894226	22845.115234	18020.861328	78.179901
558.654968	741.169617	22753.650391	17887.787109	77.894981
558.999756	730.990051	22655.273438	17794.908203	77.831131
559.344604	724.822998	22598.056641	17748.169922	77.827301
559.689331	721.033691	22506.591797	17678.400391	77.837654
560.033997	729.058350	22414.306641	17623.714844	77.908524
560.378723	737.083008	22384.658203	17598.228516	77.889305
560.723389	743.398682	22356.572266	17625.570313	78.110565
561.067932	737.528809	22394.914063	17655.738281	78.117508
561.412476	734.556702	22386.666016	17678.251953	78.254250
561.757019	728.612488	22399.744141	17680.779297	78.224648
562.101501	734.036621	22420.697266	17697.421875	78.220367
562.445862	736.562927	22448.486328	17681.595703	78.044823
562.790222	739.683594	22434.740234	17663.093750	78.005836
563.134644	741.838379	22415.494141	17639.615234	77.964592
563.478943	737.677429	22390.156250	17629.732422	78.014420
563.823181	739.980774	22400.115234	17642.068359	78.033165
564.167358	746.816650	22416.906250	17661.904297	78.057304
564.511536	748.228333	22418.541016	17645.410156	77.973869
564.855774	742.655701	22439.421875	17633.818359	77.851059
565.199768	735.968445	22512.609375	17706.041016	77.927872
565.543823	735.522644	22649.031250	17827.154297	77.995872
565.887817	732.996399	22832.779297	17976.056641	78.023666
566.231812	729.429871	23003.304688	18105.269531	78.009956
566.575745	724.971680	23205.333984	18239.236328	77.909172
566.919617	726.754944	23406.767578	18410.208984	77.969330
567.263428	725.417480	23585.244141	18517.427734	77.830902
567.607239	722.891174	23729.984375	18677.845703	78.040955
567.950989	723.782776	23769.812500	18689.289063	77.954887
568.294678	728.092346	23791.134766	18738.552734	78.092300
568.638367	732.624817	23680.724609	18661.128906	78.126312
568.981995	731.287354	23566.148438	18616.398438	78.323715
569.325623	734.185242	23420.958984	18533.845703	78.458313
569.669128	736.711487	23318.349609	18401.439453	78.226067
570.012573	739.906494	23166.177734	18284.263672	78.231270
570.356140	736.265625	23073.671875	18163.447266	78.017929
570.699524	730.470032	22994.984375	18148.958984	78.234306
571.042908	734.036621	23052.939453	18179.498047	78.164513
571.386230	735.151123	23157.484375	18276.238281	78.230431
571.729492	742.729980	23284.021484	18370.232422	78.200943
572.072815	738.643311	23464.056641	18493.798828	78.129074
572.416016	731.138733	23554.333984	18560.373047	78.118919
572.759094	735.076843	23770.630859	18681.634766	77.908081
573.102234	730.247131	23845.005859	18757.796875	77.991508
573.445374	737.677429	23925.103516	18847.552734	78.102135
573.788391	733.962219	23931.421875	18862.712891	78.149727
574.131409	736.488525	23940.412109	18875.119141	78.170532
574.474365	734.779541	23915.369141	18837.748047	78.095375
574.817261	730.990173	23753.615234	18746.427734	78.251015
575.160156	729.875671	23602.109375	18605.251953	78.153175
575.502930	726.754883	23383.958984	18435.322266	78.158661
575.845703	729.801270	23229.408203	18302.914063	78.104088
576.188477	732.253357	22996.171875	18128.824219	78.137955
576.531250	730.172852	22784.111328	17950.498047	78.082764
576.873901	731.584656	22512.312500	17767.710938	78.216515
577.216431	727.795105	22235.982422	17583.515625	78.368858
577.559082	725.714661	22011.810547	17391.072266	78.292221
577.901611	718.730225	21758.810547	17145.279297	78.072655
578.244080	720.067688	21529.064453	16928.685547	77.892357
578.586487	721.925293	21209.042969	16726.283203	78.119125
578.928955	744.290344	20903.287109	16501.517578	78.164742
579.271301	747.856934	20549.306641	16265.460938	78.365997
579.613647	753.281006	20205.359375	15979.765625	78.276901
579.955872	739.832214	19894.107422	15742.590820	78.325905
580.298157	737.603210	19630.408203	15525.627930	78.273315
580.640320	734.928223	19378.074219	15321.147461	78.239037
580.982483	728.463867	19154.052734	15162.734375	78.338173
581.324524	727.200684	18983.230469	15008.854492	78.229797
581.666626	733.962219	18851.269531	14909.881836	78.245186
582.008728	739.386414	18739.443359	14790.921875	78.063835
582.350647	737.083008	18625.908203	14721.747070	78.175423
582.692566	735.374023	18522.330078	14628.942383	78.110992
583.034424	736.340027	18424.251953	14583.023438	78.283310
583.376343	739.534973	18320.302734	14510.875000	78.331848
583.718201	739.832214	18259.595703	14495.198242	78.513420
584.059937	735.002502	18183.212891	14449.354492	78.600334
584.401611	740.723816	18101.626953	14379.657227	78.561203
584.743347	737.528809	17992.923828	14314.493164	78.682434
585.085022	734.259521	17924.861328	14244.128906	78.588692
585.426514	730.990173	17864.082031	14190.557617	78.558891
585.768127	731.064453	17822.771484	14147.089844	78.494354
586.109619	729.652649	17729.818359	14096.862305	78.629875
586.451172	734.110840	17648.162109	14049.531250	78.724014
586.792542	731.733215	17613.759766	14000.043945	78.594299
587.133850	738.866272	17574.154297	13943.872070	78.436478
587.475220	734.333801	17584.630859	13931.686523	78.321190
587.816589	738.866272	17548.445313	13924.405273	78.440628
588.157776	736.934387	17600.531250	13958.731445	78.404366
588.498962	735.894226	17649.496094	13982.583008	78.319740
588.840210	729.578430	17705.966797	14017.655273	78.273872
589.181335	731.956055	17745.498047	14073.010742	78.414322
589.522400	737.900330	17772.988281	14105.332031	78.469986
589.863403	738.346130	17851.302734	14165.292969	78.460709
590.204407	739.832214	17858.287109	14161.281250	78.403389
590.545410	731.361633	17939.576172	14204.672852	78.295815
590.886353	734.631042	17900.865234	14197.317383	78.425392
591.227112	735.299744	17899.822266	14179.559570	78.325851
591.567932	732.030334	17830.945313	14165.145508	78.561218
591.908752	736.934387	17788.740234	14118.038086	78.473228
592.249512	731.584656	17771.947266	14113.875977	78.532898
592.590149	735.225403	17634.189453	14038.682617	78.723503
592.930786	728.983948	17551.341797	13972.850586	78.727768
593.271423	725.565979	17446.277344	13904.342773	78.817085
593.612000	726.532043	17410.314453	13834.721680	78.568451
593.952576	732.253357	17373.759766	13831.155273	78.712242
594.292969	734.779602	17390.179688	13829.296875	78.620255
594.633484	734.705261	17444.048828	13868.975586	78.604347
594.973877	729.058350	17536.333984	13933.097656	78.561447
595.314209	734.779602	17655.367188	14006.434570	78.434952
595.654480	737.083008	17833.767578	14133.566406	78.357208
595.994812	740.352356	18015.585938	14237.961914	78.132713
596.335022	736.562927	18210.111328	14388.127930	78.127037
596.675171	737.974609	18322.607422	14498.094727	78.250824
597.015320	732.030457	18506.357422	14629.239258	78.186981
597.355408	735.448303	18642.255859	14705.698242	78.016426
597.695496	728.389587	18793.906250	14795.752930	77.868584
598.035461	729.727051	18765.447266	14799.020508	78.007935
598.375366	721.479431	18709.871094	14827.924805	78.419708
598.715271	725.417480	18658.007813	14787.281250	78.415131
599.055176	728.835449	18552.349609	14666.836914	78.200081
599.395081	732.699158	18359.236328	14512.139648	78.174408
599.734802	737.603210	18065.814453	14294.506836	78.236023
600.074524	739.534973	17735.761719	14068.254883	78.421638
600.414246	737.157227	17355.925781	13801.285156	78.610680
600.753906	733.813660	16984.783203	13541.596680	78.812424
601.093506	729.652649	16683.189453	13334.440430	79.009361
601.433044	721.479431	16467.117188	13133.823242	78.830368
601.772583	715.015137	16339.613281	12985.588867	78.533699
602.112122	718.581604	16307.664063	12922.803711	78.286980
602.451538	729.578430	16353.956055	12917.676758	78.006935
602.790894	735.299744	16447.873047	13014.418945	78.148369
603.130310	731.584534	16562.597656	13118.590820	78.245186
603.469604	734.036621	16716.849609	13264.893555	78.402077
603.808838	730.767273	16909.072266	13424.941406	78.464180
604.148010	734.408020	17175.373047	13656.988281	78.599892
604.487305	734.259460	17460.025391	13858.274414	78.465851
604.826416	737.751709	17725.582031	14026.718750	78.226395
605.165527	737.454407	17931.625000	14154.000000	78.029625
605.504456	739.014832	18074.357422	14301.788086	78.237701
605.843445	738.940613	18183.583984	14387.161133	78.237320
606.182434	743.547363	18226.529297	14429.215820	78.279938
606.521423	735.076843	18188.859375	14379.062500	78.172081
606.860229	734.185242	18043.523438	14281.502930	78.265945
607.199036	728.761047	17812.369141	14086.458008	78.190147
607.537903	738.494812	17545.994141	13884.281250	78.213814
607.876648	741.987000	17260.523438	13683.291992	78.344131
608.215271	742.952942	16972.080078	13483.937500	78.506897
608.553955	739.832275	16715.662109	13299.964844	78.619591
608.892578	736.860107	16497.060547	13086.790039	78.361504
609.231140	734.259521	16367.774414	12982.840820	78.348221
609.569641	728.389587	16284.780273	12907.273438	78.288620
609.908081	723.559875	16276.977539	12927.410156	78.464104
610.246521	730.024231	16296.742188	12900.067383	78.179893
610.584961	729.578369	16346.450195	12915.448242	78.030159
610.923340	736.117004	16345.632813	12935.063477	78.150703
611.261597	728.166687	16306.772461	12909.355469	78.191780
611.599854	733.739319	16209.881836	12859.721680	78.352745
611.938110	730.618652	16106.823242	12756.959961	78.213982
612.276245	727.126404	15946.702148	12638.223633	78.261688
612.614319	722.593933	15718.815430	12434.487305	78.098961
612.952393	722.148193	15421.379883	12189.659180	78.014359
613.290466	726.086182	15099.799805	11966.527344	78.201370
613.628479	732.773438	14790.848633	11737.229492	78.278542
613.966370	731.807434	14517.562500	11552.512695	78.491928
614.304260	735.002502	14272.958008	11346.247070	78.381439
614.642151	725.343201	14073.901367	11174.385742	78.278435
614.979980	721.999512	13890.372070	11028.975586	78.270691
615.317749	717.615723	13730.993164	10918.785156	78.389877
615.655396	722.668274	13619.539063	10840.767578	78.453911
615.993164	728.538269	13566.265625	10805.325195	78.493546
616.330811	733.219238	13534.835938	10774.414063	78.436928
616.668396	731.287415	13507.417969	10747.516602	78.397987
617.005859	731.361633	13465.510742	10706.948242	78.337288
617.343445	732.179016	13441.584961	10711.554688	78.519608
617.680908	737.157227	13431.406250	10727.678711	78.701164
618.018311	741.763977	13497.237305	10736.372070	78.355446
618.355652	745.627747	13544.122070	10746.179688	78.138504
618.692993	740.575195	13542.933594	10758.883789	78.253616
619.030273	734.482422	13492.629883	10778.204102	78.723984
619.367554	723.559875	13473.386719	10771.071289	78.805084
619.704712	727.869385	13477.843750	10769.065430	78.754639
620.041870	734.928223	13506.749023	10769.064453	78.564659
620.379028	739.237793	13474.129883	10739.343750	78.525246
620.716064	739.906555	13430.217773	10675.963867	78.296402
621.053040	731.807556	13309.028320	10602.776367	78.482910
621.389954	731.733215	13212.211914	10546.899414	78.644150
621.726929	724.748718	13144.002930	10534.639648	78.989372
622.063843	727.200684	13111.308594	10478.245117	78.738373
622.400635	728.389587	13083.890625	10425.118164	78.481064
622.737427	732.550537	13034.034180	10385.588867	78.470520
623.074219	733.962219	12977.118164	10363.966797	78.656227
623.410889	733.367859	12920.425781	10330.678711	78.750023
623.747559	731.213074	12908.239258	10278.816406	78.406693
624.084167	731.213074	12870.643555	10246.940430	78.386932
624.420715	734.853943	12891.374023	10271.906250	78.452156
624.757324	735.299622	12900.140625	10295.608398	78.589676
625.093750	735.448303	12951.039063	10312.178711	78.397606
625.430176	733.590820	12964.933594	10336.623047	78.511673
625.766602	738.271912	12992.351563	10364.486328	78.555183
626.102905	744.884766	13065.911133	10412.412109	78.463654
626.439209	741.318298	13180.559570	10473.934570	78.241234
626.775452	740.426575	13276.335938	10555.370117	78.294624
627.111694	732.847717	13331.468750	10626.923828	78.533005
627.447876	739.534973	13427.245117	10670.093750	78.269119
627.783997	740.278015	13467.218750	10689.932617	78.177895
628.120056	739.757874	13571.987305	10737.487305	77.911087
628.456055	729.727051	13564.778320	10745.436523	78.034042
628.792053	726.086182	13567.454102	10760.297852	78.139740
629.128052	725.789063	13479.109375	10699.741211	78.206711
629.463928	731.807434	13392.620117	10644.311523	78.292793
629.799744	734.928223	13295.135742	10528.472656	77.972801
630.135559	737.083008	13162.058594	10448.820313	78.163033
630.471375	741.318298	13013.750000	10328.524414	78.119858
630.807068	745.925049	12869.007813	10230.890625	78.238892
631.142700	747.113831	12754.581055	10113.046875	78.000900
631.478333	748.302734	12611.102539	10017.493164	78.136620
631.813965	739.386414	12485.382813	9938.731445	78.318985
632.149475	737.380188	12328.901367	9823.264648	78.383881
632.484924	731.213135	12246.277344	9767.909180	78.477165
632.820435	734.110840	12173.014648	9689.743164	78.291000
633.155884	732.922058	12131.257813	9638.845703	78.133545
633.491150	735.374023	12065.499023	9583.638672	78.095032
633.826477	738.940613	12005.461914	9533.559570	78.059753
634.161804	742.730042	11929.971680	9529.992188	78.547173
634.497009	741.912781	11865.401367	9470.996094	78.474335
634.832153	740.278015	11784.709961	9411.034180	78.507942
635.167297	739.163391	11728.536133	9312.286133	78.012848
635.502380	731.361633	11644.277344	9246.230469	78.025612
635.837463	728.018066	11572.946289	9174.825195	77.887161
636.172424	720.736328	11495.820313	9128.906250	78.033455
636.507324	725.863281	11415.648438	9055.124023	77.917946
636.842224	725.640381	11296.020508	9002.739258	78.304649
637.177124	733.293518	11160.492188	8934.976563	78.656631
637.511963	727.869446	11025.706055	8853.987305	78.910919
637.846741	728.389587	10909.200195	8758.878906	78.878685
638.181396	726.011902	10790.463867	8641.852539	78.651482
638.516113	729.652649	10726.787109	8555.438477	78.280289
638.850769	732.550476	10643.939453	8488.937500	78.257324
639.185303	735.002502	10575.952148	8444.058594	78.336510
639.519836	738.123230	10517.921875	8390.262695	78.244347
639.854370	730.470032	10443.097656	8305.187500	77.988342
640.188843	732.922058	10356.461914	8233.633789	77.941299
640.523254	728.018066	10232.599609	8168.023438	78.278091
640.857605	734.556641	10141.355469	8096.395996	78.260834
641.191895	729.727051	10061.554688	8035.616699	78.290016
641.526184	730.024231	10011.028320	7978.181152	78.096687
641.860413	724.154297	9965.333008	7933.895996	78.017555
642.194580	723.708496	9913.097656	7889.091309	77.974533
642.528748	726.532043	9826.980469	7845.029785	78.221397
642.862793	724.748718	9760.777344	7814.194824	78.457550
643.196838	723.559875	9721.545898	7775.036621	78.367271
643.530823	717.392761	9674.363281	7722.431152	78.207672
643.864746	722.222412	9630.152344	7682.083984	78.131073
644.198669	717.838562	9561.050781	7647.904785	78.365944
644.532532	730.247131	9523.750977	7616.549316	78.311241
644.866333	730.841553	9486.153320	7594.853027	78.398254
645.200073	740.129395	9466.018555	7576.648438	78.347542
645.533813	736.042725	9446.476563	7570.778809	78.466087
645.867554	738.271790	9426.786133	7564.908691	78.570816
646.201172	740.723816	9421.064453	7558.444824	78.542091
646.534729	736.785828	9451.973633	7561.787598	78.311592
646.868225	735.819824	9471.813477	7542.468750	77.914993
647.201782	729.504089	9469.807617	7528.574219	77.789864
647.535217	731.956055	9455.169922	7537.044922	78.011261
647.868591	730.915833	9452.197266	7554.729004	78.243240
648.201965	726.532043	9470.549805	7554.209473	78.083984
648.535278	725.714661	9470.996094	7539.125488	77.909569
648.868591	732.402039	9476.198242	7531.026855	77.753700
649.201782	727.497986	9447.887695	7511.336426	77.792839
649.534912	724.228699	9401.968750	7481.392578	77.867783
649.868103	721.628113	9325.585938	7443.126465	78.121002
650.201172	734.705322	9271.122070	7436.290527	78.505829
650.534180	738.643311	9229.363281	7427.375000	78.776970
650.867188	735.374023	9196.075195	7430.867188	79.136383
651.200134	722.222473	9172.819336	7396.092285	78.975128
651.533020	718.953125	9137.301758	7339.027832	78.638641
651.865845	719.770447	9087.446289	7294.372559	78.571426
652.198608	729.058289	9041.898438	7271.486816	78.702690
652.531433	733.219238	9007.718750	7264.205078	78.929070
652.864136	734.779602	8990.704102	7231.810059	78.695366
653.196777	1032.807739	9301.288086	7536.971191	78.662140
653.529358	1049.228760	9252.917969	7516.983887	78.839584
653.861938	1054.058472	9207.147461	7459.473145	78.564270
654.194519	761.974365	8818.915039	7053.482910	78.088066
654.526978	746.147949	8797.218750	7003.849121	77.725082
654.859375	737.974670	8733.020508	6981.038574	78.086655
655.191833	738.197571	8686.656250	6988.542480	78.635933
655.524170	737.974609	8614.508789	6963.948730	79.044586
655.856445	737.157227	8589.617188	6935.787598	78.938705
656.188660	750.383118	8579.883789	6919.068848	78.787727
656.520874	751.943542	8543.624023	6875.675781	78.593216
656.853088	748.302673	8541.990234	6853.979980	78.341316
657.185181	722.668274	8496.218750	6833.026855	78.604477
657.517212	719.176025	8535.376953	6831.540527	78.201218
657.849243	722.519714	8550.163086	6856.134766	78.358391
658.181274	727.126404	8616.664063	6876.717285	77.946152
658.513123	721.776550	8655.524414	6917.509277	78.093391
658.844971	720.216248	8719.499023	6980.889160	78.265427
659.176819	722.816833	8791.794922	7046.424316	78.369370
659.508667	729.727051	8872.858398	7123.104004	78.512512
659.840393	735.002441	8953.477539	7169.841309	78.297241
660.172058	734.482422	8992.634766	7202.757324	78.325935
660.503662	731.510254	9014.331055	7244.292480	78.630005
660.835266	729.281189	9049.700195	7262.719238	78.522942
661.166931	728.092468	9034.170898	7246.447266	78.476929
661.498413	736.711609	9018.715820	7218.286621	78.260956
661.829773	733.962341	8922.940430	7154.609375	78.405960
662.161194	729.949951	8820.625000	7071.242188	78.377792
662.492615	726.011902	8686.210938	6957.558594	78.283806
662.823975	730.692932	8530.175781	6830.648926	78.209747
663.155212	738.791992	8390.188477	6733.683594	78.350296
663.486450	733.590759	8227.912109	6612.421875	78.443810
663.817627	734.408142	8093.943848	6517.091797	78.574028
664.148743	732.401917	7973.275879	6422.058594	78.576935
664.479858	733.219238	7872.596191	6351.248047	78.690742
664.810913	728.166687	7809.735840	6282.889160	78.439148
665.141907	726.309082	7743.235840	6205.688965	78.088028
665.472778	727.646545	7669.675781	6136.884766	77.920128
665.803711	739.237793	7590.320313	6102.110840	78.277748
666.134583	739.980774	7524.859375	6080.786621	78.716309
666.465454	740.946777	7516.017578	6085.392578	78.883987
666.796143	734.631042	7478.271484	6035.386719	78.603775
667.126831	733.070618	7469.207031	6031.820313	78.661552
667.457458	725.194641	7437.703125	5984.415527	78.349556
667.788147	721.776672	7430.644043	5982.855469	78.419777
668.118774	721.256592	7399.882324	5947.486816	78.253082
668.449219	729.429871	7381.158203	5952.614746	78.523727
668.779663	728.389648	7373.728027	5933.518066	78.327515
669.110107	729.801331	7351.585938	5927.276855	78.490555
669.440552	729.652771	7332.415527	5911.747559	78.483734
669.770874	734.408020	7282.781250	5892.800293	78.773643
670.101135	732.327637	7272.973145	5870.286621	78.554314
670.431396	732.550476	7234.187500	5853.122559	78.758194
670.761597	726.903503	7202.979980	5835.363770	78.882027
671.091797	724.971680	7160.404785	5805.865723	78.951859
671.421875	725.640381	7135.587402	5759.947266	78.538971
671.751892	739.312073	7107.724121	5734.758301	78.441002
672.081909	743.918762	7072.355957	5698.052734	78.283684
672.411865	742.581360	7011.947754	5656.368652	78.377731
672.741821	727.943787	6970.635254	5603.464844	78.099663
673.071716	730.470032	6930.884277	5581.396973	78.235527
673.401550	721.479309	6921.298828	5554.945313	77.961395
673.731262	725.863281	6887.564941	5554.574219	78.366516
674.060974	722.742493	6849.076172	5519.131348	78.291344
674.390625	735.522644	6822.847168	5517.199707	78.551376
674.720276	734.779602	6801.670410	5472.395020	78.089676
675.049927	732.773499	6770.166504	5452.481934	78.174614
675.379395	728.835449	6700.173828	5413.844238	78.458267
675.708923	730.098572	6642.738281	5392.965332	78.862694
676.038330	726.829163	6602.019531	5340.062012	78.520569
676.367737	727.126465	6584.855469	5296.371582	78.003693
676.697083	724.600159	6556.620605	5267.542480	77.896545
677.026428	731.064453	6526.007813	5263.678711	78.216713
677.355652	729.504089	6500.447754	5241.462402	78.184067
677.684875	734.110840	6497.550293	5237.524902	78.137611
678.013977	734.036621	6505.203125	5219.543457	77.722710
678.343079	736.191406	6500.002441	5246.515137	78.252457
678.672180	729.058289	6512.335938	5257.883301	78.308968
679.001221	726.457703	6513.524902	5297.857910	78.993385
679.330139	723.931396	6543.617676	5311.678223	78.831512
679.659058	724.228577	6568.286621	5332.408691	78.852402
679.987976	730.024231	6618.291504	5338.650391	78.267952
680.316772	734.110901	6648.979004	5372.903809	78.425972
680.645630	737.305908	6702.997559	5400.767578	78.171356
680.974304	737.900391	6745.498535	5453.373535	78.491821
681.302979	737.751770	6789.485840	5484.135254	78.430138
681.631653	734.556702	6791.714355	5492.457031	78.550049
681.960266	730.024231	6805.832031	5507.095215	78.624458
682.288757	735.894226	6832.877441	5520.617676	78.476898
682.617249	740.798157	6862.524902	5542.760254	78.441299
682.945679	743.993164	6859.924316	5513.187500	77.979858
683.274109	737.751770	6825.894531	5468.902832	77.710907
683.602478	739.460693	6754.117676	5414.811035	77.732620
683.930725	734.482422	6685.833496	5374.687500	77.968933
684.259033	731.213074	6613.759277	5319.926270	78.005562
684.587280	730.395813	6547.259277	5271.109375	78.061203
684.915344	733.367920	6477.934082	5219.469238	78.092957
685.243469	735.819885	6400.064941	5176.894043	78.405403
685.571533	738.420410	6328.882813	5118.789063	78.354317
685.899536	742.061218	6260.895996	5072.052734	78.458435
686.227539	740.649597	6209.478516	5018.925781	78.230209
686.555420	738.569031	6175.596191	4994.257324	78.272339
686.883301	736.785828	6159.992188	4974.269531	78.136131
687.211121	737.231628	6153.974121	4980.288574	78.332260
687.538940	736.860046	6170.692871	4978.133301	78.053070
687.866638	727.497986	6162.147949	4968.399902	78.034500
688.194336	722.593994	6172.104004	4957.923340	77.719452
688.521973	717.169922	6159.844238	4962.901367	78.008186
688.849609	721.182190	6150.853027	4966.691406	78.190910
689.177063	722.965515	6122.172363	4953.762207	78.359596
689.504578	725.714661	6070.160645	4911.483887	78.319984
689.832031	729.281250	6011.089844	4854.048340	78.093842
690.159485	727.423645	5931.957520	4802.482422	78.298248
690.486816	723.411316	5848.070313	4753.145020	78.634178
690.814087	728.909668	5758.833496	4704.551270	79.039795
691.141296	734.259460	5673.161621	4637.158691	79.023613
691.468506	737.008728	5588.828125	4577.196289	79.149429
691.795715	728.983948	5530.425781	4518.794434	78.930679
692.122803	729.949951	5468.531250	4470.720215	78.942833
692.449829	730.767334	5419.194824	4410.015137	78.475090
692.776855	733.145020	5357.300293	4353.247559	78.286789
693.103821	731.064514	5303.430664	4297.149414	77.992111
693.430664	725.120300	5250.304199	4257.248535	78.054909
693.757568	728.166687	5193.388184	4220.542969	78.212830
694.084351	731.584656	5128.299316	4176.704590	78.356682
694.411133	738.346130	5082.306152	4150.029785	78.538559
694.737854	737.380188	5041.067871	4114.290527	78.465508
695.064575	738.197510	5031.482910	4102.179199	78.354492
695.391174	743.027161	4998.195313	4078.625000	78.389336
695.717773	740.055176	4981.774902	4054.550781	78.140373
696.044250	736.562805	4946.258301	4046.303467	78.621857
696.370789	735.894104	4954.653809	4031.962891	78.128860
696.697205	740.500977	4971.074707	4059.677734	78.456894
697.023621	744.587585	5024.201172	4084.272217	78.037056
697.349915	748.079773	5088.695801	4130.859863	77.933174
697.676208	744.364685	5144.720215	4174.623535	77.954132
698.002380	740.723877	5218.354492	4226.710449	77.853371
698.328674	734.853943	5296.817871	4299.006836	78.127602
698.654724	730.172852	5396.309082	4371.674316	78.041046
698.980896	731.807434	5491.045410	4450.509766	78.136513
699.306946	728.389587	5572.927246	4510.992188	78.079742
699.632935	724.154297	5642.548828	4558.100098	77.951164
699.958862	717.838623	5674.498535	4570.657227	77.730133
700.284729	711.522888	5668.331543	4561.889648	77.678345
700.610596	719.844788	5622.041504	4536.032715	77.846489
700.936340	726.829285	5573.818848	4496.949219	77.782707
701.262146	733.144958	5480.197266	4435.055176	77.983345
701.587830	732.253235	5376.767578	4347.897949	77.847641
701.913513	731.584656	5227.196289	4245.285645	78.158463
702.239075	731.658936	5084.312500	4143.714355	78.390244
702.564697	731.658875	4955.768555	4046.897705	78.483727
702.890137	729.727051	4831.608398	3961.746826	78.793594
703.215698	730.618652	4741.033691	3880.905518	78.552643
703.541016	734.036621	4649.789551	3803.556396	78.389008
703.866455	729.875671	4593.765625	3728.956299	77.618172
704.191711	735.299744	4517.085449	3663.049805	77.417130
704.517029	724.080017	4444.045898	3612.821289	77.655045
704.842163	729.652771	4353.099121	3580.722656	78.683929
705.167419	729.875671	4307.700195	3558.506104	79.060066
705.492493	736.711487	4273.000977	3532.722900	79.066246
705.817566	737.454590	4239.564941	3495.868408	78.764336
706.142578	730.395752	4204.716797	3474.543945	78.983727
706.467590	730.692932	4180.345703	3454.333740	78.954056
706.792480	727.795166	4172.989746	3437.541016	78.652908
707.117371	732.253357	4170.908691	3421.937500	78.219070
707.442200	736.785828	4170.760254	3440.512939	78.734634
707.766907	733.442200	4175.441406	3451.584229	78.969864
708.091675	728.612488	4179.750488	3443.634033	78.670326
708.416321	725.045959	4186.141113	3423.052002	77.952377
708.741028	729.058350	4195.800293	3423.200928	77.713966
709.065552	729.652771	4203.676270	3441.405029	78.057968
709.390137	732.179016	4200.704102	3439.696045	78.059608
709.714600	735.374023	4214.598633	3466.073486	78.485863
710.039063	734.110840	4234.660645	3489.776123	78.720924
710.363403	729.652771	4284.443359	3534.951904	78.916016
710.687744	730.544373	4330.362793	3562.666748	78.674034
711.012085	729.949951	4390.398926	3599.223633	78.385841
711.336304	734.036560	4430.076660	3623.297607	78.171799
711.660461	725.789001	4471.240723	3657.105469	78.263359
711.984619	725.937500	4495.686035	3679.990967	78.362083
712.308716	727.200684	4521.469238	3719.000000	78.850487
712.632751	733.070557	4514.559082	3707.557373	78.659149
712.956726	737.528809	4488.478027	3704.436523	79.097519
713.280701	741.689758	4440.330078	3665.798828	79.059029
713.604553	741.095276	4406.151367	3634.517578	78.946198
713.928467	738.791992	4346.412109	3577.675781	78.691315
714.252258	739.757874	4300.642090	3535.100342	78.501358
714.575989	741.466797	4242.091309	3485.912109	78.398735
714.899719	740.500916	4186.066895	3439.918701	78.344681
715.223267	738.643311	4144.902832	3399.720947	78.123161
715.546936	742.061218	4107.974609	3378.693359	78.333336
715.870422	747.856934	4090.439209	3349.938232	77.846443
716.193970	734.556702	4054.699951	3322.149170	77.936172
716.517395	732.922058	4033.968994	3299.635010	77.754509
716.840820	722.445313	3996.297607	3276.081055	78.000946
717.164124	724.080078	3976.755859	3257.430908	77.885132
717.487488	713.826233	3931.505859	3214.038330	77.702332
717.810730	729.652771	3906.762939	3195.016846	77.597687
718.133972	736.637207	3850.515625	3157.865967	77.756050
718.457092	743.175842	3798.355469	3132.454102	78.204185
718.780212	731.881775	3750.653076	3086.535156	78.000389
719.103210	730.395752	3699.383789	3054.882080	78.292206
719.426208	729.801331	3665.279053	3017.730713	77.940613
719.749207	741.838379	3619.360107	3006.213867	78.691864
720.072083	743.250183	3579.236328	2968.022217	78.447914
720.394958	737.900391	3531.088623	2935.254639	78.668320
720.717773	725.640442	3484.723389	2876.852783	77.968384
721.040527	721.702332	3443.782471	2842.079102	77.895454
721.363281	726.309082	3411.238037	2826.624268	78.226097
721.685913	732.030457	3384.340576	2805.001953	78.157204
722.008545	736.711426	3350.755615	2787.466797	78.451439
722.331055	730.470032	3300.526611	2765.472900	79.181252
722.653503	726.829285	3272.589111	2756.927979	79.744316
722.976013	726.457703	3265.604492	2745.411377	79.513077
723.298401	734.259460	3287.672119	2726.909912	78.038719
723.620789	730.990173	3272.588867	2707.814209	77.778763
723.943115	729.801331	3264.415771	2689.610107	77.321770
724.265381	725.789063	3232.985596	2678.018799	77.865044
724.587585	733.962341	3231.128174	2668.879395	77.484520
724.909790	737.900391	3222.583252	2674.006592	77.921661
725.231873	743.844543	3233.877197	2681.808350	77.828850
725.553894	742.581360	3238.261475	2689.015381	77.992126
725.875916	835.757019	3340.798828	2801.063721	78.454048
726.197937	838.357666	3336.637939	2807.305420	78.812126
726.519775	838.431946	3339.833252	2810.797607	78.850433
726.841675	738.569031	3239.895752	2717.101807	79.099335
727.163513	732.922058	3254.384766	2721.782959	78.877266
727.485291	733.813660	3248.217773	2740.135742	79.793144
727.806946	741.318176	3283.288818	2750.760986	79.050591
728.128662	740.129395	3305.876953	2774.835205	79.302650
728.450256	736.562805	3345.703125	2792.147705	78.783989
728.771790	727.423645	3356.402344	2801.658203	78.898872
729.093323	728.389587	3355.139404	2793.039307	78.600929
729.414795	729.801331	3347.931885	2802.252686	79.157677
729.736145	731.287415	3340.873047	2795.565674	79.103683
730.057495	726.903564	3340.650391	2804.407471	79.483749
730.378845	728.463867	3350.904297	2798.240479	78.925591
730.700134	730.024231	3346.000000	2796.085693	78.978615
731.021301	730.024231	3345.257080	2778.401611	78.324860
731.342468	727.200745	3336.489502	2756.705078	77.779984
731.663574	727.646484	3350.235352	2754.847656	77.297714
731.984680	734.631042	3358.928955	2757.151123	77.069000
732.305664	735.671204	3389.838623	2774.389404	76.811966
732.626648	735.671204	3396.749023	2780.630615	76.847038
732.947571	730.321472	3410.792236	2793.336182	76.964638
733.268433	725.863281	3406.482422	2790.810303	77.032463
733.589233	727.423584	3387.981201	2786.352295	77.387115
733.909973	734.556702	3360.637451	2773.274658	77.633484
734.230713	735.522705	3327.498779	2761.832031	78.176239
734.551331	739.460693	3301.195313	2727.430176	77.602478
734.871948	736.339905	3263.746826	2700.235596	77.703979
735.192505	740.203613	3207.500000	2669.845459	78.208755
735.513062	734.185242	3172.057373	2653.350342	78.722961
735.833435	724.971680	3124.503906	2608.248291	78.485153
736.153931	725.863281	3078.956055	2572.211426	78.464745
736.474304	728.835449	3029.693359	2533.574219	78.437645
736.794617	734.779602	2991.353271	2525.400879	79.351334
737.114807	730.395752	2980.356445	2508.757080	79.039665
737.434998	729.206848	2971.217529	2502.961670	79.114471
737.755188	735.968445	2978.350342	2497.463135	78.554626
738.075256	736.265625	2983.551514	2501.846924	78.565048
738.395325	735.374023	2984.591797	2504.075928	78.636314
738.715271	723.114075	2992.913818	2513.512451	78.879135
739.035278	725.640381	3000.938477	2520.868652	78.900795
739.355164	721.033630	3009.185791	2525.846924	78.876457
739.675049	726.680603	3026.944336	2526.515381	78.244713
739.994873	725.863281	3031.699463	2523.989014	77.981506
740.314636	736.860107	3038.089600	2527.184326	77.798592
740.634277	741.764099	3019.885498	2515.295654	77.850616
740.953979	739.014832	2996.405518	2490.330078	77.581398
741.273499	735.076843	2963.266602	2468.485107	77.794464
741.593140	738.494812	2921.062744	2458.528564	78.807800
741.912598	739.609314	2885.546143	2435.345947	79.020805
742.232117	736.340027	2846.166016	2402.578369	78.975151
742.551453	735.448425	2809.608643	2359.037109	78.276917
742.870850	739.460693	2774.909424	2338.752686	78.571960
743.190063	738.866272	2732.854248	2314.232422	79.005798
743.509338	730.098572	2705.882080	2285.625977	78.729645
743.828552	726.234802	2678.910400	2257.539551	78.420845
744.147705	728.389587	2667.467529	2245.799805	78.254211
744.466797	733.144958	2644.359619	2233.837158	78.520340
744.785828	737.008606	2626.155518	2212.958008	78.127823
745.104858	740.649475	2588.186768	2188.735107	78.379234
745.423706	739.609314	2575.406494	2183.311035	78.641678
745.742615	737.083008	2559.356934	2163.175049	78.258926
746.061401	731.956055	2565.078369	2153.070068	77.524231
746.380249	729.652649	2552.447021	2128.698486	76.752808
746.698975	730.618652	2544.571045	2138.506592	77.614380
747.017639	736.191406	2539.146729	2123.868896	76.966827
747.336304	742.729980	2535.357422	2135.608643	77.700401
747.654907	745.330566	2532.236816	2127.881104	77.371185
747.973389	742.952881	2532.236572	2132.265137	77.646278
748.291931	745.776367	2538.403809	2121.639893	76.751228
748.610352	744.216064	2535.282959	2113.986816	76.477921
748.928711	736.562805	2543.233643	2130.259033	77.141678
749.247070	733.219238	2532.013916	2126.766846	77.471191
749.565308	735.448425	2534.540283	2141.255859	78.139839
749.883545	738.717712	2523.840576	2121.194092	77.444328
750.201782	733.590820	2525.252441	2121.491455	77.464439
750.519836	735.374023	2504.596191	2106.927979	77.522995
750.837952	742.432800	2487.878174	2095.633789	77.527550
751.155884	746.073547	2464.472656	2086.123291	77.982452
751.473877	739.609192	2465.364502	2080.624756	77.706009
751.791809	732.179016	2447.828857	2072.525635	78.124718
752.109619	729.281189	2445.005371	2053.132813	77.159935
752.427490	724.377197	2429.550537	2046.817017	77.554565
752.745300	724.897278	2433.860107	2051.423828	77.621735
753.062988	724.525818	2424.126221	2054.321533	78.241669
753.380615	730.470032	2417.439209	2037.529175	77.479721
753.698303	733.070618	2410.974609	2033.516968	77.504211
754.015808	737.454529	2416.398682	2032.030762	77.106567
754.333374	737.974609	2413.872314	2039.386719	77.654625
754.650757	739.386414	2408.894287	2035.820313	77.653656
754.968262	737.677429	2392.696289	2037.529297	78.540001
755.285583	733.962219	2399.309326	2019.770874	77.209641
755.602905	731.956116	2386.009033	2019.993774	77.871605
755.920105	722.296692	2372.560303	1997.554321	77.275986
756.237305	722.148132	2352.647217	2000.972168	78.431450
756.554443	724.377258	2356.362305	1987.449097	77.394814
756.871582	731.287354	2356.065186	1989.009399	77.408859
757.188599	732.699036	2357.253906	1994.136597	77.648193
757.505615	730.395691	2352.944336	1993.244995	77.831223
757.822510	728.389587	2369.885010	2003.721558	77.693306
758.139465	731.881836	2377.910156	2006.842163	77.456764
758.456238	735.596924	2398.937744	2018.136108	77.106216
758.773010	735.299744	2415.656006	2034.036987	77.289406
759.089783	736.488586	2430.962158	2040.501343	76.956802
759.406433	735.968445	2435.643311	2055.659180	77.643715
759.723145	736.934387	2438.020752	2048.971680	77.129379
760.039673	731.658936	2450.949463	2060.191650	77.272148
760.356201	724.005676	2451.915527	2059.820313	77.308121
760.672668	725.714661	2440.770264	2048.377686	77.120712
760.989136	718.135742	2431.110840	2038.123901	77.058220
761.305481	718.433044	2431.556641	2040.501343	77.172974
761.621826	716.575439	2446.565674	2062.940674	77.825020
761.938049	724.525879	2447.977539	2067.918945	77.947823
762.254333	736.117004	2461.351807	2068.290527	77.216942
762.570496	734.928223	2505.933594	2084.785645	76.219841
762.886597	731.807434	2576.521240	2142.147461	76.453056
763.202637	716.352539	2681.362549	2228.487305	76.953033
763.518677	719.547546	2796.680420	2329.910400	77.528160
763.834656	724.080078	2932.951416	2447.160156	78.007263
764.150574	735.596985	3069.594482	2536.026123	77.139290
764.466370	738.420410	3161.878174	2624.743896	77.836037
764.782288	736.562805	3207.722656	2648.297607	77.361847
765.097961	727.572205	3192.119141	2668.061768	78.736160
765.413696	727.572205	3154.447998	2629.573242	78.372406
765.729309	723.411316	3083.488525	2563.740967	77.977516
766.044861	733.442139	2973.074951	2467.667725	77.433479
766.360474	732.179016	2830.785156	2364.684082	77.789970
766.675903	739.014893	2695.405273	2266.530029	78.078239
766.991394	727.795166	2585.437500	2175.955322	77.956886
767.306763	724.674500	2504.373291	2095.708252	77.037407
767.622131	728.241028	2426.057861	2028.687134	76.595192
767.937378	737.528809	2356.510986	1972.662720	76.290764
768.252625	745.999329	2300.783691	1938.409546	76.692955
768.567810	740.426575	2245.948242	1911.511719	77.786003
768.882996	734.631042	2199.509033	1878.744507	78.102997
769.197998	725.343079	2150.246338	1843.970703	78.505516
769.513062	731.138855	2128.327148	1819.302124	77.882370
769.828064	732.996338	2101.281006	1799.314819	77.931038
770.142944	735.225403	2085.529053	1785.048462	77.747177
770.457825	732.327637	2054.544678	1766.175659	78.190491
770.772705	733.962219	2037.380737	1743.661987	77.465508
771.087402	734.036621	2007.288086	1720.702271	77.491814
771.402100	735.522644	1976.600952	1694.919312	77.303474
771.716736	737.900330	1953.567017	1683.328125	77.770309
772.031372	740.946777	1944.799316	1676.195190	77.687958
772.345947	740.203674	1936.477539	1673.445923	78.012421
772.660461	731.064453	1924.291870	1655.390259	77.464348
772.974854	726.754883	1898.508789	1629.310059	77.026001
773.289246	729.652771	1887.363403	1613.557983	76.349403
773.603638	727.795227	1863.437988	1602.561035	77.028252
773.917908	725.268860	1855.264648	1597.880005	77.222511
774.232178	720.736389	1844.564941	1586.883179	77.071075
774.546265	727.349304	1840.478394	1577.669556	76.390083
774.860474	730.321472	1826.583618	1571.651245	76.745308
775.174561	722.891113	1810.757324	1566.598633	77.556183
775.488586	730.024231	1804.961792	1568.010376	77.956734
775.802551	739.386414	1805.630493	1568.604858	77.770035
776.116516	747.411072	1795.748047	1558.425293	77.361984
776.430359	743.770203	1779.773071	1548.840210	77.709244
776.744202	736.488586	1768.256226	1527.143921	76.631149
777.057922	736.488586	1758.968262	1513.026367	75.946526
777.371704	739.906494	1752.355347	1495.862427	74.666084
777.685303	744.290344	1732.070679	1492.518921	75.748482
777.998962	740.055176	1720.702515	1496.976929	77.185928
778.312500	729.504089	1710.448608	1496.382446	78.177544
778.626038	729.429871	1712.752075	1508.493774	79.227737
778.939453	735.894104	1723.823120	1501.360840	77.481956
779.252869	740.426575	1724.937622	1515.626953	78.739632
779.566223	732.476257	1716.318726	1492.518677	77.252449
779.879578	729.875671	1707.253540	1489.695313	77.740623
780.192749	725.566101	1698.263062	1476.915161	77.243896
780.505920	730.692871	1700.120605	1478.624146	77.151833
780.819031	728.835388	1683.328125	1481.224731	78.826096
781.132141	740.946716	1678.944336	1485.460083	79.372627
781.445190	735.671204	1665.569824	1483.528198	80.423500
781.758118	735.745605	1669.433472	1473.645874	79.030724
782.071045	724.600159	1657.990845	1459.454102	78.729515
782.383911	727.869446	1651.526489	1446.971191	77.853760
782.696838	729.132629	1634.213989	1441.249878	78.679916
783.009583	735.374023	1635.254395	1423.194336	76.434639
783.322266	731.807434	1626.635254	1416.655640	76.534073
783.634888	732.104736	1621.136841	1413.237793	76.615128
783.947510	726.606262	1612.071899	1414.649414	77.704109
784.260132	729.132568	1600.629272	1415.689819	78.779099
784.572571	725.194519	1590.078247	1405.212891	78.625412
784.885010	725.937561	1578.858398	1399.788940	79.005150
785.197449	729.281250	1577.818359	1378.166870	76.471092
785.509766	729.355530	1572.394165	1374.377441	76.511551
785.822083	731.733215	1563.180664	1372.296997	77.042007
786.134277	730.915833	1559.242676	1378.241211	78.148544
786.446533	743.398743	1549.063110	1375.194824	78.419266
786.758606	738.791992	1544.530762	1370.365112	78.384354
787.070740	736.191406	1543.936157	1373.708618	78.925575
787.382690	721.033691	1550.474976	1365.981079	77.756844
787.694641	722.668274	1569.422241	1371.405273	76.614578
788.006653	720.736511	1588.294922	1383.442383	76.387466
788.318481	724.451477	1619.650757	1404.172852	75.929619
788.630310	723.782776	1634.065430	1419.182007	76.393768
788.942017	723.857117	1664.603882	1427.206665	74.765022
789.253784	728.538147	1677.161011	1444.296387	75.452347
789.565430	732.327637	1685.334106	1449.051758	75.206635
789.877014	736.042725	1665.941040	1450.017578	76.779884
790.188538	730.321472	1652.046509	1435.008423	76.453056
790.500061	732.847839	1632.950806	1417.918945	76.110306
790.811462	733.665039	1605.904663	1400.011841	76.394928
791.122925	735.522644	1584.876953	1382.996582	76.231316
791.434204	727.349365	1555.899048	1363.306396	76.755447
791.745483	731.436035	1543.267578	1348.222778	75.974724
792.056702	724.748718	1520.976685	1336.408691	76.819702
792.367920	729.652649	1513.620728	1333.956665	77.082733
792.678955	724.451477	1496.679688	1326.675171	77.985199
792.990112	734.036621	1488.432251	1322.439819	77.996635
793.301086	737.751709	1475.057617	1317.090088	78.575035
793.612122	741.466797	1466.290039	1312.780640	78.821129
793.922974	743.250061	1462.723267	1303.121094	77.816803
794.233826	736.042786	1461.237305	1295.913696	77.202858
794.544556	732.624817	1454.921753	1290.935425	77.296547
794.855286	726.754883	1450.240601	1294.056152	78.412231
795.166016	736.860046	1459.008179	1300.371948	78.032730
795.476624	738.346130	1469.113403	1292.421509	75.821045
795.787292	741.169678	1475.949219	1293.461792	75.164330
796.097778	730.247131	1481.967773	1293.536011	74.933273
796.408264	732.699036	1497.274048	1314.860962	76.141899
796.718689	735.968445	1513.843628	1319.170532	74.973740
797.029053	739.089172	1519.119141	1319.170532	74.366547
797.339355	737.231628	1515.106812	1323.925903	75.422676
797.649658	726.457703	1509.385376	1335.368530	77.773575
797.959839	729.949890	1498.834473	1327.789551	77.754150
798.270020	729.504089	1488.134888	1318.353027	77.619965
798.580078	738.717590	1477.658203	1307.430542	76.963280
798.890137	730.470032	1466.215698	1310.179810	78.792145
799.200195	721.925293	1465.621216	1300.520630	77.799988
799.510071	719.027527	1454.475708	1291.678589	77.864227
799.820007	721.405090	1450.834961	1281.276001	76.754593
800.129883	727.126465	1439.912476	1275.406128	76.920654
800.439575	726.606262	1432.853516	1268.198853	76.685974
800.749329	731.956116	1423.045532	1262.923462	76.830482
801.058960	735.522644	1415.986938	1258.465332	76.850861
801.368591	735.745544	1400.383423	1250.217651	77.406380
801.678162	732.624817	1393.919067	1243.901855	77.314606
801.987671	724.228699	1388.866577	1233.796631	76.668503
802.297119	723.336975	1391.095581	1226.217773	75.308769
802.606506	725.566101	1389.758179	1225.400513	75.254501
802.915894	729.355530	1383.293823	1222.279785	75.377792
803.225159	726.754883	1376.755249	1221.833984	76.165970
803.534424	728.835449	1364.569580	1224.137329	77.910225
803.843628	729.801331	1355.058716	1229.041382	79.845528
804.152771	737.083008	1360.557129	1231.121826	79.239670
804.461792	741.987000	1366.278442	1225.103149	77.386314
804.770874	741.912659	1369.101929	1227.406616	77.407883
805.079773	744.810486	1367.690308	1228.372559	77.633286
805.388733	737.751648	1371.405273	1237.734741	78.904793
805.697571	742.581360	1385.968750	1239.146484	77.179802
806.006470	738.420410	1389.981079	1246.576782	77.990646
806.315125	744.141785	1395.256470	1248.062866	77.393600
806.623901	740.129395	1394.810669	1251.703735	78.140976
806.932495	737.008728	1393.844727	1253.561279	78.642548
807.241150	733.442200	1392.061523	1247.394165	78.034752
807.549622	732.624817	1385.671509	1243.084595	78.165894
807.858154	727.795166	1388.643555	1226.292114	75.432877
808.166565	719.176025	1379.950195	1220.867920	75.924866
808.474915	721.999512	1373.114258	1216.186890	75.898659
808.783264	726.086243	1358.625366	1213.957764	77.129066
809.091492	726.086182	1359.219727	1206.304688	75.847900
809.399719	723.485596	1358.625244	1196.273804	74.438469
809.707825	727.795166	1358.179565	1194.044800	73.962746
810.015930	737.231628	1349.114380	1188.546387	73.758369
810.323975	738.569031	1338.117676	1187.357544	74.854393
810.632080	742.358459	1329.647095	1185.351196	75.430153
810.939880	736.860046	1310.402710	1189.958008	78.999870
811.247864	732.773438	1299.480225	1181.859009	79.244781
811.555664	722.371094	1296.285278	1174.651733	78.806320
811.863464	718.284424	1292.198608	1164.323730	77.718819
812.171143	718.581604	1294.204834	1161.797363	76.997543
812.478882	720.439209	1287.740479	1157.413574	77.026863
812.786438	729.132629	1293.981812	1160.385620	76.348343
813.094055	725.714661	1288.334839	1154.515747	76.215019
813.401489	734.110901	1280.235962	1155.110107	77.088425
813.708984	733.219238	1275.926392	1143.964722	75.684555
814.016357	746.073547	1280.161499	1139.878052	73.734016
814.323730	734.928223	1279.195679	1138.689087	74.184273
814.630981	727.795166	1272.062622	1142.775757	76.245712
814.938232	720.662109	1261.363037	1143.816040	78.260254
815.245361	728.984070	1269.164917	1141.141235	76.299850
815.552490	736.860046	1269.313477	1139.432251	75.607025
815.859619	737.528809	1267.604492	1142.404419	76.380714
816.166565	730.767273	1262.254761	1142.775757	77.519882
816.473572	728.909668	1259.579712	1141.289795	77.709328
816.780457	731.658875	1264.186523	1142.850098	77.214996
817.087341	741.169617	1262.477539	1147.382690	77.921906
817.394043	736.562927	1276.892212	1152.583862	76.993965
817.700806	735.076843	1284.768433	1153.104004	76.047585
818.007507	735.299744	1296.656860	1151.543579	74.149559
818.314209	739.312073	1305.573120	1150.206177	72.562668
818.620667	735.522644	1308.842407	1159.791138	74.002068
818.927246	725.268860	1319.541992	1171.753906	75.131287
819.233704	726.903503	1334.030884	1198.354370	77.652710
819.540161	734.853943	1358.699585	1217.598755	77.382095
819.846497	742.358582	1394.662109	1236.991699	75.828674
820.152832	743.175781	1444.816406	1266.489868	74.584351
820.458984	738.717590	1505.967407	1305.053101	73.813705
820.765259	737.380188	1568.307617	1361.523193	75.114021
821.071350	739.014832	1650.932129	1427.281128	75.474640
821.377502	728.018066	1792.850464	1545.125122	76.735741
821.683472	730.395752	2050.680908	1746.188354	76.937363
821.989441	727.646484	2488.546875	2077.504150	76.657242
822.295349	735.374023	3109.420654	2524.880859	75.377914
822.601196	736.934387	3827.333252	3048.938232	74.812477
822.907043	738.717590	4476.516113	3529.156250	74.654602
823.212769	738.420410	4881.540527	3851.258545	75.132706
823.518494	732.550537	5014.765137	3944.582764	75.008667
823.824097	726.457703	4883.917969	3847.989258	75.082649
824.129700	730.693054	4620.960449	3655.025146	75.170464
824.435242	729.281250	4293.359863	3423.200439	75.585289
824.740723	736.414246	4002.390381	3211.809326	75.793419
825.046082	736.191406	3729.030518	2994.250732	75.448738
825.351501	741.318298	3429.665039	2783.973877	75.981850
825.656799	733.665100	3091.141846	2538.255127	76.547523
825.962036	731.510254	2774.612061	2311.557373	77.335701
826.267212	729.875671	2542.787598	2131.819092	77.331024
826.572449	739.757874	2401.018066	2023.485840	77.274345
826.877502	740.129395	2360.745850	1989.306641	77.080376
827.182495	734.705322	2435.643311	2030.321777	76.170708
827.487488	727.572266	2562.923828	2124.909180	76.134567
827.792419	728.463867	2680.024902	2202.704102	75.541588
828.097290	739.312073	2706.773682	2230.344727	75.784584
828.402100	738.940613	2667.095947	2187.249023	75.113678
828.706848	734.556641	2561.363281	2116.587158	75.652809
829.011597	728.240967	2438.169678	2010.037109	74.961967
829.316223	728.389587	2297.068604	1906.607910	75.108948
829.620789	736.934387	2162.060547	1802.658325	74.781013
829.925354	739.460693	2024.972046	1719.736450	76.255707
830.229797	737.157288	1901.703735	1627.898438	76.488251
830.534302	739.832214	1773.234375	1541.707397	77.595657
830.838562	733.813660	1646.250977	1438.946655	77.280159
831.142944	733.516418	1537.917603	1354.315796	77.175346
831.447144	726.531982	1456.779175	1279.864380	75.773300
831.751404	722.296692	1396.445313	1240.112427	76.810326
832.055542	721.627930	1365.163696	1220.273560	77.485298
832.359619	721.107910	1345.250732	1206.973511	77.845261
832.663635	724.525818	1348.222900	1210.242798	77.877068
832.967651	727.497864	1365.163940	1224.583130	77.953850
833.271545	726.234863	1429.807251	1270.725220	77.389389
833.575439	726.457703	1521.348267	1334.031128	76.434853
833.879211	727.275085	1644.913696	1421.113770	75.611320
834.183044	729.949890	1764.689819	1519.267700	76.281754
834.486694	731.064453	1861.729004	1585.545898	75.573380
834.790344	735.671204	1913.072144	1620.616699	75.160934
835.093933	732.773438	1907.350708	1609.694336	74.658424
835.397522	738.643372	1861.580078	1592.307251	76.020653
835.700928	742.432800	1784.305542	1551.886719	77.692200
836.004395	748.451355	1722.634277	1511.168579	78.293022
836.307739	750.234619	1667.576050	1462.128906	77.604073
836.611023	748.228333	1613.855103	1413.015015	76.798302
836.914307	741.020996	1549.731812	1351.938110	75.542099
837.217529	745.404968	1473.422852	1296.136597	75.648094
837.520691	740.352295	1400.457642	1240.112427	75.709145
837.823730	739.757874	1337.820435	1197.165405	76.481552
838.126831	732.996338	1284.991211	1153.698364	76.214844
838.429749	734.036621	1241.078369	1123.085571	76.729172
838.732727	736.117004	1200.360474	1096.633789	77.656837
839.035522	735.299805	1182.379272	1086.157104	78.477615
839.338379	727.052185	1169.524902	1068.473022	77.162010
839.641113	729.578430	1167.964478	1062.157349	75.864395
839.943848	731.807434	1181.710571	1064.386353	73.922340
840.246460	733.516541	1202.143677	1091.729858	76.438873
840.549072	730.321472	1224.285889	1114.763794	77.827942
840.851563	720.810730	1239.815063	1132.819336	79.384422
841.154053	723.931396	1245.833618	1125.240356	76.893517
841.456482	730.172852	1244.421997	1119.890625	75.783844
841.758850	736.191345	1229.709961	1102.503784	74.224648
842.061157	735.299622	1202.589478	1094.924927	76.959793
842.363403	731.807434	1175.914795	1073.079956	76.844597
842.665588	730.470032	1147.159668	1053.612549	77.549927
842.967712	729.801270	1144.633423	1038.380493	74.386528
843.269775	725.417419	1131.778931	1033.922363	75.918839
843.571777	729.949890	1116.621216	1024.560181	76.191399
843.873840	731.064453	1084.596802	1001.897888	76.607826
844.175659	736.488586	1059.408203	982.059082	76.046944
844.477600	735.596924	1042.838745	969.799133	76.227318
844.779297	731.658875	1032.807739	963.334778	76.930695
845.081116	733.219238	1026.269165	962.294495	78.169365
845.382751	737.380188	1013.786316	958.430725	79.973099
845.684387	745.999329	1009.699646	952.040710	78.134674
845.985962	739.237732	1000.337585	939.483582	76.693207
846.287537	736.934387	992.684387	935.842773	77.774544
846.588989	734.556702	981.093079	935.545593	81.525047
846.890381	737.825989	982.430481	936.957275	81.409500
847.191711	735.819824	974.554443	929.527039	81.139137
847.493042	732.624817	981.390320	924.548828	77.150574
847.794250	735.819824	969.353271	918.753113	78.332802
848.095459	736.637207	976.114807	918.158691	75.798943
848.396606	739.683594	966.975586	911.397156	75.547562
848.697693	733.590820	967.124207	910.134033	75.596565
848.998657	732.476257	965.786804	904.932861	73.917191
849.299622	738.271790	970.467834	913.254700	75.359985
849.600464	736.860107	974.034424	911.545715	73.652832
849.901367	727.869446	967.272766	910.134094	76.132881
850.202087	718.730286	956.053040	900.400391	76.549805
850.502808	719.398987	947.582581	903.372559	80.625244
850.803467	729.058350	948.622803	905.824524	80.507645
851.104065	732.401917	949.217285	909.836853	81.836884
851.404663	730.395813	957.167664	909.093811	78.800781
851.705139	723.039734	962.443115	903.149597	75.232796
852.005615	722.371094	964.746521	905.898743	75.720406
852.306030	727.349304	960.585510	895.719238	72.188591
852.606384	729.504150	955.830139	896.388000	73.736053
852.906616	727.200684	955.458679	898.468506	75.032562
853.206909	728.984070	951.372070	906.418945	79.786171
853.506958	735.745605	942.752930	906.641907	82.555679
853.807129	742.952942	940.226746	902.480896	80.866264
854.107178	748.525574	937.774658	903.892639	82.096603
854.407166	749.714417	944.016052	905.378662	80.114738
854.707092	750.680420	950.628967	909.242371	79.301376
855.007019	748.079773	950.108887	904.189758	77.271034
855.306763	745.776428	946.393738	899.062927	76.407417
855.606567	741.912659	936.511414	887.991760	75.066826
855.906250	737.083008	942.827209	882.939270	70.892036
856.205933	735.745605	945.576416	878.555420	68.059509
856.505493	743.101563	946.319519	873.205566	64.021904
856.805054	747.188171	946.542297	873.502747	63.361908
857.104492	742.061340	946.616699	872.536804	63.784916
857.403931	735.522644	947.062500	879.892822	68.247269
857.703308	731.213074	944.461914	884.499573	71.881516
858.002563	735.299805	943.124512	886.282898	72.649254
858.301819	728.761169	938.814941	886.357178	75.026505
858.601013	727.869446	936.139954	886.357178	76.097061
858.900208	724.971680	935.322693	892.821533	79.795128
859.199219	726.383484	935.471252	895.645020	80.952385
859.498291	732.253235	939.855164	892.821472	77.344292
859.797302	725.937683	938.071960	891.186829	77.898369
860.096191	735.745605	941.192627	884.648193	72.477364
860.395020	725.863281	932.945007	891.186768	79.834900
860.693787	736.860107	935.842773	888.066101	75.989532
860.992554	722.445313	926.406311	889.106262	81.712166
861.291260	723.931458	927.149353	881.676025	77.623367
861.589844	720.513489	924.177246	882.939209	79.751900
861.888428	728.686768	935.917175	877.069336	71.602699
862.186890	728.983948	938.369141	877.886658	71.114250
862.485413	724.154297	943.644592	876.549255	69.431297
862.783813	720.290588	944.016113	884.945374	73.596779
863.082153	716.278259	944.610535	882.270508	72.697670
863.380371	728.315247	937.551758	887.545959	76.100822
863.678589	729.949951	930.715881	888.957703	79.200562
863.976746	734.928162	928.263977	895.199219	82.897758
864.274902	729.206848	936.139954	899.508789	82.298065
864.572937	729.578430	943.644531	901.217712	80.180504
864.870911	731.213074	946.690979	907.756348	81.931030
865.168884	733.145020	938.146179	902.703796	82.711128
865.466736	729.429871	934.579651	898.171204	82.252747
865.764587	732.922058	929.304138	888.809082	79.379456
866.062317	733.590759	939.483582	895.273438	78.527596
866.360107	734.408142	942.455750	899.434387	79.321388
866.657715	726.829163	946.022278	895.496399	76.949150
866.955322	726.011902	934.282410	887.545959	77.559738
867.252808	727.869446	928.486816	882.790588	77.222198
867.550293	735.968445	930.121399	887.545959	78.071190
867.847717	733.739319	935.322693	884.573914	74.824921
868.145081	734.259460	936.139954	883.756531	74.052261
868.442383	727.943787	933.167908	878.183777	73.207764
868.739624	726.680603	932.424988	884.871094	76.886902
869.036804	723.634216	937.180237	885.539734	75.817627
869.333984	727.497986	938.889221	887.620300	75.746902
869.631042	724.451477	942.901550	875.211731	69.013596
869.928101	723.262695	933.539368	870.307800	69.929344
870.224976	717.318542	942.752869	868.375916	67.007263
870.521851	715.832520	951.372009	879.967102	69.684532
870.818726	720.810730	959.025146	893.118652	72.333122
871.115479	725.491882	957.241943	903.595398	76.851547
871.412231	719.621887	950.926208	896.313782	76.389359
871.708862	717.912903	944.833435	896.611023	78.749207
872.005493	720.587830	939.483643	892.821472	78.682930
872.302063	731.361633	939.335022	899.880188	81.028900
872.598572	730.544373	949.068665	891.929871	73.852432
872.895020	724.971680	951.149109	896.759521	75.952690
873.191406	726.383362	951.892151	892.450012	73.640877
873.487671	724.228699	952.412292	897.651184	76.001297
873.783997	724.154297	965.266663	894.158936	70.508469
874.080200	725.491760	967.644287	899.285828	71.770493
874.376343	736.785828	970.096252	898.988586	69.522293
874.672424	745.553467	958.356445	907.533447	76.117348
874.968445	744.141785	954.418457	913.923523	80.742073
875.264465	735.894226	952.189453	918.530273	84.438316
875.560364	735.596985	960.288391	911.991699	78.505325
875.856201	732.847717	967.792969	902.109375	72.043022
876.152039	730.098633	975.074646	903.298157	70.700607
876.447754	725.640442	966.529785	904.264160	74.151772
876.743469	730.172852	964.226379	916.004089	79.396896
877.039063	739.609314	962.294617	911.397217	77.143799
877.334595	737.974670	958.430847	910.134094	78.092354
877.630127	735.374084	961.254333	905.007141	75.098671
877.925537	727.943787	961.402832	902.703796	74.856819
878.221008	725.417480	967.941467	912.214539	77.022095
878.516296	723.336914	966.232605	913.774902	78.403198
878.811646	720.587708	965.266602	927.372253	84.512619
879.106812	727.572205	977.675232	931.161682	81.402245
879.401978	719.844727	994.690613	945.650696	82.157303
879.697083	725.714661	1013.934875	956.721863	80.149551
879.992126	724.823059	1037.191650	963.483398	76.403435
880.287109	734.705322	1076.646362	982.802063	72.555412
880.582031	734.779602	1136.608643	1030.578735	73.613182
880.876892	728.538147	1242.861572	1124.645996	77.015320
881.171753	734.556641	1417.473022	1264.409424	77.586777
881.466492	736.265625	1695.810913	1464.209473	75.863419
881.761230	739.163513	2037.083374	1708.442505	74.679413
882.055786	737.157227	2387.940674	1964.712524	74.361984
882.350403	732.401917	2656.693604	2161.540283	74.268280
882.644958	734.259521	2799.132080	2264.598145	74.112984
882.939453	729.875671	2814.289795	2279.458740	74.341423
883.233826	734.779602	2752.544189	2234.431396	74.322433
883.528137	726.829285	2647.182861	2167.187500	75.004845
883.822449	725.045959	2534.614258	2094.445068	75.675461
884.116577	724.228699	2434.008545	2018.061890	75.672508
884.410828	729.281250	2326.789795	1946.656860	76.204636
884.704956	736.042725	2203.298584	1843.673462	75.489952
884.999023	737.974609	2006.396362	1723.600220	77.704880
885.292969	737.677429	1802.360962	1557.385132	76.990730
885.586914	734.185242	1602.561157	1407.739258	77.564796
885.880798	730.692932	1461.088867	1285.288452	75.930809
886.174622	730.692932	1352.086670	1210.317017	77.185211
886.468384	730.024231	1271.542480	1152.806763	78.073555
886.762085	728.538147	1221.685181	1113.129028	77.987061
887.055664	729.504089	1182.230591	1074.417358	76.185791
887.349304	725.343079	1148.868652	1046.256592	75.771935
887.642822	721.033508	1101.686523	1019.656250	78.450119
887.936340	720.885010	1076.200562	1010.962830	81.639496
888.229736	716.352539	1059.185181	995.136414	81.317772
888.523071	720.662109	1054.801392	984.511047	78.963760
888.816284	725.343201	1037.860352	964.375000	76.485977
889.109619	734.185120	1018.021545	961.105713	79.947662
889.402710	736.191406	1008.659363	946.393799	77.147568
889.695862	735.299744	999.594482	943.124512	78.633713
889.988892	724.823059	986.220032	927.000793	77.345093
890.281921	704.166870	958.950989	909.688171	80.664879
>>>>>End Processed Spectral Data<<<<<
