Jaz Data File
++++++++++++++++++++++++++++++++++++
Date: Fri Jun 04 16:18:46 2021
User: jaz
Dark Spectrum Present: Yes
Reference Spectrum Present: Yes
Processed Spectrum Present: Yes
Spectrometers: JAZA3586
Integration Time (usec): 40000 (JAZA3586)
Spectra Averaged: 10 (JAZA3586)
Boxcar Smoothing: 1 (JAZA3586)
Correct for Electrical Dark: No (JAZA3586)
Strobe/Lamp Enabled: Yes (JAZA3586)
Correct for Detector Non-linearity: No (JAZA3586)
Correct for Stray Light: No (JAZA3586)
Number of Pixels in Processed Spectrum: 2048
>>>>>Begin Processed Spectral Data<<<<<
W	D	R	S	P
191.335022	0.000000	0.000000	0.000000	0.000000
191.713211	302.709259	311.922791	299.142792	-38.709015
192.091385	614.260559	623.697021	607.721985	-69.290527
192.469528	925.737549	936.511475	921.948242	-35.171085
192.847641	941.043945	939.334961	938.591980	143.475006
193.225739	943.644531	952.486572	944.016113	4.202446
193.603790	944.016113	964.152100	944.759094	3.689816
193.981842	948.622864	970.021973	945.650696	-13.889214
194.359863	958.876648	966.455505	947.879822	-145.098740
194.737854	973.662903	971.953857	951.297668	1308.639038
195.115829	975.297607	974.554504	954.121155	2849.733154
195.493774	979.532715	978.195313	953.006653	1983.401733
195.871704	981.613220	970.690735	949.365906	295.237885
196.249603	985.922791	974.554504	943.941711	369.282379
196.627457	980.721680	972.399658	952.932373	333.924957
197.005310	977.675293	975.000305	956.721863	783.309387
197.383133	973.142761	974.108704	962.666077	-1084.607666
197.760910	981.613220	970.913757	959.916809	202.780380
198.138687	975.669006	967.867249	962.220215	172.381561
198.516449	972.771179	966.158203	962.071594	161.796814
198.894180	962.220215	971.582336	955.978760	-66.667099
199.271866	966.083984	966.381104	956.944763	-3075.945068
199.649536	964.152161	962.591736	955.681641	542.834229
200.027191	959.545410	962.071594	958.430847	-44.120419
200.404816	956.053040	967.272888	959.694031	32.451340
200.782410	950.777649	981.687683	966.158386	49.759689
201.159988	955.755920	997.811279	971.359558	37.102615
201.537537	953.303955	1012.523193	973.068420	33.375076
201.915070	964.523621	1007.321960	964.375000	-0.347258
202.292557	958.282227	998.182678	967.792969	23.836176
202.670029	960.659912	993.501648	970.319275	29.411852
203.047485	948.771484	991.049622	977.898132	68.892929
203.424911	953.303955	989.563660	977.898132	67.827850
203.802292	955.904541	989.340637	975.223328	57.778236
204.179688	961.254333	992.015625	974.183105	42.029354
204.557037	959.768250	994.764832	965.786804	17.197550
204.934357	958.653748	996.176575	965.935364	19.405830
205.311661	961.848694	999.074402	966.752747	13.173833
205.688934	962.294617	996.993958	975.446106	37.901264
206.066177	960.362732	998.405701	971.805359	30.078165
206.443390	955.681641	1001.600647	971.582336	34.627701
206.820587	951.743591	1001.600647	968.164368	32.935711
207.197769	950.331848	991.272644	966.381165	39.201283
207.574921	950.480286	994.319031	963.780579	30.339128
207.952042	943.793152	992.387024	963.409119	40.367161
208.329147	939.112061	993.353027	966.752686	50.958946
208.706223	954.492676	992.535706	981.018799	69.726631
209.083267	968.535889	993.724609	974.851746	25.074148
209.460297	972.102356	994.021790	976.114807	18.305450
209.837280	954.715576	986.740051	964.672180	31.090609
210.214264	943.644531	987.334473	971.136536	62.925247
210.591217	945.204895	989.563660	964.449280	43.383499
210.968124	945.873596	985.402649	967.792969	55.451298
211.345016	956.870422	987.260254	965.340881	27.872675
211.721893	954.938660	991.495605	970.913574	43.698711
212.098724	953.824036	997.439758	975.594727	49.914776
212.475555	952.560852	995.210632	979.978516	64.285591
212.852356	950.480408	987.928955	978.641113	75.198395
213.229126	952.858093	983.990906	967.495789	47.016937
213.605865	942.678528	983.247864	961.700012	46.886360
213.982590	943.124451	986.219971	964.969421	50.689655
214.359283	946.319519	983.247864	961.774414	41.851036
214.735931	942.381409	982.727783	969.278992	66.666664
215.112579	937.700378	985.105469	966.009705	59.717903
215.489197	934.876770	988.895020	970.690735	66.299751
215.865799	950.108887	995.507813	970.913635	45.826523
216.242355	955.755859	994.913391	971.656677	40.607304
216.618896	955.012878	990.455261	972.399719	49.056637
216.995407	939.557922	978.715393	969.501953	76.470802
217.371902	937.105957	977.898132	969.947693	80.509888
217.748367	939.409363	982.579163	964.597900	58.347591
218.124802	948.622864	984.511047	964.375000	43.892265
218.501236	951.966492	989.637939	959.916809	21.104359
218.877609	951.297852	990.009460	970.170593	48.752151
219.253983	951.817932	995.804993	966.604065	33.614731
219.630295	947.285339	992.387146	961.700134	31.960571
220.006592	949.068604	994.839111	955.681641	14.448250
220.382889	951.743591	992.164246	959.545410	19.301565
220.759140	955.087158	987.706116	972.399719	53.075150
221.135391	945.427795	989.712219	973.811523	64.094154
221.511581	942.158447	992.015625	975.966248	67.809296
221.887772	938.889160	997.216797	972.771240	58.089237
222.263931	945.873718	998.108459	978.864075	63.157883
222.640060	939.780823	1005.538757	971.285217	47.909649
223.016159	939.037842	1010.888489	975.074646	50.155155
223.392212	940.895447	1009.328125	969.278992	41.476597
223.768265	952.858093	1001.303467	969.799133	34.969368
224.144302	959.916809	992.758728	963.186218	9.954988
224.520294	958.802246	991.569824	957.836426	-2.947488
224.896286	952.635193	994.467590	961.105713	20.248709
225.272217	952.040710	993.724609	963.186218	26.738161
225.648148	951.372009	997.439758	964.746582	29.032398
226.024048	950.926208	997.291199	955.978821	10.897473
226.399902	953.824036	999.817383	952.932434	-1.938545
226.775772	953.303894	991.123962	947.359680	-15.717089
227.151581	948.399902	991.346863	949.588684	2.768023
227.527374	942.158447	984.213806	949.663086	17.844667
227.903137	933.019226	987.185852	958.059265	46.227798
228.278870	942.530029	990.529541	967.792969	52.631660
228.654572	943.718811	999.074402	971.953857	51.006676
229.030273	953.972595	997.737000	970.764954	38.369900
229.405930	950.406067	990.232422	969.873352	48.880409
229.781555	946.542419	990.604004	974.108582	62.562801
230.157181	940.598145	997.142578	975.520325	61.760597
230.532761	937.328857	994.541992	975.297546	66.363586
230.908325	939.483643	988.895020	973.514221	68.871948
231.283859	943.124451	983.545166	975.223206	79.411644
231.659332	947.582581	991.495422	973.217102	58.375912
232.034821	944.387512	996.102234	967.495789	44.684135
232.410263	942.307129	995.656433	973.142761	57.799503
232.785690	948.028503	986.517151	967.644348	50.965275
233.161087	957.464844	984.213806	966.529846	33.889175
233.536469	955.978821	984.065247	954.121277	-6.613671
233.911804	957.019104	987.111633	961.625793	15.308415
234.287140	958.579407	999.148682	970.170593	28.571342
234.662430	965.861084	1005.687256	976.560730	26.865866
235.037704	955.384338	1002.566650	973.365723	38.110435
235.412933	951.074768	990.901123	963.929199	32.276192
235.788162	940.449524	984.956848	963.186218	51.085285
236.163345	944.090393	994.096130	968.090149	47.994003
236.538513	943.495911	1003.978333	977.675232	56.511166
236.913635	949.737488	1009.551086	978.269531	47.701599
237.288742	943.718933	1006.281738	973.737122	47.980885
237.663834	935.396973	1004.869934	962.814697	39.465317
238.038879	934.728271	1003.532532	965.935364	45.356339
238.413910	935.025452	1013.266174	966.009705	39.601185
238.788910	941.861328	1008.956543	976.783508	52.048691
239.163879	935.248352	1011.185730	971.062256	47.162418
239.538834	939.260681	999.445862	968.758850	49.012344
239.913757	935.917053	1003.978333	966.381165	44.759827
240.288651	949.663086	1002.640930	969.799072	38.008316
240.663528	954.864258	1010.442688	977.600891	40.909096
241.038361	959.991150	1009.551086	978.418213	37.181370
241.413177	955.161438	1004.795715	977.006531	44.012112
241.787979	953.452454	1000.709167	970.913635	36.949631
242.162735	954.789856	996.845398	980.052917	60.070705
242.537476	952.932373	1002.417969	970.913635	36.336357
242.912170	953.601074	1010.888489	968.238770	25.551329
243.286865	954.195557	1017.352783	956.276062	3.294168
243.661514	955.755859	1018.393066	961.551514	9.252734
244.036148	951.594910	1016.758484	966.381165	22.690983
244.410751	952.560852	1018.838928	971.582336	28.699512
244.785339	947.805481	1021.885315	975.297424	37.111237
245.159882	951.669250	1014.529297	976.263428	39.125294
245.534378	944.684875	1009.179504	972.845459	43.663456
245.908890	950.183167	1006.058838	979.012634	51.595741
246.283356	946.913879	1007.842102	980.795898	55.609730
246.657791	945.650696	1010.591309	979.012695	51.373089
247.032196	938.740540	1018.170105	973.960144	44.340675
247.406586	931.013123	1030.132935	965.118103	34.407833
247.780960	936.139954	1043.581665	964.820801	26.694332
248.155289	939.929382	1048.634277	971.433777	28.981579
248.529602	944.090332	1046.405151	975.148926	30.355909
248.903870	940.895325	1037.711792	971.953918	32.079868
249.278122	938.146179	1027.755249	957.464844	21.558826
249.652344	946.096497	1018.467468	957.316223	15.503076
250.026550	953.675476	1008.882385	957.241943	6.460183
250.400711	960.139709	1010.591309	963.334778	6.332938
250.774857	949.068665	1017.947266	962.888977	20.064741
251.148987	933.465088	1023.371399	967.941589	38.347141
251.523071	925.737610	1020.919434	966.678406	43.013248
251.897125	937.626038	1020.845032	970.913757	40.000145
252.271164	945.650696	1019.284668	968.758972	31.382629
252.645187	950.703308	1023.222839	966.158386	21.311607
253.019165	939.632263	1026.120605	970.616455	35.824703
253.393112	942.678650	1034.814087	976.932190	37.177380
253.767044	951.223450	1036.968750	983.470764	37.608257
254.140930	957.093445	1030.950317	979.681335	30.583330
254.514801	951.297791	1028.646851	975.891907	31.796270
254.888657	942.158508	1032.510620	974.480164	35.772995
255.262466	941.564148	1041.129761	972.771240	31.343243
255.636276	942.009827	1040.832520	971.508057	29.849651
256.010010	945.204895	1040.758179	967.495789	23.328234
256.383759	944.238953	1037.043091	963.260498	20.496441
256.757446	952.337891	1043.730347	957.910706	6.097675
257.131134	948.325623	1045.142090	967.718567	20.030626
257.504791	948.399902	1056.436035	972.622559	22.420885
257.878418	945.130615	1054.652832	984.585266	36.024334
258.252014	952.040710	1057.253418	981.464600	27.966099
258.625580	957.687805	1056.956177	982.356262	24.850269
258.999115	954.344177	1066.244141	977.377930	20.584236
259.372650	953.303894	1078.132446	977.006531	18.988153
259.746124	949.514465	1091.729858	971.285156	15.308252
260.119598	957.093323	1097.896973	967.941589	7.704535
260.493042	952.115051	1107.407715	965.192383	8.421088
260.866425	953.006653	1109.711182	971.210754	11.616832
261.239838	949.811707	1114.020752	975.817627	15.837082
261.613159	944.610535	1108.299438	976.635010	19.564230
261.986511	936.808777	1103.023926	975.817627	23.468889
262.359802	935.248352	1095.593628	975.074646	24.837833
262.733063	943.867493	1088.311890	972.696960	19.958868
263.106293	951.520691	1089.203613	970.542175	13.815428
263.479523	948.919983	1095.370605	970.765076	14.916353
263.852692	940.523743	1094.776245	969.576172	18.834333
264.225861	938.220398	1090.466797	967.049866	18.936058
264.598969	947.731140	1081.773438	961.700012	10.421242
264.972076	949.811707	1083.630981	961.254211	8.550715
265.345154	948.771484	1081.104614	967.272766	13.980839
265.718201	944.164734	1089.277954	973.588562	20.276463
266.091217	949.143005	1100.348999	978.938293	19.705097
266.464203	948.399963	1106.739136	975.594727	17.175007
266.837158	945.502136	1116.695557	974.628723	17.013847
267.210114	938.666260	1120.113525	973.960022	19.451250
267.583038	943.793152	1134.676758	974.554443	16.115210
267.955902	948.622803	1136.757324	969.799133	11.255952
268.328766	956.647461	1131.779053	968.313049	6.661042
268.701569	952.263611	1130.292969	971.879639	11.018423
269.074371	947.879700	1143.964722	978.343933	15.536237
269.447144	949.440186	1153.698364	979.830078	14.878177
269.819885	950.554749	1159.494019	973.142761	10.810802
270.192596	948.177063	1156.893433	972.474060	11.641155
270.565277	940.449524	1168.410278	975.669006	15.449800
270.937927	942.307129	1185.128418	983.322266	16.891079
271.310577	942.604309	1205.561646	978.938293	13.817445
271.683136	948.548523	1221.165161	982.059082	12.292192
272.055725	949.960266	1232.161987	983.768066	11.980012
272.428284	952.263672	1236.917480	979.978577	9.736355
272.800812	951.817871	1244.273315	970.765076	6.478663
273.173279	947.582703	1239.740845	967.941589	6.968448
273.545776	953.675476	1235.802856	969.576172	5.635999
273.918152	952.189453	1229.338501	971.656738	7.024121
274.290558	944.684814	1225.028931	972.845520	10.045050
274.662964	938.666321	1226.812134	973.514343	12.093884
275.035278	939.112122	1221.759644	971.136536	11.330159
275.407593	940.821045	1228.149658	969.799133	10.085347
275.779907	948.697205	1232.607910	974.182922	8.976666
276.152161	947.434021	1244.942017	975.669128	9.490538
276.524384	959.248108	1255.270142	978.418274	6.475925
276.896606	948.177063	1259.431152	976.635010	9.142995
277.268799	948.994324	1266.861450	972.251160	7.316527
277.640930	946.690918	1262.254517	962.443176	4.991786
278.013031	942.827148	1269.313354	966.604187	7.282709
278.385162	942.752869	1267.752930	971.359558	8.802056
278.757233	945.799316	1281.870483	973.588562	8.268857
279.129272	952.040771	1280.607300	973.439941	6.512888
279.501282	953.452454	1287.889038	972.994141	5.843167
279.873230	943.644531	1300.297729	981.241699	10.541660
280.245178	944.981995	1317.164429	980.275818	9.482936
280.617126	941.489746	1335.071289	984.288086	10.874072
280.988983	945.576416	1340.049683	976.114807	7.741561
281.360870	949.365906	1364.792358	981.315979	7.690910
281.732697	946.616699	1386.340210	978.046692	7.147672
282.104492	947.582703	1414.203735	981.910461	7.356668
282.476288	945.947937	1431.070435	974.703064	5.927395
282.848053	946.542297	1431.962036	977.377930	6.352365
283.219757	947.582520	1432.853638	981.390320	6.966786
283.591461	944.238953	1426.835083	986.294250	8.714388
283.963135	951.372009	1433.596680	987.334534	7.457629
284.334747	951.669189	1433.893921	988.449036	7.627117
284.706360	948.028381	1443.553223	986.442871	7.752284
285.077942	947.359680	1460.717163	989.117859	8.134328
285.449524	943.273132	1486.203125	984.956848	7.677549
285.821014	947.434021	1500.171875	991.272644	7.931178
286.192535	944.238953	1528.555664	991.792786	8.138366
286.563995	944.907715	1542.004395	994.987793	8.387264
286.935425	949.960266	1561.694702	990.380920	6.607549
287.306824	950.703308	1560.654297	990.529602	6.529425
287.678223	949.365906	1551.515015	991.495544	6.996546
288.049561	940.523865	1535.465820	991.644104	8.592475
288.420898	934.059570	1525.880737	984.511047	8.524784
288.792145	936.214294	1527.812500	978.269592	7.108760
289.163452	940.077942	1538.512207	976.932190	6.158445
289.534668	941.861267	1550.549194	986.814453	7.385260
289.905914	935.471252	1582.127808	989.414978	8.341944
290.277039	933.910889	1609.248413	989.117859	8.174723
290.648193	939.780823	1636.294434	982.059082	6.069983
291.019318	945.873718	1641.569946	986.517273	5.842141
291.390381	950.108887	1657.990845	985.402649	4.985826
291.761475	951.743591	1652.864136	989.340637	5.362422
292.132507	954.418457	1653.458496	977.898010	3.358828
292.503510	957.390564	1632.876587	978.641113	3.145964
292.874481	956.721863	1629.161499	976.040527	2.872922
293.245422	957.687805	1626.560913	978.938293	3.177058
293.616364	952.189453	1642.907593	974.405945	3.216434
293.987213	954.567078	1657.025024	968.907471	2.041459
294.358093	941.935608	1692.690308	972.771301	4.107293
294.728943	944.684814	1731.104858	978.269592	4.270590
295.099731	941.043945	1775.017700	986.145691	5.408053
295.470490	947.433899	1808.602539	986.219971	4.503888
295.841248	939.780762	1822.497070	991.049622	5.808079
296.211975	939.855164	1834.905640	994.764832	6.134812
296.582642	943.198730	1861.654785	998.851501	6.059383
296.953308	946.839600	1899.697754	987.260254	4.242043
297.323883	950.703369	1949.629272	984.659668	3.399281
297.694519	953.601135	1959.585571	979.309814	2.555574
298.065063	954.195557	1963.598022	992.238464	3.768854
298.435608	946.988098	1941.455688	990.158020	4.341008
298.806122	939.483582	1913.815063	988.894958	5.071311
299.176575	938.369080	1872.205688	981.687500	4.638758
299.547028	936.288574	1846.274048	979.681396	4.768518
299.917450	940.821045	1821.456909	983.842285	4.885247
300.287872	943.495911	1814.100952	984.362488	4.694043
300.658234	949.440186	1806.819214	983.916687	4.021151
301.028564	955.904541	1813.432129	982.950745	3.153975
301.398865	950.703308	1820.639648	979.235596	3.279813
301.769135	945.502136	1812.466309	986.220032	4.696607
302.139374	942.901550	1813.580933	982.059082	4.497354
302.509583	942.307129	1814.249512	989.637939	5.428204
302.879791	951.743469	1815.661255	983.916687	3.724106
303.249939	952.189392	1817.147339	991.346924	4.527102
303.620087	951.817871	1814.843750	988.746338	4.278953
303.990173	943.570313	1811.500366	992.758606	5.667311
304.360260	938.517761	1808.676758	994.839172	6.472543
304.730286	946.022278	1810.608765	998.108459	6.024404
305.100281	949.960266	1819.599121	994.690430	5.143533
305.470276	947.433899	1824.503296	990.529541	4.913596
305.840179	944.981934	1834.682617	992.981628	5.395039
306.210144	935.768372	1849.171753	992.015686	6.157993
306.579987	937.774597	1861.060181	992.238525	5.898925
306.949890	943.347351	1866.855835	985.402649	4.553862
307.319702	951.149231	1870.125122	988.300476	4.042679
307.689484	954.864441	1895.759766	990.603821	3.798444
308.059265	950.851990	1914.261108	994.690613	4.550364
308.429016	948.622803	1952.898438	992.833008	4.402198
308.798737	941.712646	1978.087036	985.699951	4.244345
309.168396	942.009949	2013.306519	987.111633	4.210009
309.538055	936.808777	2036.563477	984.436707	4.330778
309.907684	941.638367	2059.820068	994.764832	4.751148
310.277313	935.619812	2080.922119	990.752441	4.813806
310.646851	946.765320	2104.996094	990.232422	3.752888
311.016388	944.610535	2121.194092	977.006531	2.753395
311.385895	946.988220	2124.834961	981.315979	2.914451
311.755371	943.495911	2118.816406	984.808289	3.514988
312.124817	941.638367	2125.503418	991.198242	4.186278
312.494232	946.839539	2122.085449	995.284973	4.122153
312.863617	943.198730	2120.896729	1001.897949	4.984233
313.232971	947.359680	2105.293213	1014.009277	5.755908
313.602295	947.136719	2111.757568	1009.402527	5.346445
313.971619	957.167664	2120.822510	1007.024719	4.284523
314.340820	957.241943	2122.383057	1001.526367	3.800778
314.710083	951.297791	2133.454346	1001.526367	4.248894
315.079285	946.319397	2145.937012	1004.201233	4.825024
315.448486	945.576416	2182.270752	1005.018555	4.806534
315.817596	948.474182	2189.180908	1002.343689	4.341840
316.186707	943.941711	2180.710205	996.325195	4.235512
316.555786	950.257507	2142.741943	988.894836	3.240070
316.924866	949.960266	2113.243896	991.421204	3.564130
317.293884	952.337952	2093.702148	996.325134	3.853913
317.662872	943.198730	2086.494873	1004.052673	5.322675
318.031830	938.517578	2089.095459	1006.578918	5.915405
318.400757	938.889160	2103.064453	1008.287903	5.961194
318.769684	944.016113	2119.039307	1008.139343	5.457189
319.138550	945.799316	2142.593018	1009.996887	5.364130
319.507416	944.833435	2152.921143	1007.173401	5.160219
319.876190	942.901550	2158.419922	1006.281738	5.214252
320.244995	947.136780	2165.032959	1012.003113	5.326097
320.613770	954.567078	2154.853271	1018.838867	5.354706
320.982483	956.721863	2146.754150	1022.256836	5.506991
321.351166	954.418457	2119.410889	1014.083496	5.121496
321.719818	949.068604	2111.237549	1019.359070	6.048214
322.088440	949.142883	2119.262451	1024.337280	6.426215
322.457062	948.102722	2138.729736	1033.848145	7.201704
322.825623	949.068665	2164.884033	1033.030640	6.905816
323.194183	948.474304	2192.450439	1040.535278	7.400542
323.562653	948.399963	2229.676025	1046.553833	7.660634
323.931183	944.759094	2267.793213	1054.727173	8.311810
324.299591	943.570251	2310.517334	1062.826172	8.724254
324.668060	950.108826	2355.990723	1063.792114	8.086262
325.036407	949.068665	2393.885010	1072.485474	8.542041
325.404755	949.514465	2418.033447	1081.104614	8.960738
325.773102	945.650818	2418.702148	1095.519409	10.174025
326.141388	943.793213	2432.893799	1103.915527	10.752954
326.509674	948.325684	2451.395508	1104.658569	10.400907
326.877899	954.715637	2471.085693	1106.144653	9.986283
327.246124	958.282227	2471.159912	1110.454224	10.058447
327.614288	948.325623	2467.964844	1122.491089	11.460975
327.982422	935.916992	2456.968018	1131.779053	12.876758
328.350525	941.861267	2445.079834	1144.336304	13.469435
328.718628	951.372070	2432.151123	1145.004883	13.076415
329.086700	960.734131	2433.488525	1152.509521	13.021546
329.454712	961.848694	2449.983643	1156.224609	13.061712
329.822693	954.046936	2467.741943	1171.902466	14.392300
330.190674	956.498962	2483.642822	1192.038574	15.423538
330.558563	955.681641	2485.500244	1203.852661	16.222252
330.926483	958.802307	2488.249268	1215.592529	16.789743
331.294312	952.783875	2499.840576	1228.966919	17.852161
331.662231	948.102722	2542.936279	1248.137085	18.812895
332.029999	951.000488	2581.202148	1260.842896	19.006386
332.397766	947.805481	2624.074951	1275.703491	19.561174
332.765503	943.495911	2658.328369	1286.105835	19.979206
333.133240	936.882996	2701.795654	1308.916870	21.079451
333.500916	939.186340	2737.386719	1323.331421	21.362751
333.868561	947.656921	2759.008789	1346.216675	22.003443
334.236176	951.892151	2761.535156	1356.841919	22.377329
334.603790	943.421692	2767.850830	1368.061646	23.275223
334.971344	937.923279	2775.949951	1380.470215	24.077286
335.338867	937.700378	2785.311768	1394.662109	24.732569
335.706360	949.514465	2788.878174	1411.008667	25.089882
336.073853	957.539124	2792.444580	1430.773071	25.790644
336.441284	959.025208	2797.274414	1449.869019	26.701700
336.808655	954.195496	2797.943115	1471.491211	28.056753
337.176086	950.406067	2765.250000	1473.125854	28.802464
337.543396	946.393738	2725.498291	1481.001953	30.049288
337.910706	944.907715	2670.217041	1482.116333	31.136946
338.277954	945.130615	2679.356201	1495.193726	31.718082
338.645264	942.827209	2740.804688	1519.564941	32.077026
339.012421	943.793213	2856.791016	1556.121948	32.008858
339.379669	941.266907	2965.124268	1597.657104	32.432629
339.746796	948.994385	3041.878906	1625.372070	32.317966
340.113953	955.681641	3098.572021	1658.288086	32.787792
340.481018	954.269836	3119.079346	1680.727539	33.557579
340.848114	954.344177	3121.011475	1700.937866	34.458160
341.215118	947.285400	3117.147705	1713.346313	35.304588
341.582153	950.554688	3129.705078	1741.655884	36.303196
341.949066	953.452454	3151.326904	1764.466797	36.899937
342.316010	952.783752	3168.342041	1784.900024	37.557858
342.682922	946.170837	3174.434814	1801.469360	38.384075
343.049835	938.443359	3194.348389	1827.921265	39.428871
343.416656	942.975830	3227.412842	1856.676392	39.996750
343.783478	951.149170	3273.703857	1898.806030	40.802349
344.150269	946.245178	3347.486328	1960.105835	42.222359
344.516998	947.879883	3430.259033	2034.557129	43.775635
344.883728	944.239014	3518.233643	2097.491455	44.803997
345.250427	956.201660	3579.979492	2139.472656	45.097988
345.617065	949.885986	3607.100342	2151.658203	45.226768
345.983704	951.966492	3631.619873	2162.803467	45.186329
346.350281	944.907715	3630.579346	2173.205811	45.735229
346.716827	950.108887	3612.672607	2190.072754	46.570297
347.083405	950.331848	3569.428467	2186.729004	47.207008
347.449860	961.031311	3534.357422	2187.917969	47.677078
347.816376	968.164368	3512.141357	2178.927490	47.593323
348.182770	961.923035	3484.128906	2181.007813	48.334068
348.549194	959.322449	3458.494385	2195.348389	49.457417
348.915558	950.777527	3444.525635	2213.923584	50.652512
349.281921	958.133606	3457.305908	2243.124756	51.416672
349.648193	953.526855	3492.227783	2257.242432	51.353649
350.014526	947.805603	3540.970703	2297.291748	52.040115
350.380737	946.839600	3586.518311	2324.783691	52.201206
350.746948	942.827209	3636.300781	2363.197998	52.733795
351.113159	950.628967	3664.684326	2383.705811	52.802052
351.479309	952.040771	3710.306396	2415.804443	53.068264
351.845428	950.108887	3742.553711	2440.324463	53.365982
352.211517	954.344177	3781.414063	2479.779053	53.958157
352.577576	946.839600	3805.859619	2524.880615	55.195171
352.943604	952.189392	3835.506592	2569.239502	56.082977
353.309601	944.238953	3893.759766	2618.502197	56.763905
353.675537	941.564026	3969.622803	2673.783447	57.205608
354.041473	937.477356	4057.745850	2742.513428	57.848743
354.407379	931.310303	4133.534668	2801.881592	58.414749
354.773254	932.276184	4219.130859	2857.162842	58.563183
355.139038	924.177246	4282.140137	2909.099854	59.110916
355.504913	930.641541	4361.421387	2969.210938	59.419998
355.870636	927.595032	4415.885254	3036.900635	60.468182
356.236389	929.081238	4489.593262	3110.237549	61.259624
356.602081	926.034729	4584.774902	3193.307861	61.968685
356.967804	935.768494	4699.572754	3286.409424	62.453857
357.333405	946.393738	4820.388672	3381.814209	62.865864
357.699036	945.576355	4950.641113	3482.048584	63.331615
358.064606	946.542419	5091.371094	3578.047607	63.488876
358.430176	943.793152	5201.190430	3646.925781	63.492607
358.795654	955.012878	5261.301270	3686.083740	63.420525
359.161163	958.133545	5258.329590	3695.742920	63.662430
359.526581	961.774414	5234.105957	3696.857422	64.018509
359.892029	954.864258	5239.010254	3731.928467	64.821884
360.257416	952.783875	5312.867676	3784.311768	64.942047
360.622772	943.793152	5459.615234	3921.474609	65.938850
360.988098	943.941833	5642.623535	4073.646729	66.608147
361.353394	940.003723	5837.742188	4264.976563	67.887924
361.718658	950.034668	6058.570313	4415.364746	67.834114
362.083893	952.337891	6243.212402	4547.326660	67.946968
362.449097	958.505066	6395.830078	4606.174316	67.085732
362.814209	951.074768	6419.011719	4601.344238	66.757713
363.179382	952.486572	6309.415527	4478.521973	65.821960
363.544434	952.635071	6061.912598	4314.610352	65.801384
363.909546	956.201660	5772.058594	4103.070801	65.343910
364.274536	951.372070	5514.451172	3952.830322	65.777039
364.639587	949.514465	5350.687500	3825.921143	65.355461
365.004517	953.229553	5254.688477	3757.934326	65.203568
365.369507	959.173828	5193.239746	3714.244141	65.069138
365.734344	948.771484	5130.825684	3698.343750	65.746933
366.099274	946.765320	5087.804688	3688.833008	66.216888
366.464081	938.740540	5070.492188	3693.365479	66.669670
366.828918	939.037781	5086.020996	3701.464600	66.612923
367.193665	936.957275	5094.194336	3719.817139	66.940125
367.558411	944.461914	5116.856934	3725.092529	66.643517
367.923126	939.186340	5109.946777	3716.250732	66.584129
368.287781	934.059570	5110.466797	3699.904053	66.225449
368.652435	934.802551	5068.411621	3675.309814	66.298180
369.017059	951.149109	5059.346191	3674.715576	66.295898
369.381653	963.260498	5061.798340	3671.668945	66.082306
369.746185	962.443115	5071.978027	3665.798828	65.782516
370.110687	952.486572	5070.046387	3662.529541	65.816727
370.475220	948.399902	5083.271973	3691.210693	66.333633
370.839661	946.913879	5150.144531	3730.591064	66.227089
371.204041	948.622864	5206.391113	3775.395508	66.390953
371.568451	947.508362	5248.298340	3823.766846	66.877449
371.932770	949.514465	5290.651367	3861.958252	67.089432
372.297150	955.756042	5339.096191	3883.654541	66.796059
372.661377	959.545410	5383.975098	3885.958008	66.142143
373.025696	955.235840	5397.869629	3891.456299	66.091888
373.389862	950.406067	5389.250977	3877.710205	65.947433
373.754059	949.217285	5388.062012	3863.295654	65.649475
374.118225	953.006653	5400.841309	3870.280518	65.588638
374.482361	955.161438	5432.494141	3916.050781	66.130653
374.846436	951.669250	5499.367188	3979.356689	66.576271
375.210510	946.690979	5579.094238	4062.649658	67.264412
375.574524	949.663086	5670.337891	4121.571777	67.191849
375.938538	944.981995	5769.755371	4189.558594	67.248268
376.302460	947.582520	5873.332520	4249.967285	67.043289
376.666412	943.941711	6041.628906	4348.343750	66.783272
377.030304	954.121277	6178.048340	4448.726563	66.896133
377.394196	951.669250	6318.777832	4538.187500	66.824036
377.757996	952.040771	6432.238281	4616.130859	66.860550
378.121796	944.016052	6495.767090	4647.783691	66.713501
378.485565	941.712646	6507.506348	4612.861328	65.959122
378.849304	937.997498	6431.420410	4538.261230	65.537712
379.212982	940.895325	6341.514160	4448.207031	64.942780
379.576630	945.725037	6188.896484	4361.049316	65.138519
379.940277	947.954102	6082.718262	4286.747070	65.023300
380.303864	951.892273	6000.613281	4231.168457	64.952606
380.667450	953.229675	6006.334473	4239.416016	65.033012
381.030945	953.452576	5999.053223	4264.679199	65.626015
381.394501	946.839600	6022.904297	4297.892578	66.016754
381.757935	943.570251	6040.959473	4323.007324	66.297409
382.121399	939.334961	6043.857910	4323.155273	66.290627
382.484741	943.198730	6083.238281	4362.164063	66.516327
382.848145	945.947998	6108.724121	4382.299805	66.560150
383.211487	952.560852	6170.989746	4438.249512	66.795753
383.574768	946.542297	6239.050781	4487.586914	66.906738
383.938019	943.198730	6301.762207	4565.976563	67.607262
384.301270	943.941833	6397.092285	4639.759277	67.773987
384.664459	947.062500	6466.342285	4698.978516	67.978363
385.027649	945.427917	6535.369629	4731.151855	67.723846
385.390778	943.198730	6597.709473	4778.259277	67.823029
385.753876	953.080994	6623.195313	4790.742188	67.682251
386.116943	954.715637	6684.718750	4832.203125	67.669907
386.479980	955.755859	6687.839355	4838.444824	67.736084
386.842987	946.170837	6740.371094	4895.434570	68.158913
387.205994	954.715637	6789.039551	4943.805664	68.372795
387.568909	947.434021	6841.125488	5005.773926	68.859047
387.931793	947.136780	6881.397949	5037.427246	68.926704
388.294678	946.913879	6906.883301	5061.204590	69.032074
388.657471	955.384460	6945.744141	5073.018555	68.737679
389.020294	957.167664	6928.877441	5095.680664	69.301979
389.383057	949.737366	6937.125000	5109.575195	69.476677
389.745819	948.251282	6941.880371	5139.816406	69.933678
390.108521	945.799316	6984.604004	5171.395020	69.974045
390.471191	941.266907	7024.653809	5237.599121	70.624016
390.833801	939.186462	7132.467285	5348.606934	71.196846
391.196442	945.353516	7272.898926	5487.627441	71.785721
391.558960	947.434021	7422.693359	5615.873535	72.096565
391.921509	950.628967	7554.580078	5730.077637	72.372566
392.284027	952.189270	7704.894531	5825.630371	72.170204
392.646484	959.471008	7816.720215	5903.202637	72.094971
393.008911	953.526855	7850.306152	5895.846191	71.661263
393.371307	952.783875	7819.767090	5873.480957	71.657333
393.733673	953.898376	7763.593750	5841.605469	71.775711
394.096008	964.597900	7730.975098	5833.654785	71.959579
394.458344	954.789978	7739.892090	5846.212402	72.090622
394.820587	943.273010	7779.792480	5853.270996	71.820145
395.182831	937.105957	7847.704590	5873.259277	71.428734
395.545013	937.105957	7832.844238	5834.472656	71.020195
395.907196	936.734375	7763.297363	5775.476563	70.881088
396.269287	933.762390	7642.703613	5687.798828	70.861206
396.631409	942.530029	7538.902344	5613.570801	70.812271
396.993469	946.913879	7441.565918	5540.159668	70.723511
397.355530	948.920105	7355.968750	5504.568359	71.103691
397.717499	945.947937	7345.566895	5487.553223	70.966812
398.079468	947.731201	7328.402344	5499.664551	71.339417
398.441376	947.062439	7329.740234	5506.426270	71.433403
398.803284	944.164612	7314.433594	5532.506348	72.027443
399.165131	943.198792	7358.271973	5553.013672	71.859116
399.526978	943.793213	7392.525879	5561.633301	71.608490
399.888763	944.016113	7431.757813	5570.029785	71.303909
400.250519	943.273010	7435.770996	5582.585938	71.456520
400.612244	942.901550	7463.634277	5616.394531	71.671288
400.973938	948.177063	7456.872559	5634.820801	72.005882
401.335602	944.164734	7489.787598	5669.520996	72.191086
401.697205	949.588806	7527.459473	5708.826660	72.352257
402.058807	943.867493	7578.876953	5769.011719	72.722488
402.420349	946.616699	7651.991699	5842.497559	73.014275
402.781860	949.960266	7717.675781	5911.970215	73.318832
403.143341	951.223450	7818.429688	5996.675781	73.471687
403.504822	953.749756	7945.264160	6082.197754	73.352463
403.866241	945.873718	8114.302246	6217.577637	73.540581
404.227631	939.186462	8274.796875	6318.554688	73.332253
404.588959	942.307129	8437.965820	6453.488281	73.524971
404.950287	938.220398	8552.466797	6522.292969	73.337166
405.311554	946.765320	8614.434570	6580.100098	73.468674
405.672821	942.009949	8642.819336	6592.286621	73.372505
406.034027	944.684753	8643.487305	6583.369629	73.241066
406.395203	943.272949	8616.960938	6533.141113	72.844612
406.756348	947.285339	8549.567383	6449.327637	72.373566
407.117493	945.725037	8518.659180	6403.482910	72.069260
407.478516	946.690918	8511.897461	6395.383301	72.023048
407.839600	943.941833	8520.961914	6410.393066	72.145134
408.200592	948.994385	8495.178711	6421.092285	72.514763
408.561554	951.297791	8477.569336	6430.454590	72.800415
408.922485	954.864258	8491.686523	6444.943848	72.843430
409.283417	953.006653	8536.491211	6454.380371	72.544144
409.644257	950.183289	8635.239258	6511.221191	72.361710
410.005096	947.359680	8742.085938	6610.193359	72.649551
410.365906	951.817871	8844.030273	6698.093262	72.809433
410.726715	950.628967	8932.672852	6764.296875	72.834328
411.087433	946.616699	8998.059570	6793.126465	72.614433
411.448120	940.746765	9077.712891	6834.587402	72.432899
411.808807	946.245117	9085.663086	6859.998535	72.655731
412.169434	947.805481	9037.069336	6830.203125	72.718575
412.530029	951.446350	8993.006836	6802.191406	72.756340
412.890564	942.232849	8954.370117	6798.921875	73.097710
413.251099	947.285461	8978.443359	6799.813965	72.872787
413.611572	946.616699	8986.989258	6841.051270	73.310463
413.972076	955.384460	9047.025391	6863.861816	73.019524
414.332489	949.663086	9100.002930	6926.648438	73.334183
414.692871	946.988220	9206.181641	7012.394043	73.438232
415.053223	950.851868	9312.954102	7101.928223	73.558968
415.413574	950.926208	9491.579102	7256.998047	73.835945
415.773834	949.663086	9645.087891	7352.699707	73.636848
416.134094	940.523865	9788.491211	7460.958984	73.694153
416.494263	940.746765	9908.788086	7546.109863	73.654472
416.854462	945.799316	10135.633789	7720.795410	73.722725
417.214630	948.845764	10373.032227	7929.140625	74.067879
417.574738	950.034485	10659.914063	8147.962402	74.129936
417.934784	947.136719	10893.077148	8347.984375	74.410736
418.294861	948.102722	11212.281250	8594.149414	74.492531
418.654846	948.845764	11562.915039	8876.352539	74.688667
419.014832	947.508301	11937.473633	9190.356445	75.003403
419.374756	945.056335	12356.765625	9515.207031	75.099625
419.734680	951.520691	12767.065430	9871.859375	75.496635
420.094543	954.567078	13224.622070	10207.930664	75.414200
420.454376	956.647522	13616.866211	10520.596680	75.543320
420.814148	953.452454	14035.338867	10847.602539	75.632439
421.173920	951.000488	14444.598633	11175.203125	75.770775
421.533691	947.656921	14868.418945	11503.472656	75.827858
421.893341	945.947937	15194.163086	11696.660156	75.453041
422.253021	946.022278	15399.238281	11844.225586	75.403313
422.612640	941.935608	15485.058594	11859.679688	75.071526
422.972260	944.090393	15473.690430	11830.331055	74.924568
423.331757	945.056335	15398.199219	11754.987305	74.792946
423.691315	947.656921	15374.496094	11752.459961	74.893768
424.050781	936.585754	15464.179688	11861.016602	75.197800
424.410248	933.687988	15586.481445	11964.296875	75.279907
424.769653	934.728271	15726.691406	12060.148438	75.212601
425.128998	934.059570	15811.916992	12061.633789	74.792854
425.488373	932.350586	15787.840820	12009.399414	74.565353
425.847656	925.811829	15621.403320	11861.909180	74.417542
426.206940	931.979004	15389.875977	11697.403320	74.460510
426.566193	939.483582	15095.637695	11442.098633	74.191162
426.925385	950.257507	14787.875000	11236.800781	74.337532
427.284576	954.418457	14389.390625	10935.354492	74.290703
427.643677	950.703308	14092.625000	10738.005859	74.473907
428.002777	947.656921	13811.539063	10498.825195	74.247948
428.361847	946.393738	13493.671875	10276.140625	74.356743
428.720856	953.081055	13221.796875	10066.012695	74.277794
429.079865	951.372070	13022.741211	9919.414063	74.291840
429.438812	948.325623	12915.668945	9825.272461	74.176422
429.797760	943.347351	12826.135742	9765.680664	74.244637
430.156616	946.765320	12676.786133	9655.711914	74.244934
430.515503	953.378235	12606.645508	9613.434570	74.314407
430.874268	948.622864	12566.448242	9592.555664	74.402328
431.233093	946.393738	12602.484375	9606.971680	74.300880
431.591827	945.576355	12668.984375	9623.094727	74.018738
431.950562	944.164612	12680.799805	9633.645508	74.037239
432.309204	942.009949	12741.281250	9687.291992	74.117134
432.667877	936.808655	12810.977539	9779.426758	74.469368
433.026459	942.009827	12943.608398	9880.850586	74.480415
433.385010	939.929382	13067.620117	9973.801758	74.489632
433.743561	944.387512	13212.213867	10086.742188	74.523018
434.102051	939.334961	13384.372070	10157.032227	74.067253
434.460510	944.759094	13551.702148	10269.675781	73.966515
434.818939	940.598145	13626.078125	10294.715820	73.738770
435.177338	941.564148	13665.383789	10357.799805	74.004784
435.535675	933.539368	13593.756836	10315.744141	74.107773
435.894012	937.254578	13530.674805	10302.666992	74.367508
436.252289	940.375244	13512.618164	10320.276367	74.608017
436.610535	949.960266	13513.807617	10326.146484	74.628304
436.968719	954.492737	13642.872070	10418.950195	74.591537
437.326935	957.019043	13723.936523	10489.760742	74.667526
437.685028	958.059326	13881.829102	10640.075195	74.916344
438.043152	948.251282	13963.859375	10709.993164	75.000275
438.401215	948.994324	14159.573242	10868.928711	75.090836
438.759277	944.164612	14377.726563	11012.183594	74.946754
439.117249	949.142883	14734.081055	11298.768555	75.079231
439.475250	944.907715	14993.100586	11510.531250	75.209831
439.833130	943.495911	15298.856445	11780.473633	75.490807
440.191071	935.991394	15519.385742	11955.752930	75.563766
440.548889	939.632141	15789.625000	12162.538086	75.575165
440.906708	946.096497	16079.332031	12361.296875	75.431328
441.264496	950.331848	16271.403320	12520.231445	75.516258
441.622223	944.313293	16439.550781	12633.096680	75.434685
441.979950	946.616699	16507.685547	12655.165039	75.242577
442.337616	955.384338	16551.748047	12674.484375	75.139954
442.695251	962.517395	16432.267578	12593.122070	75.182884
443.052887	957.910706	16267.168945	12476.838867	75.241585
443.410461	950.183289	16080.000977	12343.390625	75.303001
443.768005	940.300964	15958.518555	12232.679688	75.191208
444.125458	943.867432	15855.756836	12197.832031	75.469742
444.482941	942.752869	15877.303711	12226.661133	75.555725
444.840393	952.189270	15967.877930	12334.028320	75.799644
445.197754	949.514465	16204.977539	12541.110352	75.983246
445.555084	945.947937	16466.226563	12736.601563	75.969345
445.912415	939.260742	16826.373047	13025.936523	76.078491
446.269714	941.712708	17074.392578	13220.906250	76.113785
446.626953	943.793213	17416.185547	13471.456055	76.052483
446.984161	949.068665	17712.208984	13664.492188	75.853470
447.341309	944.684814	17997.232422	13810.870117	75.450226
447.698456	951.669250	18149.404297	13893.643555	75.253952
448.055542	951.966492	18241.912109	13919.500000	75.000427
448.412598	950.628967	18153.046875	13862.807617	75.060257
448.769653	951.669250	18037.582031	13733.520508	74.809303
449.126617	949.440186	17746.537109	13529.485352	74.894157
449.483582	957.985046	17557.658203	13383.480469	74.853851
449.840515	952.635193	17210.294922	13176.472656	75.188171
450.197388	955.384460	17009.898438	13022.370117	75.162575
450.554230	948.474182	16810.841797	12875.621094	75.191467
450.911041	949.663147	16721.826172	12787.348633	75.054291
451.267822	946.839600	16587.785156	12695.734375	75.116272
451.624573	938.369080	16393.259766	12576.182617	75.301819
451.981262	940.969543	16257.584961	12492.739258	75.419861
452.337921	942.084167	16155.120117	12378.758789	75.176804
452.694580	952.486572	16144.643555	12342.127930	74.970535
453.051147	948.845703	16145.164063	12347.254883	75.007706
453.407715	951.074890	16051.691406	12291.230469	75.097298
453.764221	950.034668	16058.082031	12265.299805	74.895622
454.120728	948.399963	15855.829102	12081.547852	74.681877
454.477142	940.523926	15787.397461	12046.179688	74.801315
454.833557	941.192566	15575.188477	11943.493164	75.183159
455.189911	945.576477	15425.765625	11862.578125	75.392670
455.546265	955.755859	15260.442383	11728.684570	75.310486
455.902557	953.303955	15189.036133	11634.839844	75.033272
456.258820	956.350281	15220.614258	11653.043945	74.989456
456.615051	948.548523	15312.081055	11744.734375	75.163864
456.971252	944.536194	15321.071289	11795.260742	75.475243
457.327393	936.214294	15494.198242	11982.057617	75.874817
457.683502	947.656921	15707.372070	12216.333008	76.347519
458.039612	947.805481	16110.390625	12543.414063	76.475143
458.395630	955.904480	16523.439453	12841.887695	76.351097
458.751648	948.028503	16916.873047	13167.036133	76.517792
459.107605	952.486572	17511.666016	13652.753906	76.696236
459.463562	940.523865	18073.244141	14120.563477	76.929054
459.819458	945.576416	18680.447266	14553.377930	76.729073
460.175323	941.935547	19184.369141	14902.821289	76.529732
460.531158	948.845703	19727.892578	15265.567383	76.237747
460.886932	939.409363	20034.318359	15450.284180	75.993423
461.242676	947.136780	20179.580078	15458.977539	75.455002
461.598419	940.895325	19945.525391	15234.879883	75.213165
461.954102	947.656921	19559.001953	14881.793945	74.869041
462.309723	941.266907	18958.265625	14428.993164	74.861122
462.665344	943.421631	18339.470703	13947.140625	74.750992
463.020905	944.536194	17866.384766	13579.120117	74.664330
463.376373	949.217224	17502.748047	13335.554688	74.825958
463.731873	955.310059	17252.867188	13144.968750	74.794388
464.087341	956.647522	16995.037109	12978.233398	74.955070
464.442749	954.492859	16850.150391	12847.311523	74.818031
464.798126	953.526855	16737.728516	12801.762695	75.063896
465.153503	952.635254	16815.226563	12832.153320	74.890144
465.508820	954.418457	16892.128906	12903.855469	74.975868
465.864105	949.365906	17031.818359	12978.307617	74.795441
466.219330	939.632141	17295.964844	13184.200195	74.861328
466.574524	937.551697	17458.835938	13293.351563	74.787163
466.929657	937.254456	17687.093750	13449.757813	74.702225
467.284790	940.375244	17880.429688	13558.834961	74.488899
467.639893	937.477356	18091.300781	13693.768555	74.364120
467.994934	941.192566	18293.701172	13816.666992	74.199501
468.349945	943.495911	18329.070313	13839.699219	74.177605
468.704926	951.223450	18290.208984	13804.182617	74.127510
469.059875	952.560852	18064.998047	13636.554688	74.121490
469.414764	953.155334	17806.126953	13453.473633	74.172791
469.769653	946.988220	17605.880859	13333.176758	74.351814
470.124451	950.257507	17494.279297	13265.265625	74.437813
470.479248	950.851868	17376.953125	13200.695313	74.575478
470.834015	951.000488	17306.812500	13145.489258	74.557518
471.188721	945.353516	17371.974609	13192.968750	74.559555
471.543365	934.505371	17460.693359	13238.961914	74.454300
471.898010	933.762268	17566.648438	13340.163086	74.589577
472.252625	936.585876	17694.003906	13437.424805	74.598839
472.607178	947.508301	17934.521484	13646.289063	74.755821
472.961700	953.898376	18177.863281	13826.918945	74.739006
473.316193	955.607239	18435.396484	14040.390625	74.856644
473.670654	953.898254	18619.962891	14147.460938	74.683090
474.025055	950.703308	18859.144531	14302.159180	74.553978
474.379456	954.269775	19022.017578	14425.948242	74.562027
474.733795	953.601074	19158.289063	14562.367188	74.754181
475.088104	957.687744	19194.250000	14645.734375	75.058266
475.442383	952.486511	19184.517578	14704.062500	75.425362
475.796570	959.248047	19229.617188	14782.153320	75.657501
476.150787	954.864258	19403.486328	14915.378906	75.672401
476.504944	953.303955	19657.453125	15094.894531	75.606705
476.859070	951.594971	19943.220703	15334.668945	75.733772
477.213135	954.121277	20230.103516	15556.760742	75.755615
477.567200	956.350281	20645.455078	15844.238281	75.614853
477.921173	952.486572	21045.279297	16124.507813	75.509766
478.275146	942.158508	21492.656250	16467.861328	75.549034
478.629089	933.316467	21749.224609	16708.970703	75.786530
478.983002	930.047180	22141.990234	17035.607422	75.926849
479.336823	928.263916	22489.724609	17312.533203	75.988678
479.690643	939.260742	22932.197266	17678.548828	76.112114
480.044403	939.557922	23420.515625	18027.994141	76.012939
480.398163	950.183105	24027.718750	18550.714844	76.266945
480.751862	942.529968	24813.841797	19220.775391	76.569923
481.105499	946.468018	25780.294922	20113.970703	77.183037
481.459137	946.245117	27024.123047	21272.646484	77.945000
481.812744	950.183289	28631.289063	22707.060547	78.598297
482.166290	951.074890	30475.853516	24423.453125	79.500610
482.519806	954.567078	32802.863281	26473.318359	80.125954
482.873291	955.830261	35543.300781	28897.443359	80.785370
483.226715	951.669250	38880.164063	31700.662109	81.070953
483.580139	944.016113	42332.191406	34522.011719	81.129440
483.933502	948.102722	45887.355469	37312.824219	80.919731
484.286804	950.257507	49061.792969	39781.972656	80.711861
484.640106	956.276062	51666.472656	41820.324219	80.583496
484.993347	950.777588	53177.718750	43028.929688	80.567902
485.346558	954.418396	53527.015625	43170.027344	80.299644
485.699738	954.492676	52732.488281	42263.980469	79.781937
486.052887	962.814636	51050.203125	40597.292969	79.130653
486.405975	963.854797	48983.625000	38723.378906	78.633286
486.759064	963.706299	46930.343750	37032.175781	78.466629
487.112061	952.263672	45391.312500	35880.855469	78.598885
487.464996	941.415527	44630.671875	35373.890625	78.812225
487.817963	941.415466	44683.203125	35411.261719	78.803017
488.170868	945.204895	45071.886719	35644.203125	78.634956
488.523743	950.034485	45374.886719	35811.457031	78.472794
488.876587	940.152344	45339.000000	35727.574219	78.352081
489.229401	938.889160	44931.230469	35313.929688	78.138695
489.582153	935.619934	44037.812500	34546.753906	77.980103
489.934845	937.254578	42837.972656	33545.597656	77.822876
490.287537	929.972839	41565.835938	32572.900391	77.869461
490.640198	935.248291	40603.988281	31873.416016	77.991310
490.992798	940.226563	39983.632813	31461.703125	78.173187
491.345337	954.344177	39919.953125	31425.000000	78.198845
491.697876	954.715637	40192.125000	31541.431641	77.952942
492.050354	957.242004	40799.769531	31916.365234	77.703712
492.402832	952.412292	41309.488281	32162.453125	77.334747
492.755219	953.675476	41423.621094	32120.619141	77.012566
493.107605	949.217224	40857.656250	31540.833984	76.654510
493.459930	948.548584	39687.910156	30487.148438	76.249573
493.812225	948.771423	37975.078125	28988.015625	75.727898
494.164490	953.601074	35979.683594	27323.935547	75.287704
494.516724	956.870422	33902.027344	25680.357422	75.044373
494.868896	959.396729	32045.054688	24361.560547	75.282829
495.221039	958.802429	30596.671875	23377.642578	75.642548
495.573120	956.870422	29523.587891	22669.240234	76.005829
495.925201	952.040833	28945.884766	22338.146484	76.395744
496.277222	950.777649	28695.187500	22156.255859	76.431534
496.629211	953.898254	28679.734375	22181.072266	76.560989
496.981140	960.214050	28727.585938	22152.017578	76.319084
497.333069	964.375000	28846.916016	22254.408203	76.356148
497.684967	956.424622	28975.982422	22332.500000	76.289841
498.036804	952.783752	29081.640625	22412.078125	76.289253
498.388580	945.502136	29005.109375	22347.134766	76.272034
498.740326	944.461914	28870.544922	22206.406250	76.136513
499.092072	944.164734	28612.568359	21934.310547	75.863235
499.443756	940.523865	28332.744141	21626.550781	75.517891
499.795410	945.799316	28000.240234	21299.990234	75.234200
500.147003	945.799316	27644.994141	21003.373047	75.124268
500.498566	953.452454	27297.406250	20726.744141	75.058174
500.850098	950.926208	26923.664063	20480.132813	75.191177
501.201599	949.440125	26620.062500	20274.984375	75.282730
501.553009	944.164612	26339.794922	20047.320313	75.222214
501.904449	944.833313	26141.181641	19878.580078	75.144806
502.255859	944.833435	25943.318359	19700.548828	75.027405
502.607178	948.474304	25851.255859	19682.271484	75.227730
502.958405	952.263672	25763.130859	19611.164063	75.204544
503.309692	957.167664	25737.794922	19612.574219	75.282219
503.660919	959.471008	25764.617188	19654.480469	75.367462
504.012115	955.904602	25842.337891	19733.687500	75.453896
504.363251	948.028503	25954.906250	19823.072266	75.479408
504.714294	945.353516	26047.638672	19845.662109	75.293182
505.065369	941.118347	26092.515625	19866.095703	75.244240
505.416443	944.164734	26100.833984	19874.343750	75.249146
505.767395	947.136902	26075.203125	19867.507813	75.295769
506.118317	949.440186	26057.593750	19853.166016	75.289192
506.469238	952.635193	26060.640625	19873.599609	75.358292
506.820160	957.390564	26068.515625	19868.173828	75.308388
507.170929	965.266663	26096.898438	19884.375000	75.280060
507.521729	961.551453	26122.087891	19946.044922	75.453453
507.872498	956.053040	26222.767578	20047.617188	75.560135
508.223236	942.455750	26382.146484	20193.025391	75.671402
508.573883	939.483582	26578.453125	20318.671875	75.584892
508.924500	938.369080	26749.130859	20504.578125	75.806396
509.275116	947.805481	26940.681641	20697.841797	75.982498
509.625702	946.022217	27187.958984	20903.955078	76.053581
509.976196	943.495911	27445.791016	21092.980469	76.029205
510.326660	933.539368	27674.718750	21256.521484	75.998825
510.677124	933.019226	27886.181641	21400.076172	75.935638
511.027557	936.139954	28084.943359	21560.642578	75.968369
511.377869	950.554688	28321.671875	21740.083984	75.954262
511.728180	950.926270	28489.966797	21899.462891	76.068504
512.078430	954.641357	28638.349609	21977.554688	75.939659
512.428650	944.981995	28742.000000	22053.123047	75.936707
512.778931	951.669250	28852.265625	22102.162109	75.806595
513.129028	942.530090	28886.224609	22178.843750	75.996803
513.479126	952.189392	28953.689453	22216.736328	75.940742
513.829285	945.204895	28896.998047	22220.451172	76.114067
514.179382	950.183167	28854.201172	22146.224609	75.960533
514.529297	943.793152	28750.919922	22041.085938	75.870094
514.879272	948.176941	28759.240234	22005.718750	75.716423
515.229187	951.074768	28657.593750	21961.804688	75.833168
515.579163	950.926270	28612.267578	22027.490234	76.195015
515.928955	956.721924	28603.873047	22065.978516	76.352371
516.278748	952.783875	28774.322266	22257.306641	76.575645
516.628540	954.195557	29044.859375	22478.281250	76.623627
516.978333	943.124451	29434.501953	22875.205078	76.977959
517.327942	944.461914	30004.478516	23305.048828	76.946228
517.677612	943.050110	30565.687500	23806.666016	77.182915
518.027222	946.839600	31223.265625	24277.671875	77.059402
518.376831	946.839600	31946.232422	24851.662109	77.113838
518.726379	945.353516	32654.187500	25356.619141	76.985695
519.075867	942.455750	33199.125000	25761.125000	76.941200
519.425293	939.780762	33600.957031	26034.484375	76.833435
519.774658	944.313293	33800.679688	26205.306641	76.883102
520.124084	946.839600	33851.949219	26245.951172	76.885056
520.473389	938.666321	33597.238281	25977.046875	76.667099
520.822693	929.750000	33241.105469	25613.634766	76.393837
521.171997	932.647766	32722.916016	25212.546875	76.375259
521.521240	942.678528	32236.603516	24861.021484	76.431267
521.870361	943.347351	31778.828125	24556.677734	76.578438
522.219482	945.427795	31468.318359	24269.498047	76.415009
522.568604	949.960266	31246.521484	24150.687500	76.578751
522.917664	955.458679	31108.990234	24068.062500	76.649742
523.266724	951.074890	31152.083984	24201.662109	76.986130
523.615662	944.461914	31325.876953	24427.763672	77.294960
523.964600	947.805481	31750.072266	24803.437500	77.447655
524.313538	952.189392	32254.439453	25216.187500	77.515190
524.662354	955.161560	32878.062500	25786.685547	77.785927
525.011169	951.297791	33664.183594	26500.140625	78.100243
525.359985	955.532959	34621.277344	27413.171875	78.589195
525.708740	954.567078	35818.000000	28422.945313	78.788506
526.057434	958.950867	37087.613281	29590.390625	79.248543
526.406067	950.108887	38487.324219	30824.484375	79.586021
526.754700	947.582520	39940.164063	32215.875000	80.190361
527.103333	942.827209	41657.003906	33697.621094	80.450584
527.451782	939.334961	43560.121094	35430.582031	80.925880
527.800293	946.839539	45647.359375	37244.390625	81.201630
528.148743	951.520691	47847.015625	39156.941406	81.469276
528.497131	960.511230	49981.878906	40921.484375	81.517456
528.845642	956.870361	51902.082031	42598.050781	81.737183
529.193909	955.384277	53440.371094	44084.550781	82.174294
529.542175	955.087158	54534.558594	45123.746094	82.435791
529.890503	957.762024	55058.464844	45484.406250	82.303261
530.238770	946.170837	54906.144531	45027.667969	81.692955
530.586914	948.994324	54069.644531	43912.093750	80.878342
530.934998	940.375244	52576.234375	42202.980469	79.910759
531.283142	950.777649	50671.855469	40242.281250	79.023834
531.631226	947.582581	48418.996094	38171.390625	78.413101
531.979248	952.337891	46309.765625	36423.269531	78.203133
532.327148	953.006653	44541.878906	35104.617188	78.349380
532.675110	946.245117	43502.386719	34406.839844	78.626945
533.023071	949.960266	43144.546875	34139.796875	78.658989
533.370850	944.981995	43242.769531	34228.363281	78.688232
533.718689	948.474304	43675.582031	34508.558594	78.545181
534.066467	948.177063	44087.890625	34860.531250	78.610519
534.414246	948.399963	44314.066406	34998.363281	78.518250
534.761963	955.161438	44296.683594	34892.332031	78.301750
535.109619	956.573242	43916.550781	34484.562500	78.044708
535.457153	968.461670	43193.656250	33791.390625	77.733047
535.804749	956.647522	42148.441406	32979.035156	77.739723
536.152344	950.703308	41133.984375	32139.939453	77.617447
536.499817	943.644531	40159.066406	31395.054688	77.651619
536.847229	946.839539	39373.535156	30724.695313	77.492630
537.194641	946.690979	38704.285156	30199.375000	77.474968
537.542114	948.177063	38279.351563	29863.380859	77.455910
537.889404	952.560852	37919.281250	29533.994141	77.316666
538.236694	951.966492	37522.281250	29219.619141	77.296715
538.583984	948.920105	37117.703125	28943.585938	77.400078
538.931213	947.136719	36748.937500	28753.890625	77.668587
539.278381	948.697083	36484.644531	28596.517578	77.802399
539.625488	954.046875	36365.832031	28540.865234	77.902931
539.972595	958.430847	36510.722656	28747.796875	78.164764
540.319641	954.195496	37004.535156	29370.228516	78.823204
540.666687	950.554688	37895.429688	30239.720703	79.278023
541.013611	945.725098	39217.050781	31412.218750	79.606583
541.360596	945.353516	40693.519531	32564.654297	79.549088
541.707458	942.381409	42364.214844	33813.308594	79.356522
542.054260	937.254578	43726.480469	34793.738281	79.123856
542.401062	941.935547	44901.425781	35644.128906	78.941299
542.747864	943.496033	45498.453125	35997.886719	78.676750
543.094666	948.474182	45549.792969	35922.765625	78.415375
543.441284	954.121277	44937.093750	35264.074219	78.007355
543.787903	958.282227	43882.449219	34313.144531	77.706490
544.134460	954.864319	42526.941406	33054.378906	77.214119
544.481079	946.245178	41031.968750	31756.164063	76.860077
544.827637	930.567322	39371.972656	30412.103516	76.692139
545.174072	931.756165	37749.199219	29156.685547	76.661842
545.520508	932.721985	36336.410156	28115.257813	76.778824
545.866943	940.226624	35239.328125	27239.304688	76.675705
546.213318	953.155273	34420.511719	26622.146484	76.698601
546.559631	949.663086	33790.128906	26091.921875	76.558777
546.905823	946.245117	33215.542969	25713.869141	76.752914
547.252136	941.043945	32778.718750	25405.365234	76.840790
547.598389	944.090332	32419.095703	25118.257813	76.804329
547.944458	951.892090	32148.335938	24831.298828	76.545280
548.290588	948.622803	31729.490234	24415.576172	76.238762
548.636658	950.480408	31149.185547	23944.273438	76.141655
548.982727	950.108887	30421.166016	23349.853516	76.005905
549.328735	950.926270	29727.851563	22807.740234	75.952568
549.674622	954.121277	28984.447266	22170.521484	75.690880
550.020569	956.276062	28310.599609	21620.605469	75.543190
550.366455	950.777649	27559.173828	21038.148438	75.492599
550.712280	947.731201	26934.734375	20593.742188	75.599373
551.058044	949.663086	26397.822266	20210.189453	75.685341
551.403748	954.715637	25999.634766	19920.560547	75.727318
551.749512	959.025146	25746.265625	19761.923828	75.857170
552.095154	957.836365	25609.322266	19628.699219	75.739304
552.440735	956.647522	25631.615234	19638.654297	75.712387
552.786316	955.978821	25666.240234	19613.837891	75.506523
553.131897	951.743469	25736.158203	19679.818359	75.563919
553.477417	949.885925	25774.275391	19674.541016	75.428459
553.822815	947.656921	25806.375000	19697.056641	75.423843
554.168213	949.440186	25761.275391	19628.177734	75.281563
554.513672	950.554749	25680.507813	19568.958984	75.286858
554.859009	948.697083	25507.603516	19391.076172	75.094467
555.204285	945.725037	25291.310547	19216.390625	75.047142
555.549500	945.204834	24993.654297	19016.369141	75.144821
555.894714	948.399902	24722.076172	18830.462891	75.217911
556.239990	947.210999	24428.134766	18600.423828	75.181084
556.585022	941.564026	24184.123047	18385.464844	75.051552
556.930115	937.403137	23892.708984	18142.939453	74.952332
557.275146	944.313293	23670.171875	17975.015625	74.939751
557.620178	949.811707	23514.287109	17807.242188	74.707832
557.965149	951.966492	23388.564453	17710.574219	74.693176
558.310059	948.845764	23224.281250	17611.453125	74.802612
558.654968	946.542419	23088.380859	17530.537109	74.898903
558.999756	951.000488	22981.755859	17488.037109	75.063416
559.344604	952.932434	22973.880859	17463.814453	74.978073
559.689331	949.440186	22845.115234	17401.175781	75.136917
560.033997	945.947937	22767.912109	17343.666016	75.143181
560.378723	937.774658	22696.880859	17315.580078	75.268745
560.723389	940.969727	22733.585938	17321.525391	75.165619
561.067932	935.545593	22804.396484	17382.376953	75.206657
561.412476	938.294861	22819.257813	17406.601563	75.263168
561.757019	940.375244	22821.783203	17455.714844	75.476585
562.101501	941.786926	22823.197266	17452.818359	75.456886
562.445862	943.421631	22813.091797	17460.173828	75.523552
562.790222	937.700378	22787.009766	17418.935547	75.431374
563.134644	937.031677	22736.039063	17374.427734	75.404335
563.478943	937.031677	22742.281250	17339.505859	75.222595
563.823181	936.214294	22748.298828	17316.771484	75.098541
564.167358	941.043945	22772.669922	17335.197266	75.093597
564.511536	939.483582	22787.974609	17403.257813	75.354286
564.855774	940.152344	22822.898438	17476.146484	75.566360
565.199768	936.957336	22920.904297	17596.517578	75.780571
565.543823	937.180176	23095.367188	17695.265625	75.629318
565.887817	940.152344	23317.458984	17914.830078	75.856659
566.231812	938.294739	23546.234375	18077.330078	75.809807
566.575745	938.889099	23741.726563	18260.634766	75.963112
566.919617	937.700378	23958.244141	18372.312500	75.735016
567.263428	947.136780	24106.255859	18484.732422	75.726524
567.607239	953.081055	24229.373047	18533.623047	75.529823
567.950989	962.443176	24229.593750	18543.283203	75.560776
568.294678	951.594971	24225.062500	18505.091797	75.422783
568.638367	949.143005	24105.734375	18419.867188	75.446007
568.981995	942.307129	23980.236328	18301.353516	75.349854
569.325623	950.183167	23763.943359	18192.126953	75.576950
569.669128	945.056335	23585.095703	18084.314453	75.703308
570.012573	949.440186	23441.318359	17987.275391	75.751060
570.356140	944.759094	23399.859375	17929.320313	75.637878
570.699524	947.805481	23370.507813	17931.548828	75.743515
571.042908	942.975769	23424.005859	18017.962891	75.952866
571.386230	948.325623	23544.228516	18105.046875	75.928459
571.729492	947.136780	23718.914063	18236.044922	75.922523
572.072815	949.960266	23831.187500	18351.287109	76.050667
572.416016	941.935547	23947.099609	18458.281250	76.140930
572.759094	940.672424	24061.228516	18564.312500	76.224983
573.102234	936.734436	24205.150391	18640.843750	76.086441
573.445374	939.037781	24295.802734	18678.070313	75.948158
573.788391	940.375183	24289.412109	18667.072266	75.920464
574.131409	936.660095	24264.521484	18635.123047	75.868347
574.474365	928.263916	24164.359375	18593.511719	76.025024
574.817261	933.910889	24048.593750	18446.615234	75.764420
575.160156	935.694153	23862.765625	18283.150391	75.663635
575.502930	949.811707	23641.787109	18089.072266	75.530052
575.845703	943.793152	23454.843750	17942.025391	75.510612
576.188477	954.121277	23252.515625	17762.437500	75.379044
576.531250	947.211121	23035.031250	17611.080078	75.443703
576.873901	943.793213	22822.750000	17435.578125	75.377380
577.216431	940.449524	22540.992188	17232.212891	75.422935
577.559082	943.273010	22290.296875	17032.634766	75.370514
577.901611	954.492737	21955.265625	16770.642578	75.312225
578.244080	952.189392	21652.185547	16494.312500	75.082733
578.586487	951.966492	21317.228516	16186.031250	74.804169
578.928955	954.195557	21005.156250	15913.562500	74.606735
579.271301	955.681641	20676.441406	15718.592773	74.859749
579.613647	957.762146	20351.812500	15477.406250	74.866486
579.955872	956.201721	20060.843750	15269.061523	74.918228
580.298157	954.121277	19811.408203	15045.186523	74.724777
580.640320	952.189392	19562.568359	14849.769531	74.676506
580.982483	941.192566	19365.146484	14693.289063	74.642487
581.324524	940.598145	19211.712891	14551.073242	74.491753
581.666626	937.328857	19106.128906	14435.534180	74.293320
582.008728	940.746765	19018.005859	14343.323242	74.140533
582.350647	940.746765	18926.537109	14260.327148	74.056129
582.692566	947.954102	18849.039063	14205.194336	74.058304
583.034424	947.433899	18751.482422	14150.656250	74.158539
583.376343	947.434021	18661.572266	14086.831055	74.174637
583.718201	947.062500	18603.021484	14047.077148	74.195999
584.059937	945.725037	18481.390625	13983.176758	74.348198
584.401611	944.907715	18379.744141	13927.671875	74.464500
584.743347	943.124512	18270.220703	13865.555664	74.579330
585.085022	942.084167	18195.029297	13801.359375	74.533798
585.426514	947.433899	18150.148438	13756.406250	74.459015
585.768127	947.731201	18082.013672	13700.605469	74.428993
586.109619	950.777649	18065.591797	13687.007813	74.416412
586.451172	948.028503	18004.144531	13640.122070	74.413742
586.792542	945.056335	17956.664063	13622.140625	74.520203
587.133850	946.170898	17883.103516	13568.567383	74.525864
587.475220	942.381409	17891.126953	13580.307617	74.565552
587.816589	944.164734	17869.802734	13569.088867	74.590530
588.157776	947.508301	17926.720703	13607.651367	74.562599
588.498962	955.830261	17911.267578	13630.833008	74.754799
588.840210	957.836426	17949.162109	13676.234375	74.852303
589.181335	952.932373	17969.890625	13719.254883	75.021172
589.522400	950.331848	18052.812500	13727.502930	74.709457
589.863403	949.068665	18114.185547	13763.911133	74.656311
590.204407	955.087219	18110.769531	13780.257813	74.757568
590.545410	952.858093	18122.435547	13862.434570	75.188660
590.886353	948.994324	18144.947266	13846.757813	75.004646
591.227112	941.564026	18158.320313	13827.661133	74.846252
591.567932	940.746765	18107.498047	13747.862305	74.604187
591.908752	940.821106	18018.335938	13719.997070	74.830414
592.249512	944.833435	18020.119141	13697.409180	74.684410
592.590149	949.811707	17921.371094	13654.090820	74.856293
592.930786	957.242004	17888.378906	13603.565430	74.692703
593.271423	961.180115	17790.597656	13535.726563	74.717659
593.612000	957.687805	17751.810547	13500.878906	74.687981
593.952576	951.966492	17734.126953	13489.286133	74.706230
594.292969	952.115051	17750.621094	13543.825195	74.957321
594.633484	949.960266	17833.914063	13586.624023	74.844223
594.973877	948.474182	17917.208984	13655.131836	74.882767
595.314209	937.848938	18010.162109	13728.393555	74.919815
595.654480	939.632141	18158.767578	13872.393555	75.106918
595.994812	940.523865	18318.220703	14049.233398	75.434105
596.335022	938.591980	18531.916016	14196.128906	75.355499
596.675171	935.545593	18716.855469	14336.710938	75.366577
597.015320	936.362976	18891.691406	14479.148438	75.424881
597.355408	953.303894	18983.529297	14581.090820	75.583015
597.695496	956.498840	19072.097656	14667.653320	75.687004
598.035461	951.669189	19074.994141	14626.340820	75.453445
598.375366	949.663086	19022.759766	14589.933594	75.472786
598.715271	948.622803	18924.310547	14439.098633	75.048454
599.055176	953.006653	18742.712891	14257.800781	74.789284
599.395081	947.211121	18524.486328	14003.313477	74.278305
599.734802	952.189392	18162.705078	13782.708008	74.550461
600.074524	950.406067	17821.728516	13537.508789	74.606499
600.414246	947.879822	17416.037109	13270.987305	74.829910
600.753906	945.204895	17094.900391	13010.257813	74.707619
601.093506	949.365906	16788.773438	12797.602539	74.802269
601.433044	942.752930	16608.738281	12667.053711	74.839218
601.772583	937.477356	16475.068359	12587.624023	74.980392
602.112122	935.842773	16447.501953	12595.500000	75.167053
602.451538	946.765320	16503.525391	12651.003906	75.235710
602.790894	945.650696	16638.087891	12744.700195	75.189400
603.130310	942.604309	16828.822266	12876.067383	75.118340
603.469604	942.381348	17032.859375	13038.492188	75.175583
603.808838	943.867432	17284.595703	13272.472656	75.447098
604.148010	954.864197	17546.363281	13509.125977	75.666824
604.487305	955.087158	17821.580078	13761.534180	75.928337
604.826416	957.613464	18046.943359	13932.799805	75.925659
605.165527	953.229492	18262.419922	14071.374023	75.787163
605.504456	948.622803	18460.882813	14171.979492	75.509140
605.843445	948.251282	18544.992188	14205.340820	75.338326
606.182434	940.820984	18545.513672	14205.045898	75.344818
606.521423	942.752930	18385.615234	14069.741211	75.257072
606.860229	936.734375	18197.404297	13909.840820	75.159927
607.199036	940.895325	17895.511719	13670.139648	75.078331
607.537903	937.254456	17598.302734	13489.063477	75.336243
607.876648	945.353516	17307.705078	13232.719727	75.095360
608.215271	944.981934	17017.253906	13027.125000	75.173836
608.553955	939.706543	16775.025391	12809.268555	74.956261
608.892578	935.545593	16554.421875	12698.335938	75.311371
609.231140	936.734375	16473.804688	12610.137695	75.132591
609.569641	941.192566	16426.919922	12585.915039	75.196487
609.908081	942.604309	16474.697266	12607.686523	75.103096
610.246521	945.947998	16495.576172	12619.351563	75.071915
610.584961	948.102722	16557.767578	12659.401367	75.025948
610.923340	954.715637	16542.757813	12640.453125	74.966034
611.261597	951.817810	16465.333984	12589.333008	75.015327
611.599854	946.913818	16349.867188	12469.483398	74.807533
611.938110	941.638367	16186.178711	12323.997070	74.665146
612.276245	940.895325	15975.828125	12155.108398	74.587715
612.614319	946.393799	15678.096680	11924.769531	74.522110
612.952393	948.251282	15374.497070	11683.583008	74.415283
613.290466	947.211121	15107.971680	11461.565430	74.249924
613.628479	948.845764	14852.519531	11256.639648	74.137199
613.966370	947.136719	14593.796875	11062.338867	74.122185
614.304260	947.285339	14358.480469	10904.741211	74.247345
614.642151	943.124329	14145.083008	10771.070313	74.443092
614.979980	941.861267	14020.700195	10667.268555	74.359871
615.317749	939.483582	13909.542969	10544.000977	74.051453
615.655396	946.690979	13849.878906	10482.255859	73.900841
615.993164	946.765320	13789.247070	10444.584961	73.956261
616.330811	951.817871	13757.223633	10419.397461	73.934242
616.668396	950.331848	13714.424805	10373.625977	73.826584
617.005859	940.598145	13664.938477	10306.901367	73.609344
617.343445	937.328857	13645.916992	10301.626953	73.684799
617.680908	936.882996	13673.632813	10301.627930	73.525391
618.018311	951.594971	13731.737305	10335.062500	73.422249
618.355652	948.622864	13752.840820	10329.637695	73.265038
618.692993	948.622864	13741.768555	10311.433594	73.186150
619.030273	940.375305	13736.492188	10303.707031	73.173225
619.367554	937.551758	13728.096680	10294.493164	73.155144
619.704712	935.991394	13723.266602	10310.542969	73.311562
620.041870	939.780823	13706.028320	10319.161133	73.470139
620.379028	953.378235	13683.069336	10302.147461	73.440659
620.716064	957.687805	13619.019531	10237.800781	73.294922
621.053040	961.625793	13535.875000	10182.890625	73.334518
621.389954	956.127441	13463.578125	10122.258789	73.285362
621.726929	948.697083	13411.640625	10106.359375	73.479126
622.063843	941.043945	13343.059570	10062.891602	73.551331
622.400635	933.390808	13257.539063	10028.934570	73.802612
622.737427	927.966614	13187.098633	9981.827148	73.854012
623.074219	927.372253	13156.858398	9951.214844	73.787590
623.410889	934.133728	13116.808594	9955.450195	74.050377
623.747559	936.214294	13112.573242	9959.313477	74.103424
624.084167	940.821045	13071.409180	9943.709961	74.216423
624.420715	946.022278	13074.231445	9911.685547	73.924049
624.757324	952.709473	13057.811523	9907.598633	73.976158
625.093750	955.087219	13109.450195	9951.660156	74.019287
625.430176	945.204895	13166.367188	9990.891602	74.016579
625.766602	952.115051	13220.979492	10044.538086	74.109734
626.102905	952.263672	13288.743164	10106.655273	74.205864
626.439209	958.059326	13351.528320	10193.961914	74.522339
626.775452	950.480469	13482.898438	10276.809570	74.417633
627.111694	951.000549	13563.664063	10328.821289	74.352417
627.447876	945.130615	13676.010742	10377.043945	74.086891
627.783997	944.833313	13727.799805	10407.135742	74.022743
628.120056	938.443359	13782.709961	10451.643555	74.065735
628.456055	939.409241	13767.921875	10447.780273	74.119041
628.792053	937.923157	13732.331055	10421.550781	74.123222
629.128052	941.118225	13662.041992	10340.932617	73.892548
629.463928	948.251282	13597.621094	10289.588867	73.848244
629.799744	956.276062	13477.473633	10200.054688	73.825035
630.135559	960.288391	13373.821289	10111.040039	73.715935
630.471375	959.025208	13196.980469	9999.288086	73.870697
630.807068	963.483398	13051.941406	9877.803711	73.742409
631.142700	963.854980	12927.039063	9766.721680	73.582985
631.478333	962.368896	12814.768555	9611.799805	72.976196
631.813965	954.492737	12736.972656	9523.157227	72.723778
632.149475	950.034485	12588.960938	9431.913086	72.875092
632.484924	947.656921	12496.975586	9412.371094	73.291893
632.820435	946.690918	12396.370117	9348.395508	73.379387
633.155884	946.393738	12327.118164	9297.721680	73.381340
633.491150	955.607239	12256.160156	9261.685547	73.501518
633.826477	955.532959	12204.221680	9239.394531	73.642906
634.161804	952.709534	12157.635742	9216.508789	73.751480
634.497009	946.690979	12105.696289	9147.258789	73.488342
634.832153	945.279236	12012.817383	9095.692383	73.642509
635.167297	958.430847	11948.398438	9044.721680	73.578842
635.502380	959.693909	11872.831055	9009.874023	73.765961
635.837463	958.802307	11815.321289	8944.710938	73.558655
636.172424	945.576355	11739.903320	8900.946289	73.699547
636.507324	943.050110	11657.578125	8829.465820	73.604881
636.842224	943.050110	11577.627930	8767.350586	73.574150
637.177124	949.885925	11461.268555	8675.437500	73.497009
637.511963	946.468018	11349.368164	8595.413086	73.527046
637.846741	947.508301	11214.362305	8511.525391	73.674149
638.181396	942.009949	11091.166992	8412.331055	73.605339
638.516113	950.331787	10994.351563	8308.975586	73.263931
638.850769	948.325623	10873.459961	8238.016602	73.446770
639.185303	945.502136	10778.278320	8173.224609	73.506424
639.519836	941.638428	10681.610352	8106.427246	73.560677
639.854370	942.752930	10618.006836	8019.492188	73.142670
640.188843	946.690918	10537.686523	7939.765625	72.912910
640.523254	942.604309	10471.036133	7910.936035	73.131989
640.857605	946.245117	10387.297852	7858.998535	73.220154
641.191895	950.108887	10299.843750	7796.361328	73.224030
641.526184	948.845703	10218.407227	7727.334473	73.126312
641.860413	950.406067	10164.687500	7678.740723	73.020721
642.194580	946.616699	10111.708008	7638.988770	73.020241
642.528748	947.954102	10060.959961	7596.858887	72.960609
642.862793	940.226624	10008.576172	7557.775879	72.974129
643.196838	941.192566	9970.831055	7538.011719	73.057404
643.530823	944.759094	9919.190430	7496.401855	73.003426
643.864746	943.793152	9851.278320	7448.699219	73.027412
644.198669	948.474182	9807.291016	7390.595215	72.719887
644.532532	950.851868	9773.409180	7350.916504	72.542053
644.866333	950.406067	9759.290039	7315.771973	72.260750
645.200073	953.378174	9736.331055	7302.693848	72.291351
645.533813	950.257507	9706.536133	7295.189453	72.461517
645.867554	953.749695	9677.707031	7299.053223	72.734238
646.201172	944.907715	9670.796875	7287.759277	72.690033
646.534729	942.901550	9695.391602	7293.332031	72.555702
646.868225	945.353516	9742.870117	7289.542969	72.113411
647.201782	949.514404	9749.780273	7288.056641	72.026711
647.535217	951.892090	9739.377930	7274.087402	71.945435
647.868591	953.378235	9724.740234	7293.183594	72.278458
648.201965	949.068665	9748.887695	7302.322754	72.197548
648.535278	939.409363	9760.777344	7310.421875	72.222504
648.868591	934.282410	9755.426758	7292.069824	72.074409
649.201782	938.443359	9705.198242	7268.144043	72.201180
649.534912	948.697205	9663.143555	7250.014160	72.308861
649.868103	952.263672	9604.295898	7237.457031	72.644127
650.201172	952.189270	9581.782227	7239.313965	72.855400
650.534180	952.189270	9571.454102	7208.181152	72.581505
650.867188	956.647461	9536.308594	7171.252441	72.434151
651.200134	962.220154	9506.215820	7153.717285	72.466057
651.533020	962.814636	9453.015625	7134.695801	72.694168
651.865845	967.421387	9424.409180	7120.652832	72.759132
652.198608	962.443176	9382.055664	7075.699219	72.607330
652.531433	954.269958	9328.410156	7055.562988	72.858734
652.864136	945.947998	9290.812500	7040.182129	73.029762
653.196777	1017.947266	9312.360352	7214.793457	74.711090
653.529358	1023.965759	9260.719727	7178.905762	74.725311
653.861938	1016.535461	9207.295898	7137.593750	74.731255
654.194519	936.883057	9059.209961	6892.989746	73.330048
654.526978	939.186462	9004.969727	6852.420410	73.312584
654.859375	939.632263	8926.133789	6783.838379	73.176048
655.191833	943.124451	8890.246094	6755.009277	73.131950
655.524170	940.746765	8861.045898	6707.678223	72.812042
655.856445	946.245117	8843.807617	6690.959473	72.740349
656.188660	953.303894	8822.483398	6666.736816	72.605194
656.520874	949.365906	8762.148438	6646.898438	72.925781
656.853088	951.743591	8755.684570	6644.669434	72.949371
657.185181	945.130615	8742.383789	6647.715332	73.135818
657.517212	943.050110	8774.928711	6683.752441	73.299171
657.849243	943.718750	8806.433594	6708.420410	73.316940
658.181274	944.610413	8839.793945	6763.182129	73.697739
658.513123	951.297668	8901.094727	6825.150879	73.886833
658.844971	942.529968	8974.431641	6891.576660	74.067726
659.176819	940.895325	9073.774414	6957.037598	73.973091
659.508667	944.907715	9156.993164	7019.601074	73.972595
659.840393	948.102722	9224.237305	7104.083496	74.382317
660.172058	950.777649	9304.855469	7149.185059	74.196182
660.503662	943.273010	9348.396484	7170.509277	74.088577
660.835266	949.885925	9395.727539	7170.880371	73.657486
661.166931	950.406067	9345.127930	7145.023438	73.791809
661.498413	950.851868	9319.938477	7114.410645	73.646729
661.829773	950.777649	9207.742188	7029.779785	73.622719
662.161194	953.749756	9100.002930	6940.096191	73.485893
662.492615	956.201721	8936.090820	6811.627441	73.377281
662.823975	952.263672	8771.807617	6677.064941	73.211449
663.155212	948.474304	8624.911133	6555.134766	73.037277
663.486450	944.981995	8474.597656	6451.408203	73.130241
663.817627	941.415466	8340.703125	6361.947754	73.257484
664.148743	941.192566	8202.722656	6248.859375	73.092957
664.479858	947.731262	8120.470215	6148.476074	72.507095
664.810913	946.690918	8048.470703	6091.188965	72.439560
665.141907	953.675354	8012.359375	6055.449219	72.276558
665.472778	953.229675	7932.410156	6011.015625	72.469627
665.803711	958.876648	7875.270996	5952.316895	72.197159
666.134583	955.532959	7811.371094	5922.744629	72.452293
666.465454	956.870361	7798.367676	5920.738281	72.555290
666.796143	958.059265	7743.606934	5906.174316	72.921379
667.126831	958.579407	7720.349609	5911.227051	73.244835
667.457458	958.356506	7696.275391	5896.738281	73.292389
667.788147	959.322449	7695.830078	5902.905762	73.384956
668.118774	959.842529	7683.718750	5877.048340	73.130531
668.449219	957.316223	7662.097168	5863.376465	73.172562
668.779663	951.520691	7665.737793	5826.447754	72.606041
669.110107	950.480469	7649.167969	5784.912598	72.169838
669.440552	949.440247	7620.264160	5742.411621	71.849762
669.770874	949.960266	7575.831543	5744.045410	72.354034
670.101135	947.285400	7552.871582	5739.736328	72.551491
670.431396	948.622864	7532.884277	5727.996094	72.587837
670.761597	951.669250	7509.850098	5694.634766	72.321358
671.091797	951.149109	7482.357910	5671.526855	72.274185
671.421875	957.316223	7440.377441	5662.089844	72.570244
671.751892	951.743591	7409.021484	5636.083984	72.543579
672.081909	948.994324	7368.303223	5620.777344	72.777039
672.411865	940.746765	7337.542480	5584.443848	72.594116
672.741821	943.050110	7292.367188	5539.268066	72.389168
673.071716	948.548584	7267.847168	5499.812988	72.021675
673.401550	953.378235	7224.230469	5473.583984	72.082794
673.731262	950.257507	7217.617676	5465.262207	72.039978
674.060974	952.263672	7177.494141	5439.850586	72.087082
674.390625	948.474304	7135.364746	5407.157715	72.066628
674.720276	950.703308	7074.584473	5377.139160	72.281548
675.049927	943.867432	7014.325684	5347.418457	72.540665
675.379395	946.096497	6985.050293	5324.830078	72.508148
675.708923	948.474182	6942.994629	5300.310059	72.596901
676.038330	947.285400	6909.707031	5264.199707	72.402023
676.367737	945.130615	6860.295410	5245.177734	72.695297
676.697083	951.297791	6811.330078	5210.032715	72.674255
677.026428	951.594910	6774.996094	5207.357422	73.080360
677.355652	948.845703	6762.811035	5182.986328	72.827072
677.684875	947.359619	6770.687012	5193.017578	72.907776
678.013977	943.793152	6776.853516	5174.664551	72.532616
678.343079	943.644531	6783.318359	5192.720215	72.762207
678.672180	944.016113	6787.851074	5197.252441	72.781593
679.001221	950.480469	6793.498047	5233.437988	73.300438
679.330139	953.452454	6811.627441	5245.326172	73.262985
679.659058	948.622864	6849.150391	5267.171387	73.189194
679.987976	946.096619	6897.447266	5269.549316	72.646576
680.316772	939.112122	6932.518066	5293.028320	72.645103
680.645630	939.186462	6972.418457	5321.857910	72.642181
680.974304	943.718811	7034.461426	5370.451660	72.679688
681.302979	943.050110	7084.170410	5397.646973	72.537201
681.631653	947.136902	7111.811035	5415.925293	72.490265
681.960266	944.982117	7099.699707	5429.894043	72.869499
682.288757	950.108887	7106.535156	5440.816895	72.943420
682.617249	946.542297	7099.773438	5433.460449	72.919708
682.945679	946.096497	7097.173340	5409.684082	72.565956
683.274109	943.347351	7089.593750	5387.096191	72.300209
683.602478	936.660156	7043.154785	5326.539063	71.888687
683.930725	933.613708	6979.849121	5271.332031	71.742462
684.259033	938.071838	6881.324219	5202.527832	71.752899
684.587280	948.994324	6821.361816	5168.868652	71.859848
684.915344	956.647522	6747.132813	5118.714355	71.877686
685.243469	960.214050	6683.380859	5043.520020	71.346962
685.571533	957.019043	6599.567871	4989.056152	71.457726
685.899536	949.811707	6538.861816	4925.676270	71.136673
686.227539	950.034485	6481.723145	4897.366699	71.358543
686.555420	943.421570	6466.045410	4876.115723	71.210609
686.883301	944.684753	6453.488281	4881.763184	71.468842
687.211121	944.238953	6445.314941	4883.472168	71.608406
687.538940	947.434021	6427.556641	4886.072266	71.871353
687.866638	944.684814	6436.695801	4882.060059	71.692780
688.194336	943.941833	6449.327637	4887.112793	71.623878
688.521973	943.124512	6455.717285	4884.363281	71.495193
688.849609	951.000549	6430.380371	4863.707520	71.407845
689.177063	942.604309	6409.724121	4823.063965	70.978142
689.504578	937.923279	6358.083496	4763.101563	70.573158
689.832031	930.790222	6296.338379	4713.764160	70.504890
690.159485	939.483582	6220.623535	4678.321777	70.796043
690.486816	950.406067	6162.519531	4633.369141	70.661606
690.814087	953.452576	6101.813965	4587.895996	70.594177
691.141296	953.452454	6014.805176	4536.701172	70.796272
691.468506	952.412292	5915.833496	4477.259277	71.016472
691.795715	951.594910	5825.630371	4422.126465	71.204475
692.122803	951.223450	5764.553223	4342.994629	70.466217
692.449829	952.709534	5703.699219	4314.461914	70.758995
692.776855	951.892273	5628.802734	4270.623535	70.959900
693.103821	947.285400	5573.669922	4250.709961	71.404015
693.430664	940.895447	5522.400879	4199.664063	71.128777
693.757568	941.043945	5477.225098	4151.144043	70.766579
694.084351	942.901550	5414.513672	4118.228027	71.010773
694.411133	945.650696	5364.135742	4101.584473	71.425705
694.737854	940.821106	5336.866699	4092.593750	71.695633
695.064575	941.638367	5308.706543	4077.807373	71.814056
695.391174	940.449524	5285.895020	4055.665283	71.689217
695.717773	952.115051	5267.170898	4045.783203	71.694748
696.044250	951.297791	5265.462402	4032.705811	71.425369
696.370789	950.777649	5273.264160	4029.733643	71.231133
696.697205	948.622864	5280.694336	4042.216553	71.411423
697.023621	950.331787	5312.644043	4090.290283	71.979218
697.349915	945.947937	5359.975098	4148.841309	72.561699
697.676208	941.118164	5439.255859	4212.666992	72.731186
698.002380	944.610413	5522.697754	4255.242676	72.314751
698.328674	948.325684	5634.003906	4333.186035	72.238426
698.654724	953.824036	5729.408203	4403.104980	72.227417
698.980896	950.703369	5843.017090	4508.392090	72.719963
699.306946	953.081055	5922.595215	4569.468750	72.771454
699.632935	949.588867	5982.781250	4623.041016	72.984535
699.958862	949.663086	6011.833496	4626.162109	72.626930
700.284729	948.102722	6007.300781	4609.294922	72.367043
700.610596	942.752930	5979.064941	4578.533691	72.191330
700.936340	939.483582	5903.648438	4534.100586	72.411308
701.262146	944.164612	5799.625000	4460.986816	72.430252
701.587830	952.932373	5669.595215	4364.765137	72.335732
701.913513	952.783752	5522.252441	4253.904785	72.242996
702.239075	954.864258	5372.532715	4138.289551	72.061211
702.564697	952.337952	5240.199219	4037.015381	71.939766
702.890137	954.864258	5114.181641	3939.753174	71.763916
703.215698	951.223389	5018.628418	3866.193359	71.666580
703.541016	946.616638	4912.895996	3796.274658	71.847130
703.866455	945.576355	4826.109863	3740.398682	72.021599
704.191711	938.146057	4755.448242	3695.371338	72.229683
704.517029	944.461914	4703.584473	3645.662842	71.857216
704.842163	944.164551	4664.056152	3601.824219	71.444550
705.167419	945.724915	4625.195801	3561.923828	71.102585
705.492493	941.118164	4579.796387	3537.775391	71.362648
705.817566	934.208008	4543.016602	3516.079102	71.543587
706.142578	936.214294	4512.552734	3498.023438	71.632179
706.467590	938.369141	4505.939941	3491.113281	71.554131
706.792480	943.570251	4490.336426	3477.292969	71.437546
707.117371	947.285339	4477.630859	3483.980225	71.854012
707.442200	951.297668	4467.079590	3465.552979	71.513405
707.766907	960.882751	4456.156738	3479.893555	72.069054
708.091675	959.173828	4443.228027	3466.518799	71.966301
708.416321	955.755859	4437.655762	3470.308594	72.217834
708.741028	944.090332	4458.535156	3464.364502	71.711868
709.065552	942.307129	4482.237793	3468.971436	71.376099
709.390137	944.387512	4499.327148	3482.271240	71.390350
709.714600	952.635071	4513.890137	3485.614502	71.126030
710.039063	951.223389	4549.109375	3498.394775	70.796333
710.363403	952.709473	4597.035156	3513.775391	70.275444
710.687744	953.080994	4651.499023	3544.759766	70.075333
711.012085	959.991211	4697.046387	3589.936279	70.374802
711.336304	953.824036	4768.748535	3631.991455	70.202370
711.660461	956.201843	4818.234375	3677.538818	70.463852
711.984619	957.390625	4860.512207	3684.523438	69.870560
712.308716	965.786804	4862.815918	3686.901123	69.825356
712.632751	956.350342	4861.552246	3676.052734	69.643066
712.956726	951.743469	4835.175293	3675.384033	70.134888
713.280701	948.028503	4793.788574	3653.687500	70.354340
713.604553	961.105652	4748.018066	3621.291748	70.246834
713.928467	961.923035	4684.266113	3581.168213	70.365494
714.252258	968.015808	4623.264160	3548.326416	70.591934
714.575989	956.944763	4568.279785	3498.023682	70.363976
714.899719	953.303894	4523.104004	3466.890625	70.412537
715.223267	939.037781	4477.853516	3437.318359	70.596512
715.546936	942.381348	4439.067383	3407.225586	70.490868
715.870422	948.994324	4406.076660	3378.544922	70.277489
716.193970	952.635193	4373.829590	3352.167236	70.137260
716.517395	948.177002	4326.572754	3356.105469	71.274315
716.840820	945.056335	4292.542480	3340.724609	71.566193
717.164124	954.864258	4261.261230	3326.235596	71.720711
717.487488	956.721863	4231.763184	3296.365967	71.438614
717.810730	950.108887	4191.193848	3265.753174	71.446579
718.133972	947.508301	4139.107910	3232.391357	71.590530
718.457092	949.291504	4088.507080	3202.150391	71.765030
718.780212	950.926270	4032.557373	3161.803711	71.743744
719.103210	947.879883	3981.139648	3125.321045	71.785515
719.426208	944.759216	3929.647705	3076.727295	71.425385
719.749207	951.966492	3888.707031	3049.086670	71.409790
720.072083	948.920105	3852.447266	3013.421143	71.103210
720.394958	952.635254	3808.014404	2982.808350	71.099945
720.717773	953.378235	3761.203857	2941.124268	70.793076
721.040527	952.858154	3726.058350	2915.712891	70.779411
721.363281	950.703308	3699.532471	2885.397705	70.382492
721.685913	951.446289	3678.430420	2867.490479	70.262390
722.008545	951.223389	3653.167969	2838.215576	69.838303
722.331055	952.783752	3626.938721	2826.624268	70.072250
722.653503	951.074890	3611.855225	2803.961670	69.636971
722.976013	954.195557	3585.700439	2797.200439	70.036156
723.298401	947.805481	3582.059570	2792.667969	70.033585
723.620789	943.644531	3566.604736	2796.308838	70.632576
723.943115	943.421631	3565.936279	2785.460205	70.239403
724.265381	949.960266	3545.800049	2766.438721	69.976524
724.587585	954.715637	3537.552734	2746.005615	69.353577
724.909790	953.303955	3523.806641	2744.148193	69.669029
725.231873	950.777649	3535.471924	2750.463623	69.628586
725.553894	946.096497	3538.593018	2755.218994	69.783028
725.875916	980.870178	3589.564453	2790.512939	69.369675
726.197937	986.145691	3588.524170	2790.587158	69.338165
726.519775	989.415039	3582.357178	2802.178467	69.911446
726.841675	956.944763	3556.722656	2787.466797	70.410706
727.163513	951.520691	3556.351318	2794.376709	70.747635
727.485291	957.910706	3586.072266	2805.596436	70.303352
727.806946	954.492859	3600.115479	2822.091797	70.592041
728.128662	954.567078	3623.149414	2843.119141	70.769859
728.450256	947.359680	3642.839844	2856.419678	70.824486
728.771790	949.960205	3658.591797	2843.936768	69.923744
729.093323	953.229675	3673.303467	2852.927490	69.839935
729.414795	947.582703	3670.851563	2855.230713	70.049934
729.736145	946.319519	3665.055908	2850.475342	70.038269
730.057495	949.811707	3660.375000	2850.995361	70.139801
730.378845	949.663086	3659.483154	2851.441406	70.180984
730.700134	952.709473	3651.755859	2861.471924	70.719887
731.021301	951.000549	3650.567139	2851.292236	70.392471
731.342468	958.207947	3643.805664	2860.505859	70.833313
731.663574	956.944763	3647.891846	2862.883789	70.827812
731.984680	958.207825	3657.403076	2874.549072	70.996765
732.305664	954.269836	3666.839111	2857.459717	70.161888
732.626648	951.520691	3675.904297	2874.920654	70.599457
732.947571	946.096497	3689.352783	2871.131592	70.173363
733.268433	951.520569	3695.966064	2879.304688	70.243118
733.589233	956.498840	3693.662354	2862.289063	69.626465
733.909973	960.362610	3668.473633	2855.082031	69.964615
734.230713	956.350281	3646.331299	2837.546875	69.933449
734.551331	944.461914	3612.078125	2793.708008	69.322044
734.871948	946.765320	3582.357178	2758.785400	68.751923
735.192505	937.997559	3535.769531	2737.089111	69.255173
735.513062	946.616699	3479.373291	2730.104736	70.416878
735.833435	942.530029	3427.138428	2709.597412	71.120560
736.153931	957.687744	3380.178955	2679.653320	71.082428
736.474304	954.269836	3350.161133	2646.885742	70.646606
736.794617	956.127441	3314.644531	2618.725098	70.493347
737.114807	957.093445	3294.731201	2588.855225	69.803879
737.434998	958.133606	3288.266846	2576.521240	69.454727
737.755188	954.418457	3274.892578	2565.449951	69.426826
738.075256	945.650696	3276.378174	2580.087891	70.125626
738.395325	949.068665	3284.700439	2587.146484	70.134247
738.715271	952.412292	3311.895264	2602.081299	69.916542
739.035278	950.777649	3328.836182	2601.486816	69.414154
739.355164	942.975891	3339.089844	2614.118408	69.743866
739.675049	941.861328	3352.389893	2631.207764	70.081993
739.994873	946.690979	3355.510986	2631.059326	69.925041
740.314636	957.910645	3358.185791	2616.496094	69.099808
740.634277	954.641357	3349.046875	2599.629150	68.701302
740.953979	953.601074	3326.309814	2588.186768	68.891121
741.273499	942.604309	3299.412354	2568.645264	68.993355
741.593140	942.975891	3254.458984	2537.289307	68.973618
741.912598	941.192627	3226.372803	2511.729248	68.727036
742.232117	949.217285	3196.354248	2483.494385	68.276970
742.551453	953.081055	3153.258789	2465.438721	68.737976
742.870850	958.653625	3100.875244	2441.736084	69.231049
743.190063	956.721741	3053.767578	2426.504150	70.088234
743.509338	953.006653	3029.544922	2394.256592	69.406380
743.828552	946.319397	3014.981689	2371.594238	68.898384
744.147705	942.158508	2987.415283	2349.749268	68.822205
744.466797	942.158508	2965.941650	2338.826660	69.012741
744.785828	944.981995	2942.313232	2326.046631	69.145500
745.104858	955.830261	2920.988281	2314.306885	69.128113
745.423706	953.080994	2902.338623	2299.297607	69.063042
745.742615	958.728027	2880.493408	2289.415283	69.242958
746.061401	957.464844	2863.626953	2281.167725	69.443352
746.380249	965.266663	2849.658203	2272.845947	69.389999
746.698975	956.350342	2840.295898	2260.511719	69.225006
747.017639	956.350342	2831.305420	2255.013428	69.263687
747.336304	947.805603	2824.617920	2245.576904	69.147629
747.654907	951.966492	2816.444580	2238.740967	69.015266
747.973389	943.941833	2816.890381	2237.626465	69.072083
748.291931	947.434082	2819.490967	2232.573975	68.648552
748.610352	943.124512	2822.760498	2233.614258	68.656364
748.928711	944.982117	2828.184326	2226.183838	68.033142
749.247070	946.022278	2818.079346	2233.762695	68.787453
749.565308	947.211121	2815.552734	2242.902100	69.349785
749.883545	948.845764	2811.094727	2243.570557	69.524796
750.201782	949.068665	2809.311523	2239.707031	69.380104
750.519836	950.183167	2800.543701	2232.276611	69.288849
750.837952	948.994324	2777.658447	2219.199463	69.460823
751.155884	942.529968	2766.958740	2206.270508	69.267738
751.473877	946.765198	2766.290039	2195.422607	68.625465
751.791809	947.062500	2760.643311	2189.478271	68.506226
752.109619	956.276062	2746.600342	2184.202881	68.586838
752.427490	951.892151	2720.222656	2176.401123	69.246613
752.745300	943.421631	2728.098633	2168.078857	68.620667
753.062988	939.037781	2723.046143	2165.106689	68.725510
753.380615	942.530029	2723.714844	2154.630127	68.050217
753.698303	949.663086	2701.646729	2144.896484	68.221718
754.015808	951.000488	2692.879150	2140.438477	68.284782
754.333374	950.851868	2692.879150	2140.735596	68.304543
754.650757	950.480408	2693.325195	2148.908936	68.762779
754.968262	949.811707	2695.554199	2147.125732	68.584801
755.285583	948.622864	2693.473389	2142.741699	68.436745
755.602905	951.149170	2704.916260	2138.729248	67.715950
755.920105	955.904480	2696.297119	2125.726563	67.215988
756.237305	948.548523	2694.068115	2118.370361	67.018547
756.554443	943.867371	2669.697021	2109.900146	67.563606
756.871582	936.585693	2671.108398	2119.633545	68.205963
757.188599	943.867432	2659.368652	2121.342773	68.637398
757.505615	946.690918	2666.650391	2133.379639	68.995155
757.822510	951.669250	2667.244873	2124.092041	68.339905
758.139465	948.622864	2671.851563	2123.794678	68.195930
758.456238	951.594910	2681.882568	2122.754639	67.685837
758.773010	940.077942	2702.910156	2141.404541	68.147530
759.089783	939.037781	2720.222900	2167.930420	68.992973
759.406433	935.991394	2745.857178	2174.171875	68.412834
759.723145	949.440125	2749.052002	2185.243164	68.670532
760.039673	953.824036	2767.553467	2176.178223	67.394516
760.356201	956.647522	2777.733154	2178.481445	67.093712
760.672668	952.560852	2784.197266	2168.301758	66.374580
760.989136	949.217285	2774.463623	2172.611572	67.026253
761.305481	943.347351	2767.999268	2177.886963	67.658913
761.621826	942.827148	2775.281006	2181.007813	67.569542
761.938049	947.136719	2798.537842	2184.945557	66.857948
762.254333	950.926270	2807.973877	2192.524658	66.858727
762.570496	946.096497	2843.639404	2222.394531	67.260567
762.886597	946.765320	2899.812256	2260.808838	67.281715
763.202637	954.715637	2989.346924	2324.708984	67.333740
763.518677	964.226379	3111.797852	2401.463867	66.923851
763.834656	955.978821	3263.004150	2490.552734	66.517426
764.150574	946.022217	3419.411377	2586.626221	66.330200
764.466370	942.084167	3539.707275	2660.260254	66.144165
764.782288	949.143005	3613.489990	2698.229248	65.647842
765.097961	957.687744	3626.418701	2695.628662	65.122375
765.413696	955.458679	3588.969971	2675.195313	65.302040
765.729309	953.749756	3496.834717	2632.099609	65.996613
766.044861	948.622803	3376.538330	2555.047607	66.164772
766.360474	948.697205	3231.499268	2460.608643	66.230507
766.675903	947.434021	3083.562744	2375.086426	66.833633
766.991394	943.867493	2955.464844	2300.932373	67.462051
767.306763	946.542419	2847.057373	2238.072266	67.956833
767.622131	947.805481	2755.516357	2177.812744	68.042259
767.937378	946.913879	2669.548096	2136.574707	69.060562
768.252625	943.124451	2609.214111	2091.250244	68.911407
768.567810	941.489746	2562.403564	2049.789307	68.374985
768.882996	943.421631	2511.580322	2022.074219	68.784660
769.197998	943.793152	2476.435303	1995.770996	68.638191
769.513062	941.266846	2432.894287	1982.025024	69.773331
769.828064	938.369080	2413.575195	1952.972656	68.777077
770.142944	943.347351	2379.247559	1933.579712	68.962479
770.457825	943.570313	2346.851318	1906.830933	68.643456
770.772705	953.824036	2321.217041	1885.282837	68.119316
771.087402	950.406189	2294.245361	1872.057007	68.583420
771.402100	956.721863	2274.554932	1867.450195	69.108025
771.716736	955.904480	2241.861572	1859.500000	70.266388
772.031372	952.189392	2217.936279	1841.370117	70.249496
772.345947	951.817871	2207.459717	1817.147339	68.915306
772.660461	952.263672	2199.657715	1799.537720	67.923531
772.974854	958.579407	2186.654541	1785.717285	67.352379
773.289246	954.567139	2171.794189	1779.475952	67.769508
773.603638	951.074890	2165.032471	1770.559570	67.505219
773.917908	950.108826	2153.441406	1767.735962	67.946899
774.232178	942.009827	2136.277588	1755.698853	68.132874
774.546265	935.545471	2112.798096	1744.404907	68.707375
774.860474	934.208069	2104.104492	1736.974609	68.618599
775.174561	933.093567	2096.525391	1732.516602	68.712494
775.488586	936.660095	2092.736084	1729.618774	68.590538
775.802551	936.660095	2083.448242	1718.993530	68.219528
776.116516	946.468079	2074.531982	1712.900757	67.942307
776.430359	943.198730	2058.259766	1702.275391	68.074898
776.744202	941.935547	2044.662231	1697.891602	68.553345
777.057922	942.158508	2030.619141	1691.798706	68.871590
777.371704	940.821045	2029.356079	1686.597290	68.511917
777.685303	943.347351	2013.158081	1676.863770	68.565063
777.998962	938.889160	2008.105469	1666.461548	68.047256
778.312500	936.511536	1994.507813	1663.415039	68.705673
778.626038	931.013000	1991.387207	1656.356323	68.404465
778.939453	936.214294	1989.603882	1651.898071	67.941032
779.252869	944.684753	1997.628540	1653.161133	67.285294
779.566223	953.006653	2004.315796	1656.802124	66.944679
779.879578	953.155273	2002.829712	1661.706055	67.501953
780.192749	952.486572	1994.359253	1659.922729	67.900444
780.505920	948.994324	1985.740112	1655.316040	68.128723
780.819031	951.520691	1975.486328	1647.885742	68.006683
781.132141	952.858093	1973.777344	1629.533081	66.280952
781.445190	958.505127	1974.817749	1619.279175	65.016808
781.758118	959.248230	1971.622681	1621.359741	65.401840
782.071045	957.762024	1958.322632	1625.595093	66.745888
782.383911	953.898254	1939.375366	1625.966431	68.197235
782.696838	955.161438	1917.084473	1607.910767	67.858788
783.009583	958.579407	1906.161987	1595.948120	67.262604
783.322266	960.659851	1889.518188	1582.796509	66.978638
783.634888	957.613464	1884.614258	1586.585938	67.850266
783.947510	962.145935	1873.394531	1584.208374	68.264847
784.260132	960.808411	1875.252319	1586.511597	68.424446
784.572571	957.985046	1872.428589	1566.821411	66.579987
784.885010	947.211121	1865.592773	1562.957642	67.046913
785.197449	945.650696	1856.602051	1554.190063	66.802620
785.509766	943.793152	1842.261597	1557.236328	68.276543
785.822083	944.536133	1831.041992	1543.341797	67.546722
786.134277	942.381409	1815.141235	1540.072632	68.482895
786.446533	937.180359	1817.073120	1527.441040	67.083252
786.758606	938.369141	1823.983276	1530.784546	66.893173
787.070740	946.245178	1831.933594	1529.521484	65.855698
787.382690	949.440186	1829.630249	1543.416016	67.482681
787.694641	955.012878	1838.472168	1554.858765	67.897400
788.006653	953.824036	1867.747437	1563.626465	66.723579
788.318481	954.715637	1900.960571	1570.388062	65.064804
788.630310	948.251282	1926.817993	1583.539673	64.920296
788.942017	946.691101	1942.272949	1597.880005	65.407875
789.253784	952.709534	1965.678345	1607.687988	64.659294
789.565430	952.263672	1968.799194	1608.356812	64.542076
789.877014	943.644531	1954.830078	1606.276245	65.530182
790.188538	943.347351	1936.477417	1608.282593	66.953491
790.500061	949.068665	1918.719116	1599.588989	67.088127
790.811462	953.824036	1904.155762	1585.322876	66.450356
791.122925	949.960266	1879.784546	1559.094116	65.510643
791.434204	944.313293	1849.394531	1540.295410	65.848465
791.745483	945.204895	1831.116211	1533.459595	66.401085
792.056702	949.365906	1806.076172	1524.840454	67.172600
792.367920	950.703308	1786.088867	1519.936401	68.140167
792.678955	948.474304	1774.348999	1502.103882	67.035545
792.990112	942.678650	1752.727051	1495.565063	68.253502
793.301086	940.152344	1746.485718	1478.995605	66.826363
793.612122	933.613770	1725.309204	1465.992676	67.245415
793.922974	942.232910	1728.430054	1464.209473	66.392578
794.233826	948.399963	1725.383423	1471.565430	67.332893
794.544556	962.145996	1730.584595	1474.537598	66.679573
794.855286	959.768250	1725.457642	1475.429077	67.345955
795.166016	958.728027	1722.188477	1465.101074	66.326035
795.476624	947.656921	1724.046021	1469.782227	67.250465
795.787292	946.542297	1736.528931	1470.748047	66.356277
796.097778	946.245117	1752.280884	1487.020508	67.090744
796.408264	944.238953	1758.596680	1494.302124	67.545647
796.718689	932.424805	1772.862915	1502.401001	67.818939
797.029053	934.951172	1790.249634	1502.698242	66.379997
797.339355	947.211121	1803.995728	1506.264771	65.250198
797.649658	955.235779	1797.605835	1502.178101	64.928986
797.959839	947.582520	1787.351929	1508.196655	66.758102
798.270020	936.511414	1779.624390	1503.292603	67.224823
798.580078	937.700256	1763.797852	1498.165649	67.844940
798.890137	937.254395	1746.559570	1488.506348	68.114227
799.200195	946.839539	1737.346313	1478.252563	67.224350
799.510071	943.124451	1719.736450	1468.593262	67.661690
799.820007	944.610535	1711.860474	1456.927734	66.773186
800.129883	941.861328	1691.427246	1459.454102	69.052338
800.439575	953.452454	1694.770874	1450.463501	67.044205
800.749329	957.018982	1687.191895	1435.751587	65.564278
801.058960	958.876526	1686.745972	1431.070313	64.873421
801.368591	950.628906	1679.538696	1422.748413	64.770638
801.678162	951.966492	1678.424194	1417.250000	64.048256
801.987671	953.378174	1672.628540	1396.296753	61.580585
802.297119	958.950928	1666.833008	1392.061523	61.184002
802.606506	960.288391	1659.105591	1391.466919	61.701191
802.915894	955.012878	1648.554565	1398.525757	63.948986
803.225159	950.406067	1641.867188	1400.160522	65.044067
803.534424	951.223450	1626.635132	1393.473145	65.478539
803.843628	948.325684	1622.622925	1388.940796	65.344345
804.152771	944.238953	1622.697266	1390.352539	65.754013
804.461792	945.204895	1629.607422	1400.680664	66.550858
804.770874	945.799316	1627.155273	1401.275024	66.848419
805.079773	956.424622	1621.656860	1401.349243	66.882599
805.388733	951.297791	1620.765259	1399.863281	67.003326
805.697571	955.533020	1624.926270	1398.080078	66.111671
806.006470	953.601074	1641.941406	1399.045898	64.712875
806.315125	952.486572	1651.823730	1406.327637	64.895889
806.623901	956.573242	1661.408813	1407.590698	63.989033
806.932495	953.081055	1660.071289	1408.482422	64.414093
807.241150	956.127441	1655.093140	1403.206909	63.963005
807.549622	950.777588	1657.990845	1410.191406	64.961143
807.858154	945.799316	1651.080688	1414.946655	66.519173
808.166565	932.201965	1645.805298	1404.321411	66.159927
808.474915	933.093567	1622.177124	1393.398926	66.799644
808.783264	930.790222	1602.189575	1388.420776	68.160706
809.091492	946.170898	1591.415649	1391.169922	68.965927
809.399719	945.279236	1589.929688	1387.231812	68.556931
809.707825	954.418457	1595.502319	1385.597168	67.257767
810.015930	951.000488	1587.106079	1375.269043	66.697823
810.323975	964.449280	1580.121582	1370.959351	66.027016
810.632080	969.353333	1581.087524	1349.040161	62.067287
810.939880	966.752686	1581.236206	1347.108276	61.898418
811.247864	950.554688	1570.685059	1338.340576	62.532963
811.555664	946.022156	1549.360229	1342.204224	65.665024
811.863464	947.211121	1547.057007	1343.987671	66.146416
812.171143	954.195557	1543.490234	1344.136230	66.170746
812.478882	948.028503	1539.032227	1337.597534	65.916512
812.786438	942.158508	1534.054077	1335.665649	66.482529
813.094055	932.870667	1539.255249	1342.650024	67.577469
813.401489	936.437195	1543.564575	1338.637817	66.246498
813.708984	942.381531	1535.763062	1327.269531	64.863495
814.016357	956.350342	1527.961304	1319.987793	63.616249
814.323730	957.539124	1524.394531	1327.269531	65.224815
814.630981	961.625793	1518.896118	1331.579102	66.386688
814.938232	953.824036	1520.679565	1333.287964	66.941910
815.245361	947.359680	1521.422485	1325.932129	65.946175
815.552490	949.588867	1525.954956	1325.189087	65.166954
815.859619	943.941895	1517.335815	1325.263306	66.502518
816.166565	950.108948	1522.016968	1321.771118	64.986351
816.473572	948.697205	1522.091187	1315.678345	64.001572
816.780457	956.053162	1536.877441	1320.210815	62.696701
817.087341	946.839600	1535.168457	1326.749390	64.574394
817.394043	943.867432	1540.964233	1338.935059	66.164757
817.700806	938.146179	1542.301758	1332.842285	65.330208
818.007507	941.192566	1549.211792	1342.427246	65.990456
818.314209	936.065674	1554.561523	1341.387085	65.533409
818.620667	935.025452	1556.939087	1348.371460	66.463570
818.927246	940.672546	1574.994751	1356.916138	65.620216
819.233704	950.703308	1596.691040	1375.640625	65.781021
819.540161	957.687744	1624.331665	1400.086304	66.362045
819.846497	955.458679	1645.285156	1422.748413	67.740189
820.152832	946.542297	1691.129883	1448.457397	67.408470
820.458984	939.557922	1753.024048	1475.875000	65.929863
820.765259	944.907715	1828.367065	1515.255371	64.558449
821.071350	947.359680	1928.378540	1566.970093	63.159889
821.377502	956.647461	2091.175781	1668.244629	62.721851
821.683472	955.681641	2376.423828	1837.134766	62.041737
821.989441	957.539124	2823.131836	2088.278076	60.610172
822.295349	957.316223	3414.135742	2407.185303	59.014065
822.601196	952.040833	4105.373535	2772.903320	57.744064
822.907043	950.554688	4775.510254	3150.732666	57.521660
823.212769	943.718811	5322.898438	3458.569092	57.427429
823.518494	941.489746	5620.777832	3649.823975	57.879192
823.824097	940.523743	5627.911621	3690.541748	58.668457
824.129700	941.118164	5397.869629	3587.781250	59.385475
824.435242	948.028503	5059.866699	3423.869141	60.212498
824.740723	948.325623	4707.523438	3217.307861	60.358150
825.046082	940.449524	4352.133789	3027.167236	61.163860
825.351501	942.084229	3957.437256	2794.599609	61.436104
825.656799	940.077942	3553.676025	2570.131104	62.368164
825.962036	949.737305	3184.688721	2348.114502	62.568573
826.267212	943.050110	2906.499268	2182.493896	63.125843
826.572449	939.334961	2734.563232	2070.073975	62.985806
826.877502	940.375244	2691.170166	2032.848022	62.398670
827.182495	942.975891	2752.841797	2049.566162	61.142117
827.487488	943.198792	2868.753906	2090.358398	59.575527
827.792419	941.935608	2982.065430	2151.806885	59.303642
828.097290	946.765198	3054.138672	2195.571289	59.258888
828.402100	949.217224	3059.934326	2204.933350	59.492393
828.706848	950.777588	2977.607178	2165.850098	59.949417
829.011597	948.920105	2840.444336	2087.906494	60.215267
829.316223	954.938477	2669.102295	1997.628540	60.827911
829.620789	950.629089	2527.109619	1910.545898	60.889862
829.925354	956.573242	2380.138916	1828.218384	61.229710
830.229797	958.356506	2235.248779	1758.894043	62.694206
830.534302	961.700195	2073.566162	1677.829712	64.407898
830.838562	955.830261	1922.434448	1594.907837	66.115746
831.142944	948.399902	1815.289917	1517.187134	65.612389
831.447144	950.406006	1722.188477	1454.475952	65.312439
831.751404	951.669189	1667.130249	1413.237793	64.513451
832.055542	958.282043	1620.468140	1387.974976	64.890053
832.359619	951.966492	1601.372192	1374.897461	65.125847
832.663635	949.142883	1604.938843	1373.188599	64.661224
832.967651	944.238953	1632.728027	1387.677612	64.407509
833.271545	943.941711	1695.291016	1414.797974	62.668091
833.575439	941.712708	1782.893921	1465.398315	62.255981
833.879211	945.725098	1898.211548	1528.109741	61.143616
834.183044	944.982117	2017.244507	1589.038086	60.065144
834.486694	940.375244	2121.714111	1638.969360	59.135796
834.790344	943.198730	2183.905518	1677.161011	59.156788
835.093933	947.879822	2208.722656	1704.207153	59.985855
835.397522	952.709473	2173.131592	1699.080200	61.156769
835.700928	944.313293	2118.890625	1680.281616	62.658138
836.004395	947.954102	2055.584717	1639.860962	62.467293
836.307739	951.520691	1999.486206	1620.765259	63.861313
836.611023	949.811707	1923.251587	1575.366211	64.262260
836.914307	946.096497	1838.397949	1535.020020	66.000511
837.217529	951.743591	1749.680298	1476.023560	65.704453
837.520691	954.790039	1669.433472	1418.587524	64.899147
837.823730	952.337952	1598.994507	1369.547729	64.517982
838.126831	950.554688	1540.592651	1321.845337	62.926571
838.429749	952.560852	1495.936523	1289.820923	62.067570
838.732727	955.235779	1455.367310	1267.975830	62.531559
839.035522	951.743591	1432.184937	1261.585815	64.491165
839.338379	949.960266	1415.243774	1259.653931	66.560204
839.641113	951.297668	1419.330688	1258.688110	65.677086
839.943848	947.731140	1426.983765	1259.282593	65.007774
840.246460	946.022278	1453.955688	1269.239136	63.633705
840.549072	950.777588	1488.952148	1281.201782	61.397217
840.851563	952.932373	1516.666992	1293.536133	60.419167
841.154053	955.755859	1524.766113	1301.709351	60.799168
841.456482	953.972656	1511.466187	1296.210938	61.388744
841.758850	951.892273	1500.320679	1288.854858	61.441490
842.061157	950.703369	1479.738770	1275.331909	61.362347
842.363403	949.365906	1442.884644	1257.276245	62.390812
842.665588	955.458679	1404.915894	1241.301270	63.597286
842.967712	960.214050	1386.786133	1222.056763	61.382992
843.269775	959.768250	1378.018188	1210.688599	59.992920
843.571777	950.034485	1358.105103	1197.016724	60.524387
843.873840	949.885986	1331.207520	1181.933350	60.853466
844.175659	951.743591	1305.052979	1171.159546	62.103065
844.477600	956.796143	1287.591797	1161.945923	62.017071
844.779297	950.851868	1264.186401	1163.209106	67.773331
845.081116	947.434021	1246.279541	1156.001709	69.791138
845.382751	943.495911	1243.827637	1145.153442	67.144928
845.684387	940.821045	1247.765747	1139.506470	64.730042
845.985962	935.916992	1244.942261	1138.020386	65.400284
846.287537	937.551758	1231.864746	1133.339355	66.523598
846.588989	945.056335	1218.267456	1118.330200	63.421234
846.890381	953.972656	1213.957886	1116.918335	62.674976
847.191711	961.774414	1211.951660	1110.825684	59.578266
847.493042	962.294617	1211.431519	1119.296143	63.018173
847.794250	959.545349	1213.363403	1116.472656	61.826691
848.095459	948.251282	1213.734863	1121.153687	65.127342
848.396606	942.455750	1207.344849	1118.404419	66.423523
848.697693	942.529968	1199.914551	1111.940308	65.819923
848.998657	952.114990	1186.985840	1113.277588	68.617538
849.299622	953.675354	1190.775391	1107.556274	64.901260
849.600464	947.359680	1185.351196	1111.568726	68.997856
849.901367	940.375244	1189.809570	1113.426270	69.377388
850.202087	938.666321	1182.973633	1114.020630	71.776123
850.502808	941.564148	1192.781616	1105.847290	65.394791
850.803467	947.062500	1193.970459	1089.872314	57.839291
851.104065	950.257507	1204.595825	1088.014771	54.162998
851.404663	951.074890	1197.314087	1092.770142	57.543743
851.705139	950.406067	1196.942505	1097.079712	59.493698
852.005615	951.892151	1191.815552	1095.073608	59.677986
852.306030	949.291504	1192.410034	1091.729858	58.588028
852.606384	948.251282	1191.815552	1091.358398	58.755383
852.906616	945.799316	1196.199463	1089.649414	57.448090
853.206909	942.678650	1200.434692	1092.695801	58.201218
853.506958	939.112122	1193.896118	1099.011597	62.758839
853.807129	937.403137	1192.855957	1095.816528	62.012779
854.107178	945.725098	1187.506226	1094.776367	61.647190
854.407166	937.923279	1193.524536	1096.782471	62.151176
854.707092	934.059509	1184.013794	1090.763916	62.693226
855.007019	923.879944	1183.345215	1090.986938	64.404381
855.306763	934.282410	1178.441162	1087.643311	62.811962
855.606567	940.746765	1176.434937	1098.342896	66.866371
855.906250	948.920105	1170.342163	1097.748413	67.214760
856.205933	942.752930	1165.140991	1092.398560	67.290314
856.505493	940.375244	1163.654907	1086.305908	65.357796
856.805054	939.334961	1165.809692	1077.538208	61.023693
857.104492	949.885986	1165.661133	1079.544312	60.089554
857.403931	955.087219	1165.438232	1088.386230	63.369797
857.703308	956.424622	1168.930298	1097.822632	66.538460
858.002563	950.034485	1170.787964	1090.838257	63.783264
858.301819	946.096497	1168.187378	1079.395630	60.020084
858.601013	952.412292	1162.540405	1075.086060	58.380463
858.900208	949.068665	1177.103638	1070.107788	53.079193
859.199219	947.136902	1186.540161	1077.463745	54.438206
859.498291	940.672546	1185.425659	1073.748535	54.371521
859.797302	950.554749	1170.119263	1080.584351	59.221592
860.096191	953.229675	1164.546509	1081.178955	60.548550
860.395020	950.108887	1170.713745	1083.556641	60.491756
860.693787	943.644531	1173.834473	1080.733032	59.554516
860.992554	945.204895	1173.017090	1079.098511	58.773682
861.291260	949.365784	1167.815796	1081.550415	60.510242
861.589844	946.765198	1165.661011	1091.209717	65.987793
861.888428	944.610535	1167.518677	1090.689697	65.533348
862.186890	938.517761	1166.404175	1083.036499	63.417004
862.485413	934.951172	1166.181274	1084.448242	64.652946
862.783813	940.895325	1166.032593	1086.157227	64.521484
863.082153	939.780823	1169.896362	1092.027100	66.160797
863.380371	949.588684	1171.456665	1089.203735	62.927086
863.678589	949.960205	1163.506348	1084.819824	63.152451
863.976746	952.486511	1157.784912	1083.110718	63.626511
864.274902	946.319397	1162.688843	1077.092163	60.439571
864.572937	945.204895	1162.837524	1075.829102	60.020508
864.870911	950.851868	1170.565063	1079.544189	58.572868
865.168884	955.681580	1169.004761	1079.989990	58.272339
865.466736	949.885925	1176.955078	1078.949829	56.839031
865.764587	948.771423	1173.462891	1072.039673	54.861118
866.062317	950.034485	1177.029419	1072.634033	54.009815
866.360107	949.217285	1182.750610	1077.315063	54.852036
866.657715	950.480469	1189.883789	1085.637085	56.455616
866.955322	955.755920	1184.162476	1086.008423	57.026604
867.252808	963.557800	1184.311157	1085.191284	55.099270
867.550293	956.127441	1178.886963	1093.215942	61.541027
867.847717	948.399963	1178.441040	1095.222168	63.824341
868.145081	948.920105	1171.679565	1093.884644	65.076714
868.442383	951.595032	1175.543213	1082.293457	58.361012
868.739624	952.560852	1170.936523	1081.699097	59.135818
869.036804	952.635193	1168.261597	1083.705200	60.785694
869.333984	957.613464	1168.558838	1085.116821	60.443779
869.631042	953.823975	1168.856079	1084.893921	60.953663
869.928101	952.338074	1177.326660	1084.968384	58.949795
870.224976	951.000549	1179.109863	1082.070435	57.459244
870.521851	962.814636	1186.614380	1084.819702	54.515285
870.818726	955.012878	1177.698120	1081.773315	56.923592
871.115479	947.285400	1169.673462	1083.928101	61.443363
871.412231	949.068665	1164.175049	1077.909668	59.896412
871.708862	958.802307	1169.524902	1081.178833	58.074707
872.005493	972.474060	1170.342285	1076.052002	52.346931
872.302063	950.629089	1176.955078	1076.200562	55.482567
872.598572	948.920105	1182.453491	1080.807373	56.474693
872.895020	939.334961	1191.072632	1090.615356	60.094460
873.191406	950.406067	1197.016724	1094.627686	58.481503
873.487671	941.712708	1203.778320	1093.810303	58.037983
873.783997	948.622864	1206.601929	1096.931030	57.488449
874.080200	950.851868	1207.122070	1100.125977	58.248718
874.376343	955.384460	1202.069458	1099.754517	58.524052
874.672424	951.223450	1204.075562	1090.838257	55.215996
874.968445	950.851868	1200.657593	1089.946655	55.681187
875.264465	949.811707	1194.044556	1094.330444	59.172523
875.560364	952.858093	1188.397583	1099.828857	62.397503
875.856201	949.217224	1186.614502	1102.726685	64.663528
876.152039	961.328552	1189.363770	1106.144653	63.506023
876.447754	961.031311	1186.614380	1104.955811	63.801109
876.743469	968.238770	1190.701172	1104.732910	61.356049
877.039063	957.539246	1193.747559	1095.965210	58.603340
877.334595	953.081055	1197.611328	1089.277832	55.697308
877.630127	950.331787	1207.493530	1084.373901	52.123661
877.925537	951.817871	1214.626587	1089.426392	52.360714
878.221008	947.879700	1227.332397	1095.593628	52.858295
878.516296	942.009827	1223.468506	1097.228271	55.147861
878.811646	944.238953	1232.236206	1099.605957	53.947392
879.106812	942.901550	1235.802856	1104.584229	55.200394
879.401978	946.022278	1244.867798	1114.689331	56.439545
879.697083	942.084167	1258.167969	1121.673828	56.817104
879.992126	942.158508	1285.362671	1139.135010	57.393391
880.287109	942.455627	1328.458374	1169.376343	58.787331
880.582031	938.517639	1385.597046	1210.019775	60.727943
880.876892	946.616699	1485.311401	1274.514526	60.868954
881.171753	944.907715	1678.647095	1379.504395	59.230389
881.466492	942.901550	1968.576172	1532.047852	57.439888
881.761230	939.260742	2350.120850	1730.658813	56.093304
882.055786	940.672424	2725.349609	1933.431030	55.626785
882.350403	946.690918	3058.151367	2116.215820	55.389381
882.644958	948.251282	3265.901611	2233.911133	55.472557
882.939453	953.452454	3332.848389	2278.567139	55.691223
883.233826	959.693909	3277.270264	2275.818115	56.788818
883.528137	955.161438	3162.026611	2225.069336	57.543522
883.822449	948.399902	3043.885498	2170.233887	58.307915
884.116577	939.632141	2907.391357	2092.959229	58.611191
884.410828	954.864258	2761.460938	2030.470337	59.537697
884.704956	956.127380	2578.378662	1934.916992	60.335266
884.999023	966.306885	2366.987549	1802.583984	59.705051
885.292969	957.316223	2120.079590	1652.269531	59.767387
885.586914	956.870422	1906.013306	1519.936523	59.323639
885.880798	948.399902	1732.367798	1429.955933	61.425480
886.174622	950.851868	1619.353516	1367.541626	62.331898
886.468384	955.755859	1539.329468	1314.712402	61.510071
886.762085	954.864258	1495.490845	1280.235840	60.184162
887.055664	949.663025	1458.339478	1241.895630	57.449604
887.349304	948.919983	1412.123169	1221.016479	58.742363
887.642822	950.926208	1373.560059	1199.765869	58.878307
887.936340	946.170837	1341.164063	1193.227295	62.547012
888.229736	934.133789	1323.331421	1174.057251	61.645664
888.523071	935.099670	1305.721680	1162.614624	61.387329
888.816284	942.975830	1295.616577	1149.760376	58.638870
889.109619	958.430847	1282.613647	1140.992676	56.314472
889.402710	959.842590	1268.273071	1127.172241	54.251984
889.695862	955.310059	1252.595337	1116.175415	54.111443
889.988892	950.406067	1241.152710	1110.751343	55.149487
890.281921	953.601196	1231.567627	1101.389282	53.167603
>>>>>End Processed Spectral Data<<<<<
