Jaz Data File
++++++++++++++++++++++++++++++++++++
Date: Fri Jun 04 16:21:40 2021
User: jaz
Dark Spectrum Present: Yes
Reference Spectrum Present: Yes
Processed Spectrum Present: Yes
Spectrometers: JAZA3586
Integration Time (usec): 63200 (JAZA3586)
Spectra Averaged: 10 (JAZA3586)
Boxcar Smoothing: 1 (JAZA3586)
Correct for Electrical Dark: No (JAZA3586)
Strobe/Lamp Enabled: Yes (JAZA3586)
Correct for Detector Non-linearity: No (JAZA3586)
Correct for Stray Light: No (JAZA3586)
Number of Pixels in Processed Spectrum: 2048
>>>>>Begin Processed Spectral Data<<<<<
W	D	R	S	P
191.335022	0.000000	0.000000	0.000000	0.000000
191.713211	294.907501	299.365692	297.136597	50.000000
192.091385	595.536316	602.223572	600.663269	76.667519
192.469528	903.743958	907.384827	902.629456	-30.610876
192.847641	913.849121	916.003967	911.471497	-110.338478
193.225739	927.520813	925.886230	919.719055	477.293610
193.603790	931.830383	930.715881	929.750000	186.664841
193.981842	939.557861	937.997559	936.585754	190.482712
194.359863	939.037659	936.957336	939.780823	-35.723507
194.737854	938.814758	947.062500	944.461914	68.469116
195.115829	942.381348	947.656921	942.827209	8.451438
195.493774	944.016113	948.325500	939.334961	-108.626869
195.871704	935.768555	944.536194	936.362976	6.779720
196.249603	942.752930	949.217224	942.307129	-6.896357
196.627457	936.808777	949.143005	943.273132	52.409889
197.005310	951.074890	950.554688	942.901550	1571.183838
197.383133	945.056335	939.780823	946.468079	-26.760303
197.760910	951.966492	949.217285	956.573242	-167.566544
198.138687	951.223450	946.988220	951.372070	-3.509151
198.516449	948.325623	953.675476	944.238953	-76.388443
198.894180	941.266846	942.084167	933.093567	-1000.007446
199.271866	937.031555	934.208069	937.551758	-18.424124
199.649536	939.483643	929.898621	937.180176	24.031940
200.027191	942.009949	933.762390	938.666260	40.541561
200.404816	938.369080	947.211182	936.882996	-16.806908
200.782410	937.477356	960.734192	945.502136	34.505039
201.159988	935.322571	981.687561	957.093323	46.955154
201.537537	938.889160	989.563660	967.644348	56.744888
201.915070	927.446594	994.393372	963.929199	54.494938
202.292557	928.041016	987.185974	958.505066	51.507435
202.670029	927.446533	981.538879	964.003479	67.582474
203.047485	929.155579	980.721619	961.923035	63.544643
203.424911	916.152588	976.040527	967.347107	85.483856
203.802292	912.660339	973.662842	958.505066	75.152206
204.179688	913.997803	958.876648	966.009583	115.893761
204.557037	928.115295	957.762146	961.700134	113.282990
204.934357	929.824280	966.455505	964.597961	94.929070
205.311661	924.697327	972.251160	962.591797	79.687523
205.688934	922.022461	974.703125	965.563904	82.651657
206.066177	912.065857	969.278992	966.158264	94.545433
206.443390	918.381592	970.542175	966.306824	91.880165
206.820587	919.421875	966.826965	960.957031	87.617500
207.197769	927.892395	966.158386	956.944763	75.922165
207.574921	926.331970	966.158264	955.087158	72.201515
207.952042	925.217468	973.811462	960.065430	71.712486
208.329147	922.839783	976.709229	960.882813	70.620796
208.706223	937.105896	1005.835938	979.978577	62.378372
209.083267	942.827148	999.445862	976.040527	58.661488
209.460297	936.585754	997.142578	971.656738	57.914173
209.837280	921.873840	965.935364	953.824036	72.512688
210.214264	914.815125	960.288391	954.492737	87.254807
210.591217	918.827454	956.647644	956.498962	99.606873
210.968124	922.245422	967.272766	947.285400	55.610603
211.345016	928.783997	972.994141	947.805481	43.025158
211.721893	930.121521	971.210876	949.588867	47.378075
212.098724	931.013123	966.529785	953.601135	63.598354
212.475555	926.554932	967.347168	951.372070	60.837898
212.852356	926.703552	967.644348	952.263672	62.431908
213.229126	921.130859	962.666016	960.882813	95.706764
213.605865	909.985352	958.430847	963.780579	111.042786
213.982590	909.316650	962.145996	960.139709	96.202324
214.359283	912.065918	962.591797	953.155273	81.323387
214.735931	909.168152	960.065491	951.817688	83.795219
215.112579	910.282715	958.876648	953.601074	89.143555
215.489197	913.180420	964.820801	955.830139	82.589859
215.865799	922.616882	974.777405	957.910706	67.663864
216.242355	924.697449	976.635010	958.579407	65.235947
216.618896	918.976074	966.009766	960.808533	88.941475
216.995407	921.130859	958.653748	958.653625	99.999672
217.371902	916.598389	958.653748	952.263611	84.805420
217.748367	918.530273	962.368835	944.016113	58.135666
218.124802	920.387878	964.375000	942.009949	49.155457
218.501236	926.777832	959.099426	946.170837	60.000153
218.877609	919.942078	957.613464	950.257385	80.473030
219.253983	909.465332	955.384338	948.177002	84.304245
219.630295	911.768616	953.303894	954.195557	102.146759
220.006592	919.941895	948.622864	951.372070	109.585472
220.382889	929.229797	943.421631	958.430847	205.759537
220.759140	918.158691	952.040833	962.071594	129.604858
221.135391	910.728455	954.641418	968.387390	131.302765
221.511581	907.310547	964.820984	967.347107	104.392464
221.887772	911.917236	961.700195	967.570007	111.790802
222.263931	915.855286	968.238770	963.260559	90.496605
222.640060	917.118469	966.381165	970.170654	107.692413
223.016159	923.954346	965.563904	969.873474	110.357162
223.392212	923.880066	957.762024	976.412048	155.044113
223.768265	917.489990	959.768250	969.576172	123.198502
224.144302	911.099915	961.477234	962.145935	101.327385
224.520294	916.003906	972.696960	956.053162	70.642258
224.896286	922.765442	975.743347	952.783875	56.662174
225.272217	923.879944	975.817566	955.087219	60.086067
225.648148	925.143066	978.938293	961.254395	67.127380
226.024048	924.920227	982.802063	965.043762	69.319733
226.399902	923.136963	989.860840	969.279053	69.153793
226.775772	918.976074	982.504883	960.139832	64.795418
227.151581	920.462158	983.545105	956.721863	57.479408
227.527374	924.028625	981.241699	953.080994	50.779247
227.903137	918.753174	984.733948	953.303894	52.364830
228.278870	925.886230	977.526550	949.737366	46.187038
228.654572	925.886230	973.737122	948.622803	47.515461
229.030273	938.294739	966.306824	954.269836	57.029305
229.405930	929.749939	962.666016	955.533020	78.329750
229.781555	929.155579	957.910645	954.789978	89.147423
230.157181	924.697449	962.963318	947.582581	59.805599
230.532761	922.022461	962.740417	957.019043	85.948769
230.908325	915.706726	964.820801	966.455383	103.328133
231.283859	914.889343	968.387390	972.548279	107.777649
231.659332	920.239197	961.328613	955.235657	85.171471
232.034821	925.514648	959.471008	945.056213	57.549057
232.410263	920.090576	949.663086	943.644531	79.648140
232.785690	915.706726	956.573242	950.331848	84.727364
233.161087	908.425110	960.288391	948.474304	77.220711
233.536469	915.038025	960.734192	944.759094	65.040619
233.911804	914.666504	964.300781	949.440186	70.059814
234.287140	921.130859	960.882813	953.675476	81.869225
234.662430	928.338196	968.610352	967.792969	97.970352
235.037704	932.499207	972.399719	969.056091	91.620087
235.412933	928.486816	976.189148	969.873352	86.759987
235.788162	919.124573	974.554504	959.768250	73.324425
236.163345	916.747009	969.130371	958.802307	80.283691
236.538513	921.725281	970.542175	958.207947	74.733688
236.913635	917.415710	971.433777	953.675354	67.125031
237.288742	924.325928	970.764954	954.344055	64.639870
237.663834	930.047180	970.393494	957.762024	68.692383
238.038879	930.790222	971.730957	965.638184	85.118065
238.413910	920.536438	971.210754	965.935364	89.589615
238.788910	907.236267	969.799072	961.625793	86.935883
239.163879	911.397156	970.467773	962.666016	86.792488
239.538834	919.719055	966.083984	961.923035	91.025650
239.913757	926.629333	970.765076	964.969421	86.868568
240.288651	926.554993	976.709290	964.597961	75.851860
240.663528	922.394043	991.198303	971.285156	71.058266
241.038361	920.313538	985.476868	973.514221	81.642059
241.413177	922.914124	977.006409	967.570007	82.554993
241.787979	916.375488	972.548279	954.121155	67.195641
242.162735	918.976074	977.898132	954.715637	60.655659
242.537476	913.626282	983.396484	955.310059	59.744381
242.912170	923.360046	989.117859	958.653625	53.672070
243.286865	912.288879	996.771057	948.771423	43.183716
243.661514	915.855286	1001.154968	947.062500	36.585381
244.036148	912.363098	998.777161	953.675476	47.807472
244.410751	926.703552	992.164307	957.464844	46.991959
244.785339	928.709717	984.659668	963.111877	61.487381
245.159882	931.830383	984.362488	960.362610	54.313885
245.534378	928.635437	991.495422	955.310059	42.434978
245.908890	919.421875	990.306641	953.303894	47.798733
246.283356	913.774902	988.449036	953.898254	53.731258
246.657791	909.688171	989.786621	961.551514	64.749496
247.032196	915.929626	1002.640930	966.158264	57.926285
247.406586	918.827454	1004.275574	963.483398	52.260887
247.780960	924.920227	998.628601	955.755920	41.834721
248.155289	923.657043	996.845276	952.115051	38.883312
248.529602	926.109070	1001.674988	951.743591	33.923389
248.903870	921.502380	1001.377747	954.121155	40.837090
249.278122	929.601379	997.588379	955.310059	37.814110
249.652344	927.520935	1003.383972	958.505066	40.842197
250.026550	925.440430	1000.337463	966.901306	55.357166
250.400711	919.570496	1003.978333	970.690735	60.563381
250.774857	922.393982	998.257141	969.130432	61.606255
251.148987	920.907898	1003.681213	957.242004	43.895916
251.523071	916.895508	999.297302	961.997314	54.734009
251.897125	921.353760	997.662598	972.325378	66.796478
252.271164	919.273254	1001.229187	980.573059	74.796059
252.645187	919.273254	1001.972168	967.124268	57.861721
253.019165	916.524109	1004.795715	963.409119	53.114487
253.393112	929.601379	1009.848328	969.056091	49.166618
253.767044	925.143250	1011.111511	971.508118	53.932541
254.140930	918.381592	1011.260010	968.833191	54.320045
254.514801	912.140137	1000.783386	966.455505	61.274117
254.888657	915.409485	998.034180	967.867249	63.489208
255.262466	913.180420	994.839172	973.217041	73.521355
255.636276	914.963684	1000.263184	975.000305	70.383324
256.010010	921.650940	1007.247620	975.594727	63.020885
256.383759	929.304138	1010.739929	971.582458	51.916142
256.757446	927.149353	1008.808044	964.449402	45.677990
257.131134	920.685059	1006.207458	969.576172	57.167610
257.504791	912.363098	1009.551086	968.758850	58.027493
257.878418	907.979309	1010.888489	967.272766	57.617268
258.252014	908.276550	1013.712097	968.238770	56.870972
258.625580	914.517883	1020.622253	969.799133	52.100822
258.999115	915.112305	1032.139160	975.594727	51.682514
259.372650	917.118469	1051.606445	970.839355	39.944752
259.746124	912.214539	1058.219360	965.786804	36.692120
260.119598	911.545715	1068.696167	963.483398	33.049656
260.493042	912.957520	1069.810547	965.861084	33.728111
260.866425	915.929688	1073.674316	970.393555	34.526608
261.239838	918.010071	1076.274902	966.158386	30.422625
261.613159	918.455872	1070.925171	968.535950	32.846008
261.986511	923.136963	1064.089355	962.071594	27.622540
262.359802	927.000732	1051.755005	968.610291	33.353214
262.733063	926.257629	1049.600220	968.684570	34.397640
263.106293	920.684875	1044.547729	978.121033	46.370770
263.479523	920.759277	1039.643677	980.201477	50.000000
263.852692	922.393860	1038.454956	973.737244	44.238239
264.225861	923.582764	1040.981079	967.124268	37.088696
264.598969	923.137024	1043.284546	964.672180	34.570133
264.972076	915.855286	1044.324829	962.517517	36.321629
265.345154	913.403381	1043.953247	971.062256	44.166168
265.718201	910.728516	1044.027588	965.861084	41.360054
266.091217	914.592224	1046.033569	972.548279	44.092712
266.464203	918.604553	1044.993408	959.099426	32.039909
266.837158	923.731445	1050.046021	966.083984	33.529415
267.210114	922.691223	1049.228638	969.427551	36.934792
267.583038	920.982239	1058.368042	983.247864	45.321732
267.955902	920.685059	1067.581421	983.619446	42.842712
268.328766	925.366028	1071.073730	977.898132	36.053074
268.701569	922.914063	1073.971558	967.198486	29.316271
269.074371	915.632385	1073.377075	971.062256	35.138977
269.447144	911.917297	1083.779541	965.415283	31.128410
269.819885	918.010071	1097.228271	970.765076	29.436188
270.192596	922.393982	1098.119995	969.278992	26.680746
270.565277	918.827454	1105.252930	985.625671	35.831055
270.937927	914.443604	1103.098267	994.987793	42.693981
271.310577	917.861511	1107.407837	993.278809	39.788319
271.683136	927.223633	1109.413940	985.476990	31.973906
272.055725	924.325867	1120.707886	973.365662	24.971632
272.428284	927.520813	1138.986450	965.043762	17.744230
272.800812	915.483826	1149.388794	960.511292	19.250324
273.173279	923.137024	1144.336304	961.923096	17.534447
273.545776	913.477600	1138.837891	980.201477	29.607645
273.918152	922.616882	1124.794556	984.808289	30.760769
274.290558	918.753113	1122.565552	983.768005	31.899374
274.662964	920.907959	1127.692383	973.142761	25.260511
275.035278	916.375488	1125.834717	976.114746	28.520710
275.407593	914.443604	1134.602417	978.195313	28.957146
275.779907	916.747009	1131.036011	977.526611	28.363379
276.152161	913.329102	1150.503296	971.285156	24.436071
276.524384	914.963684	1155.927368	959.842590	18.624760
276.896606	906.418945	1154.515747	959.916809	21.563303
277.268799	911.991638	1154.812866	965.117981	21.878788
277.640930	904.412781	1153.921265	974.851746	28.231091
278.013031	917.118469	1164.546631	974.554504	23.213217
278.385162	920.685059	1157.785156	975.669006	23.190184
278.757233	932.201904	1160.162720	977.972412	20.078236
279.129272	932.944885	1162.986206	974.405945	18.023310
279.501282	928.561035	1173.611450	973.514343	18.344515
279.873230	917.415710	1175.171753	967.495789	19.429255
280.245178	914.740784	1183.196533	970.987976	20.952127
280.617126	917.935852	1190.849731	969.427551	18.867380
280.988983	922.765442	1201.252075	975.000244	18.756664
281.360870	919.050293	1207.270630	976.189148	19.824713
281.732697	915.706726	1211.357300	973.960144	19.703468
282.104492	921.799561	1225.920654	965.563904	14.390433
282.476288	918.307312	1232.310669	960.882813	13.558931
282.848053	919.347595	1243.678833	967.718567	14.914065
283.219757	918.455994	1244.644897	976.486328	17.790407
283.591461	920.982239	1249.028809	980.052917	18.006796
283.963135	921.353699	1251.332275	972.548340	15.514535
284.334747	916.969788	1251.109375	976.634949	17.856358
284.706360	917.341370	1263.220581	980.721680	18.324406
285.077942	918.976013	1273.920166	980.424500	17.312157
285.449524	924.920227	1276.297852	978.046692	15.119478
285.821014	926.257751	1281.721924	971.582336	12.750816
286.192535	922.839844	1295.467896	977.377991	14.636082
286.563995	925.514648	1322.514038	974.405945	12.315207
286.935425	930.195618	1333.362305	977.303711	11.684521
287.306824	934.133728	1326.452148	974.034424	10.170487
287.678223	929.229797	1323.108521	977.303711	12.205257
288.049561	920.462097	1325.114746	977.229309	14.028627
288.420898	919.867676	1326.898071	979.012634	14.530846
288.792145	918.455994	1329.052734	981.018860	15.237059
289.163452	920.239197	1319.170410	983.470886	15.850274
289.534668	917.564270	1326.154907	982.282043	15.839270
289.905914	913.031921	1327.120850	979.681396	16.095449
290.277039	916.969910	1343.021606	980.870178	14.998243
290.648193	913.329102	1352.309448	989.043518	17.247791
291.019318	923.657166	1375.269043	990.009460	14.692327
291.390381	922.245422	1384.185547	985.179749	13.623914
291.761475	931.533203	1389.981079	981.538879	10.907603
292.132507	927.446533	1380.544556	987.854675	13.332246
292.503510	930.270020	1378.018188	990.678223	13.491558
292.874481	929.824219	1379.355835	988.746338	13.107448
293.245422	926.852051	1376.012085	984.511047	12.837072
293.616364	924.623047	1384.928345	990.381042	14.285735
293.987213	916.895569	1402.166626	992.832947	15.648446
294.358093	921.799622	1429.287109	994.244690	14.275242
294.728943	916.003906	1442.290039	978.938293	11.958207
295.099731	922.914063	1456.704712	976.040527	9.952678
295.470490	916.746887	1479.441406	970.244934	9.507476
295.841248	919.050293	1507.379272	983.173645	10.899234
296.211975	916.301208	1521.571289	983.990967	11.183397
296.582642	916.821228	1531.824829	982.802185	10.728548
296.953308	918.158691	1545.645142	978.715515	9.650699
297.323883	917.489929	1557.533569	973.588562	8.764813
297.694519	917.787170	1564.889648	971.062256	8.232867
298.065063	917.489990	1567.787476	977.749512	9.266455
298.435608	920.090576	1563.700806	971.433777	7.977375
298.806122	924.771667	1552.406738	981.464600	9.032785
299.176575	931.236023	1521.571289	982.356262	8.659527
299.547028	928.263916	1508.568237	990.752502	10.768244
299.917450	925.737610	1490.066772	983.916687	10.309422
300.287872	920.164856	1496.308228	984.733948	11.207122
300.658234	922.839783	1491.255737	990.901062	11.973851
301.028564	920.016357	1489.620972	992.312805	12.692391
301.398865	924.400208	1488.877930	987.408875	11.162294
301.769135	924.846008	1482.859375	978.121033	9.547267
302.139374	924.771667	1492.072876	977.972412	9.377866
302.509583	922.022461	1484.345581	980.350098	10.372620
302.879791	921.056458	1492.964478	991.049622	12.238535
303.249939	924.251526	1488.506348	989.637878	11.588089
303.620087	920.833679	1493.558960	990.009460	12.078353
303.990173	915.112366	1483.750977	980.350159	11.472628
304.360260	913.923523	1484.568359	977.749573	11.184899
304.730286	919.941956	1484.939819	975.446228	9.823802
305.100281	922.393860	1490.735352	977.898132	9.766007
305.470276	925.737610	1493.038940	982.802063	10.058931
305.840179	920.907898	1499.726074	981.464661	10.462139
306.210144	926.926453	1514.586548	983.470886	9.621963
306.579987	921.725281	1520.456543	983.396545	10.300324
306.949890	920.907959	1529.967407	984.436768	10.430642
307.319702	919.273254	1530.338867	984.659668	10.700392
307.689484	922.319641	1532.122070	990.678223	11.209955
308.059265	921.502258	1535.911499	995.804993	12.093362
308.429016	918.233093	1553.818481	990.752441	11.409851
308.798737	920.239197	1580.716187	991.346924	10.766117
309.168396	920.313538	1611.774780	987.854675	9.767885
309.538055	922.245361	1639.638062	991.941345	9.715178
309.907684	919.124695	1655.241699	990.826721	9.740575
310.277313	927.520813	1662.894897	985.179871	7.840779
310.646851	929.824219	1666.312866	990.975403	8.303072
311.016388	931.533203	1681.321899	991.867004	8.046774
311.385895	923.211243	1682.510742	999.371643	10.030351
311.755371	919.867676	1677.161133	994.319031	9.831243
312.124817	921.799561	1680.058960	989.266418	8.897596
312.494232	923.954346	1688.677856	983.990906	7.850754
312.863617	921.725281	1686.151489	987.037354	8.543934
313.232971	919.124695	1677.161011	994.170410	9.900016
313.602295	919.198914	1671.216797	998.702942	10.572093
313.971619	922.245361	1685.334351	995.656494	9.620258
314.340820	923.731445	1685.854492	990.306702	8.735499
314.710083	918.753113	1694.919312	989.638000	9.132694
315.079285	915.929688	1698.411621	997.811279	10.464343
315.448486	915.038025	1711.563110	1003.755432	11.138056
315.817596	924.028625	1707.253784	1006.356018	10.511332
316.186707	925.811829	1702.944214	1005.687317	10.278234
316.555786	922.468262	1688.232056	1009.699646	11.391422
316.924866	912.511719	1680.207397	1014.975098	13.346874
317.293884	906.121643	1662.300415	1017.650085	14.748952
317.662872	904.932861	1663.340820	1016.832703	14.754571
318.031830	907.682068	1669.953613	1017.352844	14.387363
318.400757	908.796570	1679.835938	1016.386902	13.953935
318.769684	914.517883	1680.875977	1011.482910	12.652705
319.138550	925.589050	1686.746094	1016.461243	11.938692
319.507416	924.697327	1695.885254	1022.554016	12.689085
319.876190	921.725281	1703.390015	1027.532227	13.536103
320.244995	915.483826	1710.077148	1028.869751	14.269680
320.613770	922.022461	1708.591187	1029.464233	13.659554
320.982483	926.109131	1700.714844	1041.129761	14.848927
321.351166	923.434265	1684.516968	1042.318604	15.620423
321.719818	926.629211	1675.526367	1048.485718	16.271461
322.088440	928.338196	1688.826538	1046.479492	15.534925
322.457062	926.852112	1705.693237	1055.247192	16.485401
322.825623	921.725281	1726.795288	1063.123413	17.563457
323.194183	908.870911	1749.457520	1075.011719	19.764866
323.562653	911.545837	1773.680298	1081.327515	19.693178
323.931183	913.106140	1797.234375	1092.026978	20.236979
324.299591	923.731384	1831.041992	1099.977417	19.425104
324.668060	924.697327	1853.258423	1102.726685	19.172606
325.036407	924.771667	1882.905273	1114.912231	19.844891
325.404755	921.650940	1890.186890	1121.228027	20.606058
325.773102	918.158691	1908.390991	1135.791382	21.977943
326.141388	919.347595	1917.381714	1136.757446	21.783810
326.509674	913.997742	1906.310547	1151.543579	23.938604
326.877899	923.508484	1895.759399	1163.209106	24.654194
327.246124	922.468262	1899.400391	1182.973511	26.665644
327.614288	924.771667	1914.186523	1195.233521	27.335535
327.982422	910.431335	1921.542603	1205.487305	29.181355
328.350525	906.195984	1906.310547	1207.196289	30.096582
328.718628	904.561279	1898.434570	1213.140503	31.048145
329.086700	910.728455	1894.273560	1232.904907	32.756653
329.454712	910.951355	1908.985352	1244.050415	33.375523
329.822693	917.861511	1921.765625	1264.706665	34.549629
330.190674	922.542664	1931.722168	1269.982056	34.427910
330.558563	925.663330	1944.799316	1292.867310	36.030910
330.926483	923.434265	1958.842773	1304.309937	36.785065
331.294312	922.691223	1970.731079	1324.520142	38.341000
331.662231	917.712891	1990.941406	1343.318970	39.656612
332.029999	922.542542	2017.393188	1372.965820	41.140160
332.397766	918.530273	2050.829346	1400.234741	42.542160
332.765503	928.263916	2076.835205	1427.726685	43.485569
333.133240	922.691223	2084.488525	1446.599609	45.094643
333.500916	929.898499	2114.655273	1459.825562	44.728764
333.868561	925.514648	2120.971436	1474.166016	45.894707
334.236176	926.926453	2144.599365	1493.261719	46.509640
334.603790	909.985413	2142.964844	1517.930298	49.306976
334.971344	914.294983	2148.314697	1539.255249	50.644268
335.338867	910.728455	2150.097900	1551.217896	51.678658
335.706360	927.818054	2145.788086	1568.976196	52.641541
336.073853	922.691162	2152.104004	1587.774902	54.097672
336.441284	928.041016	2160.203125	1609.545532	55.309647
336.808655	923.285583	2171.422852	1634.957031	57.018688
337.176086	920.462097	2152.104004	1640.083984	58.427853
337.543396	918.678772	2124.983643	1649.743286	60.603626
337.910706	911.842957	2086.494873	1636.591797	61.699032
338.277954	917.787170	2090.952881	1662.151978	63.449242
338.645264	913.849182	2126.841064	1699.452026	64.765709
339.012421	918.307312	2192.375977	1769.073608	66.775551
339.379669	915.781067	2266.604492	1820.193726	66.952690
339.746796	915.186584	2308.957275	1864.032349	68.077606
340.113953	915.781067	2350.492432	1880.230347	67.222527
340.481018	910.877014	2356.436523	1903.858521	68.691841
340.848114	908.127869	2358.294189	1935.808594	70.866402
341.215118	903.669678	2357.253906	1966.421387	73.112495
341.582153	907.533447	2379.618896	1987.374634	73.354515
341.949066	916.895569	2400.126221	2004.167358	73.304291
342.316010	918.233093	2421.079834	2029.355835	73.934540
342.682922	922.245422	2432.225342	2067.324463	75.834061
343.049835	918.455872	2464.621338	2097.863037	76.279495
343.416656	924.251526	2491.296143	2150.395264	78.245621
343.783478	924.920349	2534.391602	2201.738281	79.331512
344.150269	924.623108	2573.400635	2264.746826	81.279839
344.516998	921.650940	2627.715820	2337.415039	82.984192
344.883728	916.969910	2667.542236	2412.980957	85.458397
345.250427	919.050293	2710.266357	2481.413818	87.223625
345.617065	912.288757	2730.402344	2530.676514	89.014664
345.983704	912.140137	2735.454834	2536.472168	89.086761
346.350281	910.059753	2721.560303	2544.273682	90.213272
346.716827	910.505554	2706.922607	2538.701172	90.635727
347.083405	908.945313	2694.662354	2546.354248	91.694756
347.449860	912.660339	2689.238281	2546.056885	91.940605
347.816376	918.381653	2669.399414	2535.580322	92.357643
348.182770	923.508484	2658.179688	2534.614502	92.876740
348.549194	916.895508	2645.919678	2540.038574	93.876251
348.915558	915.781006	2661.895020	2564.707031	94.434044
349.281921	912.808899	2668.582275	2604.904541	96.373238
349.648193	918.976013	2690.798828	2645.102295	97.420929
350.014526	917.192688	2712.940674	2693.399414	98.911804
350.380737	919.347656	2750.092529	2728.693115	98.831108
350.746948	916.747009	2786.723633	2776.841064	99.471512
351.113159	918.604675	2818.599365	2817.484619	99.941330
351.479309	921.576660	2839.849854	2860.283203	101.065193
351.845428	920.313477	2858.871338	2890.747314	101.644318
352.211517	925.886230	2874.103516	2938.524170	103.306648
352.577576	921.576660	2902.338623	2980.505127	103.946281
352.943604	920.016296	2926.561279	3027.687256	105.039803
353.309601	918.307312	2959.403076	3077.321289	105.777199
353.675537	914.443542	3009.928711	3157.865967	107.059807
354.041473	916.449707	3074.794922	3243.759766	107.828445
354.407379	912.288757	3137.878174	3320.960205	108.226227
354.773254	921.353699	3205.047852	3404.996338	108.755486
355.139038	924.771667	3251.264404	3478.110107	109.750542
355.504913	924.474426	3312.489502	3560.511963	110.386131
355.870636	922.839783	3362.495361	3624.635010	110.744942
356.236389	912.288818	3426.098389	3726.801514	111.962051
356.602081	910.356934	3498.543701	3833.871826	112.956100
356.967804	903.743958	3572.697998	3964.421875	114.677055
357.333405	912.660400	3663.718506	4069.337158	114.744095
357.699036	913.849182	3736.609375	4197.732422	116.335892
358.064606	911.991699	3811.877930	4306.734375	117.064682
358.430176	910.282715	3871.468750	4400.430176	117.863159
358.795654	909.242371	3929.202148	4456.603027	117.463837
359.161163	916.152527	3968.880127	4481.494629	116.792015
359.526581	917.341370	3983.889404	4508.763184	117.116112
359.892029	917.341309	4009.672119	4536.701172	117.043098
360.257416	919.941895	4057.523438	4637.529785	118.485779
360.622772	923.582825	4153.224609	4769.714844	119.088501
360.988098	925.514709	4274.635254	4962.010254	120.524048
361.353394	918.084473	4417.073730	5178.082031	121.749374
361.718658	912.586121	4565.976563	5403.590820	122.927048
362.083893	910.059753	4676.167480	5569.806152	123.728447
362.449097	916.969910	4764.661621	5665.953613	123.424232
362.814209	917.267029	4787.472656	5681.408691	123.097893
363.179382	920.536316	4732.562988	5569.657715	121.959312
363.544434	915.483826	4562.930176	5347.195801	121.501770
363.909546	921.205139	4359.637695	5074.504395	120.790482
364.274536	920.536438	4181.459961	4852.562012	120.580124
364.639587	927.075134	4061.386719	4700.315918	120.384995
365.004517	927.669434	3985.375000	4611.746582	120.485016
365.369507	928.858337	3938.935547	4544.057129	120.103195
365.734344	921.353760	3917.462158	4517.233887	120.018356
366.099274	919.347595	3894.502686	4490.633301	120.036957
366.464081	917.415710	3893.462158	4503.933594	120.512833
366.828918	920.833679	3893.387939	4501.927246	120.471931
367.193665	921.873840	3898.738281	4517.456543	120.784225
367.558411	925.143127	3893.314209	4528.899414	121.413361
367.923126	918.827454	3887.667236	4530.682617	121.658813
368.287781	918.530273	3882.762939	4524.961426	121.664917
368.652435	916.152527	3875.704102	4509.580566	121.417992
369.017059	918.158691	3872.806396	4497.469238	121.141701
369.381653	916.895691	3875.852783	4488.106934	120.691551
369.746185	925.291809	3876.670166	4467.748535	120.027199
370.110687	926.183411	3900.447266	4486.546875	119.705704
370.475220	919.496155	3938.935791	4525.630371	119.430580
370.839661	917.192810	3981.660156	4599.486816	120.160980
371.204041	917.341370	4016.731201	4654.916504	120.590675
371.568451	924.177246	4043.256836	4693.554199	120.849014
371.932770	918.604553	4082.711914	4734.717773	120.606316
372.297150	923.434265	4111.020996	4753.888184	120.167831
372.661377	917.415710	4134.203613	4769.937012	119.762985
373.025696	920.610657	4154.413574	4785.689941	119.521179
373.389862	917.415710	4158.054688	4797.949707	119.745949
373.754059	926.926514	4172.172363	4805.379883	119.511848
374.118225	921.948181	4182.945801	4817.342285	119.454063
374.482361	926.554932	4223.218262	4860.735840	119.338264
374.846436	920.164856	4268.097168	4931.174316	119.805573
375.210510	921.279480	4327.613281	4990.468262	119.459488
375.574524	921.725281	4390.919434	5060.758301	119.308205
375.938538	926.852112	4476.292969	5154.974121	119.120789
376.302460	926.034729	4560.032715	5268.508789	119.495773
376.666412	926.257629	4660.638184	5398.687012	119.763611
377.030304	917.787170	4742.668457	5524.258301	120.434357
377.394196	917.192810	4839.039063	5644.703125	120.542976
377.757996	919.570496	4924.933105	5739.885254	120.346535
378.121796	920.387756	4984.375000	5777.110840	119.506355
378.485565	919.124695	4995.743164	5785.953125	119.383965
378.849304	915.112305	4960.375488	5708.455566	118.492744
379.212982	916.821289	4911.409668	5609.781250	117.482941
379.576630	930.195740	4831.905762	5470.611816	116.369904
379.940277	923.657166	4754.333984	5392.371582	116.655998
380.303864	928.783997	4687.387207	5313.907715	116.668968
380.667450	924.103027	4683.151855	5296.892090	116.327011
381.030945	926.554993	4668.588379	5289.685059	116.597832
381.394501	919.793396	4698.309082	5321.561035	116.494621
381.757935	917.787170	4718.371094	5330.774414	116.113403
382.121399	921.799561	4762.581543	5341.399902	115.070335
382.484741	927.000793	4783.460449	5386.427246	115.635239
382.848145	920.462097	4807.014160	5451.293457	116.577148
383.211487	913.254822	4848.995605	5520.468750	117.060905
383.574768	901.886414	4903.310547	5610.449219	117.672180
383.938019	907.161926	4957.180176	5700.132813	118.344421
384.301270	908.499329	5023.012695	5796.131348	118.790039
384.664459	915.632507	5065.216309	5870.138184	119.397652
385.027649	914.517883	5107.420410	5933.889160	119.711136
385.390778	921.353821	5154.453613	6021.641113	120.485878
385.753876	920.387878	5201.858887	6072.240723	120.329033
386.116943	930.418701	5247.629883	6121.281250	120.236473
386.479980	925.960510	5261.598633	6139.708496	120.253304
386.842987	927.966736	5291.171387	6196.921387	120.758827
387.205994	917.118469	5330.923340	6264.017090	121.140350
387.568909	917.861511	5361.980957	6330.369141	121.790329
387.931793	917.489929	5391.256348	6375.619629	122.003006
388.294678	918.604492	5422.018066	6428.820313	122.356422
388.657471	915.929626	5458.277832	6461.736328	122.091187
389.020294	918.233093	5479.380371	6480.980469	121.959389
389.383057	917.192810	5492.531738	6492.497559	121.855560
389.745819	917.415710	5492.977051	6512.931152	122.291344
390.108521	915.558105	5520.320801	6546.664063	122.288734
390.471191	921.130859	5570.400879	6620.595703	122.588379
390.833801	917.192810	5668.926270	6754.935059	122.855003
391.196442	917.415710	5772.132324	6931.403809	123.879280
391.558960	919.421875	5867.982910	7106.460938	125.027031
391.921509	922.542664	5986.792969	7270.446777	125.347359
392.284027	922.022461	6110.210449	7423.658691	125.316124
392.646484	917.787170	6206.580566	7514.977051	124.739037
393.008911	918.084473	6207.472168	7508.216309	124.591583
393.371307	919.198975	6180.945801	7461.628418	124.339493
393.733673	916.598389	6127.745605	7407.906738	124.565819
394.096008	922.542480	6112.587402	7421.281738	125.215469
394.458344	923.582825	6129.677246	7450.854004	125.377502
394.820587	924.771667	6181.169434	7496.995605	125.032852
395.182831	918.455872	6236.821777	7538.605469	124.477135
395.545013	919.644775	6243.285645	7503.534668	123.672691
395.907196	923.434265	6201.007813	7432.798828	123.340103
396.269287	923.211365	6129.825684	7321.864746	122.894707
396.631409	925.068909	6040.216309	7226.311035	123.187889
396.993469	919.644775	5962.124512	7132.318359	123.206726
397.355530	925.960510	5898.595703	7053.408691	123.223358
397.717499	914.740784	5878.533691	7018.040527	122.956375
398.079468	919.198975	5877.270996	7009.644531	122.838982
398.441376	914.517883	5888.564941	7014.474121	122.635674
398.803284	924.325867	5905.877441	7061.210449	123.192230
399.165131	922.245361	5917.320313	7113.371094	123.944603
399.526978	924.548645	5935.450684	7158.101563	124.399818
399.888763	919.198914	5932.105957	7185.964844	125.012611
400.250519	921.205078	5962.718750	7201.642578	124.574440
400.612244	923.880066	5987.164551	7219.623535	124.341095
400.973938	922.468262	6013.467285	7213.457031	123.570808
401.335602	917.415710	6021.789063	7217.023438	123.415886
401.697205	921.056458	6032.415527	7275.796875	124.325844
402.058807	917.267090	6087.473145	7339.251465	124.211380
402.420349	918.530273	6176.785156	7468.091797	124.557701
402.781860	905.973083	6273.898438	7554.283203	123.852509
403.143341	918.381653	6361.056152	7696.795410	124.541969
403.504822	913.403381	6454.603027	7809.884277	124.458267
403.866241	918.901855	6555.580078	7979.443359	125.260681
404.227631	915.781067	6657.152344	8124.110840	125.550667
404.588959	923.211365	6792.755371	8284.233398	125.410461
404.950287	927.223694	6910.821777	8413.593750	125.114853
405.311554	928.189636	6999.687500	8512.342773	124.914040
405.672821	926.629211	7012.541504	8545.926758	125.195656
406.034027	916.969910	7017.742676	8529.060547	124.772560
406.395203	911.620117	6988.244629	8458.175781	124.189926
406.756348	907.682068	6957.335449	8386.399414	123.622246
407.117493	912.363098	6899.453125	8325.694336	123.821945
407.478516	917.118469	6864.457031	8305.929688	124.237274
407.839600	920.462097	6874.339844	8308.158203	124.082092
408.200592	920.833557	6913.645996	8319.155273	123.453247
408.561554	922.245422	6949.311035	8307.936523	122.542076
408.922485	923.285645	6959.490234	8336.096680	122.805832
409.283417	924.102966	6973.682129	8360.616211	122.926125
409.644257	923.805664	7032.455566	8466.572266	123.476822
410.005096	928.561035	7113.668457	8566.733398	123.492966
410.365906	928.932617	7198.967285	8660.874023	123.315765
410.726715	923.062683	7264.279785	8762.965820	123.634041
411.087433	918.084473	7315.920410	8841.280273	123.841812
411.448120	915.483826	7381.752441	8934.307617	124.010063
411.808807	917.712891	7414.296875	8915.658203	123.110008
412.169434	915.558105	7392.971191	8868.550781	122.780388
412.530029	917.044189	7380.935059	8820.401367	122.269356
412.890564	914.517883	7361.988281	8821.144531	122.631454
413.251099	911.322937	7400.625000	8841.651367	122.206184
413.611572	903.818359	7435.695801	8875.608398	122.044388
413.972076	907.087646	7489.342285	8933.416992	121.938896
414.332489	913.700623	7528.054688	8996.722656	122.204254
414.692871	914.220703	7620.933105	9124.746094	122.422508
415.053223	914.889465	7744.349609	9219.778320	121.603882
415.413574	918.084473	7886.861816	9410.290039	121.860764
415.773834	924.771667	7996.458984	9535.416992	121.762245
416.134094	922.542664	8077.671875	9724.293945	123.013161
416.494263	916.449707	8205.621094	9856.850586	122.653175
416.854462	920.684998	8388.925781	10099.002930	122.897995
417.214630	930.641602	8614.731445	10344.202148	122.507164
417.574738	925.960632	8828.351563	10620.608398	122.679924
417.934784	923.731445	9020.721680	10869.298828	122.830421
418.294861	916.226868	9285.090820	11187.612305	122.733330
418.654846	916.003906	9572.568359	11581.639648	123.208641
419.014832	911.025635	9902.992188	12009.028320	123.421310
419.374756	908.202148	10256.301758	12471.042969	123.691887
419.734680	917.638611	10658.205078	12947.992188	123.507744
420.094543	918.604492	11036.778320	13433.784180	123.690102
420.454376	919.941956	11364.750000	13857.680664	123.867653
420.814148	918.753113	11676.002930	14289.825195	124.298241
421.173920	925.811951	12017.127930	14730.588867	124.464729
421.533691	927.075012	12371.625000	15173.135742	124.478996
421.893341	923.731445	12654.718750	15481.492188	124.096634
422.253021	917.935852	12875.622070	15679.434570	123.447784
422.612640	917.044189	12936.030273	15737.242188	123.306557
422.972260	916.746887	12921.465820	15695.706055	123.109581
423.331757	918.827454	12819.895508	15603.199219	123.387009
423.691315	919.273254	12784.452148	15615.979492	123.864182
424.050781	923.508545	12862.320313	15745.415039	124.148926
424.410248	927.298035	12975.557617	15852.040039	123.874672
424.769653	928.189636	13120.448242	15946.776367	123.181335
425.128998	928.561035	13172.757813	15985.414063	122.971344
425.488373	920.536377	13148.832031	15960.819336	122.995743
425.847656	917.712891	13030.988281	15805.749023	122.906776
426.206940	909.688232	12882.160156	15584.475586	122.571075
426.566193	912.808899	12673.071289	15283.846680	122.199974
426.925385	913.329102	12466.139648	14997.335938	121.909790
427.284576	918.827454	12139.578125	14613.413086	122.046967
427.643677	910.133972	11884.125000	14330.468750	122.292198
428.002777	914.963684	11623.545898	14003.981445	122.229233
428.361847	909.613953	11380.352539	13689.756836	122.055794
428.720856	919.719055	11152.764648	13394.997070	121.911682
429.079865	918.976074	10971.984375	13192.968750	122.092735
429.438812	921.576721	10887.354492	13082.257813	122.024406
429.797760	927.743835	10831.850586	12999.112305	121.882454
430.156616	925.589050	10714.971680	12835.870117	121.665291
430.515503	929.378418	10643.715820	12735.709961	121.535118
430.874268	923.657166	10623.951172	12666.534180	121.056915
431.233093	915.706726	10666.229492	12725.975586	121.124466
431.591827	906.121643	10709.845703	12792.700195	121.245544
431.950562	903.223877	10716.607422	12842.854492	121.666809
432.309204	911.471497	10748.631836	12907.125977	121.942245
432.667877	920.090637	10853.250000	13019.768555	121.810974
433.026459	917.935852	10954.969727	13154.627930	121.915421
433.385010	918.084473	11100.379883	13274.774414	121.354660
433.743561	913.477600	11221.493164	13414.018555	121.270103
434.102051	919.570496	11358.062500	13560.915039	121.103165
434.460510	914.294922	11478.953125	13726.461914	121.273842
434.818939	918.530273	11558.085938	13782.709961	120.908997
435.177338	914.146301	11624.512695	13840.590820	120.690964
435.535675	919.347473	11586.543945	13784.937500	120.608917
435.894012	918.010071	11546.643555	13775.278320	120.968216
436.252289	920.016296	11530.890625	13766.065430	121.064949
436.610535	919.719055	11547.980469	13794.968750	121.141632
436.968719	927.743835	11653.118164	13906.870117	121.013275
437.326935	922.171082	11742.429688	14035.709961	121.194321
437.685028	915.112305	11881.672852	14179.040039	120.948837
438.043152	912.660339	11957.612305	14307.434570	121.275078
438.401215	918.604492	12132.445313	14487.247070	120.999062
438.759277	928.561096	12304.084961	14715.729492	121.200294
439.117249	928.561096	12597.803711	15064.727539	121.140396
439.475250	930.790222	12828.588867	15359.338867	121.270744
439.833130	924.994568	13122.604492	15751.433594	121.552002
440.191071	920.313538	13308.731445	15964.756836	121.439583
440.548889	916.226868	13508.829102	16293.917969	122.116867
440.906708	916.226868	13763.390625	16574.261719	121.879311
441.264496	912.883118	13999.524414	16854.605469	121.816757
441.622223	913.180420	14221.243164	17005.365234	120.920563
441.979950	908.796570	14298.370117	17091.779297	120.862572
442.337616	915.929688	14328.239258	17100.029297	120.666016
442.695251	910.579895	14254.976563	16985.378906	120.461037
443.052887	920.833679	14119.003906	16760.835938	120.016655
443.410461	913.403381	13999.971680	16610.892578	119.951149
443.768005	919.719055	13882.497070	16505.310547	120.233421
444.125458	916.672668	13812.950195	16451.812500	120.462204
444.482941	924.846008	13811.315430	16457.087891	120.531395
444.840393	927.149414	13867.711914	16525.517578	120.538567
445.197754	927.075012	14077.617188	16795.609375	120.668289
445.555084	921.576660	14275.040039	17091.408203	121.090927
445.912415	914.815125	14584.807617	17511.294922	121.408119
446.269714	913.180420	14814.476563	17816.380859	121.594429
446.626953	914.815125	15144.008789	18139.894531	121.054512
446.984161	908.870850	15416.997070	18451.966797	120.919106
447.341309	907.830566	15677.799805	18686.984375	120.373672
447.698456	912.957520	15807.309570	18845.101563	120.395607
448.055542	920.313477	15896.472656	18917.472656	120.172066
448.412598	920.090576	15838.367188	18845.994141	120.160690
448.769653	911.471497	15739.543945	18736.695313	120.212692
449.126617	911.248535	15523.769531	18439.781250	119.955566
449.483582	914.889343	15343.808594	18216.648438	119.910301
449.840515	914.443542	15128.554688	17895.365234	119.465240
450.197388	913.700500	14971.551758	17687.912109	119.322723
450.554230	908.350769	14836.172852	17500.371094	119.128601
450.911041	906.716125	14676.199219	17360.830078	119.496956
451.267822	907.161926	14519.867188	17225.822266	119.878159
451.624573	910.951355	14376.312500	17094.308594	120.185097
451.981262	910.208313	14268.127930	16976.611328	120.276237
452.337921	913.774902	14197.094727	16843.535156	119.923027
452.694580	914.963684	14131.782227	16780.599609	120.041260
453.051147	923.508484	14172.426758	16824.662109	120.018509
453.407715	922.096680	14149.541992	16755.113281	119.698219
453.764221	923.136963	14168.117188	16763.955078	119.598656
454.120728	924.177246	14003.907227	16526.486328	119.286163
454.477142	923.211243	13921.282227	16484.580078	119.720604
454.833557	925.068848	13778.473633	16281.734375	119.475479
455.189911	921.576660	13683.664063	16133.648438	119.197365
455.546265	921.130859	13540.854492	15977.315430	119.306770
455.902557	919.867676	13459.343750	15884.362305	119.339066
456.258820	919.496277	13433.188477	15882.727539	119.574867
456.615051	917.044189	13506.674805	15986.527344	119.697578
456.971252	910.356934	13514.475586	16015.655273	119.844147
457.327393	913.551941	13692.356445	16218.723633	119.769981
457.683502	921.873840	13900.329102	16449.656250	119.642761
458.039612	918.530273	14223.323242	16890.123047	120.043900
458.395630	919.124695	14525.735352	17325.091797	120.573502
458.751648	917.044250	14809.795898	17784.951172	121.415154
459.107605	919.867737	15325.901367	18429.750000	121.545486
459.463562	908.425110	15864.522461	19101.373047	121.642342
459.819458	906.493164	16430.486328	19749.662109	121.380936
460.175323	908.276428	16918.505859	20311.837891	121.194771
460.531158	909.168030	17432.234375	20850.160156	120.685783
460.886932	909.688171	17812.962891	21152.199219	119.754967
461.242676	909.093750	18038.470703	21232.818359	118.648361
461.598419	915.706726	17893.359375	20950.544922	118.007118
461.954102	913.849121	17520.656250	20448.406250	117.629822
462.309723	916.226868	16938.865234	19764.298828	117.634010
462.665344	917.861511	16372.160156	19072.541016	117.473335
463.020905	922.691223	15927.976563	18570.328125	117.609474
463.376373	918.604553	15574.370117	18206.173828	117.957458
463.731873	917.415710	15324.342773	17959.859375	118.293396
464.087341	915.260925	15114.511719	17709.013672	118.272095
464.442749	921.873840	15004.765625	17526.750000	117.908150
464.798126	924.474548	14899.924805	17423.615234	118.058029
465.153503	925.737610	14929.422852	17493.310547	118.308655
465.508820	922.393982	14950.375977	17569.917969	118.673683
465.864105	919.124695	15079.663086	17663.539063	118.247017
466.219330	914.517883	15291.276367	17886.373047	118.050636
466.574524	909.911133	15457.640625	18082.085938	118.040245
466.929657	904.041199	15628.016602	18312.423828	118.231537
467.284790	910.579834	15817.191406	18528.572266	118.189117
467.639893	911.025635	16047.233398	18740.632813	117.794411
467.994934	921.130798	16294.958008	18946.005859	117.243904
468.349945	918.455994	16435.017578	19008.568359	116.585838
468.704926	925.886230	16443.562500	18971.343750	116.289688
469.059875	924.103027	16206.389648	18725.845703	116.486115
469.414764	923.880066	15929.833008	18443.642578	116.752075
469.769653	927.298035	15709.971680	18245.330078	117.150871
470.124451	934.208191	15653.799805	18169.244141	117.089081
470.479248	928.932617	15557.207031	18088.328125	117.302933
470.834015	919.198975	15528.526367	18043.896484	117.217560
471.188721	906.270325	15573.256836	18136.253906	117.474609
471.543365	913.774902	15631.210938	18219.101563	117.583839
471.898010	919.050293	15695.260742	18333.453125	117.854317
472.252625	922.988464	15807.903320	18445.576172	117.720444
472.607178	923.508545	16048.125000	18727.927734	117.718163
472.961700	924.845947	16268.804688	18929.212891	117.338470
473.316193	922.393982	16526.931641	19215.947266	117.232262
473.670654	915.186584	16699.908203	19398.507813	117.096268
474.025055	916.449707	16968.214844	19686.951172	116.937302
474.379456	913.477600	17178.341797	19872.783203	116.566017
474.733795	912.511719	17303.468750	20052.224609	116.769951
475.088104	909.836853	17344.113281	20182.478516	117.271004
475.442383	918.010071	17286.306641	20228.099609	117.972504
475.796570	917.415710	17326.427734	20299.580078	118.119019
476.150787	919.867676	17465.298828	20480.208984	118.222008
476.504944	912.437439	17698.611328	20767.388672	118.281578
476.859070	919.719055	17945.816406	21056.796875	118.271835
477.213135	912.808899	18169.912109	21335.283203	118.342422
477.567200	913.774719	18534.591797	21803.908203	118.553719
477.921173	913.106140	18912.716797	22267.484375	118.638000
478.275146	915.781006	19363.585938	22763.750000	118.431267
478.629089	917.861511	19615.025391	23045.656250	118.348404
478.983002	915.558105	19996.570313	23480.625000	118.259277
479.336823	914.740784	20318.451172	23854.740234	118.224808
479.690643	914.146301	20725.628906	24336.072266	118.223991
480.044403	914.443604	21145.736328	24856.337891	118.340904
480.398163	917.489929	21721.507813	25575.367188	118.524590
480.751862	914.740723	22475.382813	26503.109375	118.680923
481.105499	915.855408	23415.537109	27637.490234	118.764503
481.459137	920.239258	24596.429688	29119.087891	119.102127
481.812744	928.784119	25987.822266	30997.388672	119.991058
482.166290	925.291809	27614.306641	33223.125000	121.015457
482.519806	919.050476	29533.250000	35943.496094	122.402328
482.873291	919.719177	31875.568359	39037.910156	123.137283
483.226715	922.245422	34760.152344	42679.039063	123.402412
483.580139	916.301086	37865.113281	46220.531250	122.613495
483.933502	913.180420	41261.042969	49691.355469	120.894073
484.286804	913.997803	44530.656250	52540.941406	118.365196
484.640106	925.291809	47548.238281	54780.277344	115.511757
484.993347	922.988464	49763.800781	56022.542969	112.814575
485.346558	924.177246	50724.906250	56262.093750	111.118690
485.699738	921.725281	50323.453125	55554.734375	110.589272
486.052887	920.833679	48576.593750	54051.363281	111.488159
486.405975	924.028625	46130.996094	52140.746094	113.293854
486.759064	926.926453	43550.605469	50198.027344	115.595604
487.112061	928.561035	41638.203125	48778.324219	117.539139
487.464996	925.589050	40771.164063	48154.402344	118.529633
487.817963	917.489929	40831.425781	48248.542969	118.582771
488.170868	916.226868	41343.816406	48635.812500	118.037178
488.523743	904.709961	41873.968750	48951.078125	117.274193
488.876587	905.675842	42240.425781	48879.230469	116.061073
489.229401	906.344727	42083.796875	48416.468750	115.378983
489.582153	916.747070	41383.566406	47474.906250	115.052681
489.934845	911.545837	40135.503906	46262.281250	115.619987
490.287537	912.957520	38756.667969	44953.437500	116.374634
490.640198	911.694336	37571.542969	43896.484375	117.253052
490.992798	920.685059	36705.246094	43215.425781	118.192703
491.345337	917.044128	36484.718750	43099.515625	118.597778
491.697876	916.226868	36640.308594	43363.066406	118.818558
492.050354	917.118469	37347.894531	43976.292969	118.194504
492.402832	924.548828	38055.402344	44397.730469	117.081017
492.755219	923.434265	38513.328125	44433.988281	115.750671
493.107605	923.285645	38356.996094	43765.714844	114.448792
493.459930	913.403381	37430.066406	42488.449219	113.852257
493.812225	922.542664	35823.792969	40503.082031	113.407227
494.164490	925.217468	33741.164063	38193.531250	113.567696
494.516724	932.127625	31664.773438	35896.613281	113.769844
494.868896	921.130859	29814.486328	33970.238281	114.383080
495.221039	912.437439	28423.318359	32581.820313	115.115845
495.573120	908.870911	27339.462891	31559.935547	115.968132
495.925201	916.598328	26799.429688	31035.578125	116.366631
496.277222	921.056458	26515.148438	30780.052734	116.663628
496.629211	921.353699	26509.056641	30797.806641	116.760979
496.981140	912.437439	26532.015625	30838.525391	116.809448
497.333069	912.140198	26686.787109	30977.695313	116.647789
497.684967	910.802734	26844.306641	31074.140625	116.310303
498.036804	914.740784	26973.000000	31135.068359	115.972168
498.388580	914.517883	26972.556641	31059.578125	115.684303
498.740326	920.016296	26891.716797	30880.134766	115.356781
499.092072	917.118469	26638.937500	30558.703125	115.239067
499.443756	907.533447	26346.333984	30178.867188	115.065697
499.795410	906.641785	26039.982422	29784.990234	114.900558
500.147003	920.239197	25727.093750	29421.130859	114.891197
500.498566	938.517639	25398.005859	29026.435547	114.834450
500.850098	931.384583	25065.427734	28635.822266	114.794014
501.201599	924.920227	24800.166016	28285.853516	114.599586
501.553009	917.415710	24524.578125	27976.906250	114.624069
501.904449	921.428040	24313.187500	27769.826172	114.777161
502.255859	925.366028	24153.658203	27606.431641	114.864517
502.607178	918.604492	24112.867188	27553.900391	114.835716
502.958405	916.969910	24043.693359	27452.181641	114.738312
503.309692	908.722229	23958.541016	27420.525391	115.019577
503.660919	916.821289	23935.283203	27442.892578	115.238243
504.012115	914.740784	24006.093750	27535.771484	115.285713
504.363251	918.901794	24145.708984	27626.494141	114.986069
504.714294	919.421875	24250.773438	27716.177734	114.852997
505.065369	929.155518	24305.384766	27771.312500	114.826721
505.416443	920.685059	24352.271484	27836.697266	114.870636
505.767395	919.496155	24392.171875	27848.140625	114.723366
506.118317	910.505554	24412.976563	27800.216797	114.412270
506.469238	914.963684	24427.314453	27786.916016	114.288666
506.820160	911.694336	24389.791016	27779.333984	114.437042
507.170929	919.719055	24350.562500	27845.835938	114.917404
507.521729	917.638611	24401.384766	27901.638672	114.905006
507.872498	916.672668	24514.771484	27967.619141	114.631889
508.223236	915.929688	24721.630859	28179.976563	114.527382
508.573883	919.942078	24860.500000	28433.052734	114.922592
508.924500	917.118469	25022.037109	28749.578125	115.463821
509.275116	917.638489	25169.601563	28944.849609	115.566772
509.625702	913.700500	25421.859375	29169.539063	115.291557
509.976196	916.895508	25709.408203	29422.986328	114.978630
510.326660	910.951355	25992.505859	29735.353516	114.922707
510.677124	913.403320	26254.125000	29998.833984	114.777428
511.027557	915.558105	26447.904297	30235.115234	114.832993
511.377869	919.050293	26630.318359	30481.427734	114.978294
511.728180	924.697327	26733.005859	30639.990234	115.138474
512.078430	930.270020	26846.021484	30775.445313	115.162300
512.428650	932.721985	26970.552734	30908.076172	115.122314
512.778931	925.217468	27094.117188	31039.962891	115.078377
513.129028	921.799561	27173.619141	31079.195313	114.877357
513.479126	918.232910	27259.515625	31088.779297	114.537117
513.829285	922.691162	27184.914063	31021.460938	114.608612
514.179382	923.880066	27146.947266	30969.375000	114.576584
514.529297	924.548767	27054.068359	30827.380859	114.440804
514.879272	924.697449	27096.791016	30878.947266	114.451103
515.229187	922.839844	26980.283203	30779.974609	114.581978
515.579163	918.307373	26973.892578	30826.265625	114.785210
515.928955	911.174316	26982.140625	30824.185547	114.736870
516.278748	912.065918	27189.593750	31079.414063	114.802841
516.628540	911.991699	27395.265625	31420.390625	115.198746
516.978333	921.279480	27744.935547	31924.312500	115.580940
517.327942	916.672668	28164.375000	32473.853516	115.815933
517.677612	924.028625	28673.123047	33115.089844	116.007614
518.027222	927.743713	29207.656250	33809.226563	116.271523
518.376831	931.013000	29903.724609	34644.386719	116.362518
518.726379	927.743835	30617.474609	35412.972656	116.152046
519.075867	923.954346	31257.445313	35993.347656	115.612793
519.425293	924.474426	31757.353516	36423.640625	115.134132
519.774658	921.948181	32094.021484	36665.718750	114.665993
520.124084	917.712891	32304.296875	36705.546875	114.022720
520.473389	915.632324	32164.904297	36423.492188	113.627800
520.822693	916.523987	31859.818359	35976.785156	113.304878
521.171997	915.632385	31325.880859	35430.511719	113.497528
521.521240	909.539612	30827.085938	34877.621094	113.538994
521.870361	913.329102	30337.281250	34373.625000	113.717880
522.219482	912.140198	29948.900391	34058.878906	114.154396
522.568604	920.239258	29691.515625	33862.277344	114.496269
522.917664	928.338196	29537.486328	33793.546875	114.876564
523.266724	930.790222	29596.630859	33888.355469	114.971573
523.615662	930.790222	29788.037109	34228.664063	115.388260
523.964600	921.650879	30152.564453	34705.390625	115.575371
524.313538	925.589050	30594.962891	35243.265625	115.667007
524.662354	922.542664	31170.734375	35931.457031	115.738869
525.011169	928.709778	31918.443359	36907.871094	116.100250
525.359985	922.245361	32865.949219	38116.332031	116.436363
525.708740	925.217468	33997.062500	39519.683594	116.698860
526.057434	916.226868	35280.941406	41017.777344	116.693970
526.406067	924.103027	36692.097656	42679.183594	116.738670
526.754700	921.502380	38162.175781	44488.828125	116.988556
527.103333	921.650879	39770.675781	46403.980469	117.074570
527.451782	916.226868	41565.980469	48475.839844	116.998528
527.800293	913.477722	43502.457031	50540.859375	116.526344
528.148743	911.248535	45532.925781	52548.441406	115.722214
528.497131	910.431213	47571.871094	54315.957031	114.453232
528.845642	913.997742	49605.464844	55836.562500	112.797104
529.193909	917.415710	51481.531250	57074.824219	111.061783
529.542175	918.530273	53022.125000	57959.613281	109.476288
529.890503	924.251465	53979.066406	58308.468750	108.160240
530.238770	924.177246	54201.605469	58075.230469	107.270668
530.586914	926.257629	53640.621094	57307.753906	106.956612
530.934998	923.731445	52130.343750	55953.511719	107.466164
531.283142	922.765442	50026.761719	54226.496094	108.552734
531.631226	918.381653	47433.593750	52176.339844	110.196121
531.979248	914.443542	45033.765625	50178.781250	111.661591
532.327148	914.072083	43016.371094	48588.183594	113.233986
532.675110	912.437439	41722.316406	47524.832031	114.218407
533.023071	909.242432	41255.472656	47229.636719	114.807243
533.370850	910.728516	41362.019531	47332.988281	114.760887
533.718689	912.511719	41934.523438	47844.042969	114.405731
534.066467	913.626282	42528.050781	48282.652344	113.828384
534.414246	917.415771	43002.847656	48552.593750	113.186859
534.761963	925.291809	43264.839844	48515.218750	112.400650
535.109619	924.697327	43151.527344	48120.593750	111.767555
535.457153	919.941956	42463.410156	47258.238281	111.541710
535.804749	914.517883	41388.027344	46106.175781	111.657372
536.152344	917.192810	40088.398438	44944.824219	112.397949
536.499817	914.740784	38923.332031	43909.707031	113.119072
536.847229	910.877014	37891.859375	43011.246094	113.843300
537.194641	914.517822	37267.421875	42292.957031	113.824303
537.542114	925.217468	36977.792969	41787.703125	113.341377
537.889404	926.109070	36708.890625	41364.250000	113.010056
538.236694	926.480652	36421.785156	40943.847656	112.739891
538.583984	926.554993	36018.691406	40555.171875	112.927345
538.931213	926.777832	35713.082031	40236.187500	113.002548
539.278381	919.793396	35321.730469	39981.031250	113.543716
539.625488	915.335266	35066.500000	39877.972656	114.088753
539.972595	916.821289	35078.312500	40155.863281	114.863373
540.319641	923.359863	35469.738281	40853.195313	115.583275
540.666687	924.548645	36289.968750	42011.871094	116.179367
541.013611	920.387756	37519.824219	43501.269531	116.342995
541.360596	915.706726	39041.250000	45157.406250	116.042145
541.707458	910.134033	40698.425781	46860.425781	115.486969
542.054260	918.753174	42255.140625	48244.531250	114.489388
542.401062	917.564270	43674.546875	49324.156250	113.213303
542.747864	918.307312	44689.000000	49844.417969	111.778244
543.094666	909.836731	45076.785156	49808.011719	110.712143
543.441284	914.294983	44650.437500	49104.292969	110.183464
543.787903	913.997742	43585.605469	47900.218750	110.111206
544.134460	919.273254	42033.792969	46352.636719	110.504425
544.481079	922.616882	40348.085938	44699.480469	111.037018
544.827637	925.143127	38587.261719	42927.433594	111.523972
545.174072	925.663269	36960.847656	41193.503906	111.745895
545.520508	918.158691	35547.683594	39694.593750	111.975075
545.866943	914.220703	34381.429688	38514.886719	112.350754
546.213318	912.288818	33529.402344	37641.906250	112.608421
546.559631	919.942078	32833.406250	36955.347656	112.915993
546.905823	926.406433	32316.484375	36353.871094	112.861984
547.252136	928.635437	31902.468750	35932.273438	113.010345
547.598389	926.852112	31611.943359	35482.148438	112.612656
547.944458	927.520813	31379.599609	35154.996094	112.397835
548.290588	923.359863	31070.349609	34634.800781	111.823570
548.636658	921.353699	30612.201172	34006.125000	111.430870
548.982727	918.604553	29989.544922	33163.160156	110.916794
549.328735	920.313477	29261.007813	32332.900391	110.839149
549.674622	919.347656	28442.041016	31436.884766	110.881363
550.020569	911.620117	27688.314453	30624.087891	110.963913
550.366455	913.552002	26905.312500	29772.505859	111.031166
550.712280	914.740784	26264.898438	29074.505859	111.083199
551.058044	919.050354	25725.978516	28522.509766	111.273186
551.403748	923.211243	25353.130859	28131.156250	111.371407
551.749512	922.468262	25139.287109	27878.455078	111.311012
552.095154	927.520813	24914.595703	27717.142578	111.683571
552.440735	922.616882	24858.867188	27697.750000	111.860184
552.786316	919.421875	24794.150391	27729.849609	112.296265
553.131897	916.003906	24892.599609	27846.208984	112.318718
553.477417	914.666504	24986.443359	27924.451172	112.205200
553.822815	920.685059	25091.283203	27931.656250	111.751358
554.168213	915.186584	25147.458984	27855.125000	111.173805
554.513672	921.948059	25147.384766	27745.007813	110.722710
554.859009	915.706726	24999.968750	27557.619141	110.619591
555.204285	926.257629	24825.728516	27273.259766	110.240944
555.549500	915.260925	24523.984375	26948.111328	110.267929
555.894714	910.802795	24248.099609	26681.734375	110.428093
556.239990	906.493225	23940.708984	26356.734375	110.488853
556.585022	918.233093	23686.890625	26073.716797	110.482948
556.930115	924.474426	23400.826172	25768.851563	110.535629
557.275146	924.325867	23126.203125	25556.646484	110.947014
557.620178	920.536377	22925.361328	25341.537109	110.980209
557.965149	924.548767	22813.908203	25177.476563	110.797798
558.310059	922.616882	22696.138672	25002.791016	110.593842
558.654968	923.657043	22565.513672	24872.912109	110.661743
558.999756	918.827454	22443.287109	24740.726563	110.673622
559.344604	921.576660	22417.281250	24720.068359	110.712776
559.689331	921.948181	22368.017578	24665.976563	110.715057
560.033997	926.852051	22324.921875	24637.296875	110.806465
560.378723	933.167786	22273.951172	24610.250000	110.947578
560.723389	933.465088	22279.224609	24597.396484	110.860107
561.067932	927.520935	22339.632813	24650.375000	110.791756
561.412476	914.666504	22369.427734	24630.162109	110.537216
561.757019	912.660339	22364.750000	24650.296875	110.654190
562.101501	914.517883	22388.078125	24644.875000	110.509651
562.445862	920.536438	22373.888672	24638.857422	110.557648
562.790222	914.666504	22382.357422	24659.068359	110.605293
563.134644	916.672668	22373.884766	24624.591797	110.489281
563.478943	919.867676	22370.171875	24603.115234	110.409843
563.823181	924.697327	22343.421875	24542.115234	110.265289
564.167358	922.914063	22327.671875	24578.298828	110.514610
564.511536	922.914063	22342.900391	24621.171875	110.636192
564.855774	918.604553	22357.984375	24684.775391	110.852882
565.199768	918.455994	22418.468750	24794.000000	111.048973
565.543823	913.849182	22528.806641	24999.150391	111.428864
565.887817	919.050354	22783.296875	25267.382813	111.361404
566.231812	924.325867	23002.859375	25506.490234	111.339661
566.575745	925.440430	23250.806641	25715.056641	111.037895
566.919617	925.663330	23489.021484	25930.460938	110.820374
567.263428	919.199036	23697.068359	26107.599609	110.582779
567.607239	918.158875	23828.064453	26253.380859	110.586319
567.950989	918.753235	23867.669922	26243.794922	110.353973
568.294678	924.697449	23871.681641	26212.884766	110.202660
568.638367	925.366028	23798.046875	26079.958984	109.976585
568.981995	911.620117	23626.406250	25972.369141	110.327919
569.325623	908.276550	23430.990234	25727.763672	110.197586
569.669128	905.007141	23244.564453	25555.455078	110.344391
570.012573	916.078308	23130.287109	25398.156250	110.209091
570.356140	919.793396	23072.853516	25410.490234	110.552208
570.699524	920.387878	23046.328125	25399.865234	110.637001
571.042908	922.839783	23105.396484	25546.017578	111.002434
571.386230	919.644714	23193.000000	25656.060547	111.058327
571.729492	923.434265	23369.320313	25849.619141	111.050125
572.072815	927.446533	23505.515625	26017.320313	111.124977
572.416016	932.201965	23655.087891	26159.164063	111.020065
572.759094	936.214294	23782.072266	26299.228516	111.017998
573.102234	936.214294	23905.265625	26376.353516	110.758339
573.445374	931.235901	23934.765625	26460.390625	110.979294
573.788391	920.833557	23973.849609	26464.476563	110.803909
574.131409	914.294922	23972.958984	26406.000000	110.551529
574.474365	908.276428	23972.583984	26314.755859	110.154961
574.817261	916.672668	23831.556641	26157.529297	110.150490
575.160156	917.564270	23654.568359	25951.562500	110.102448
575.502930	921.130859	23456.921875	25700.494141	109.955597
575.845703	918.604492	23269.458984	25460.498047	109.802933
576.188477	921.948181	23083.998047	25249.994141	109.773445
576.531250	918.307312	22897.500000	25028.945313	109.697556
576.873901	912.734619	22668.718750	24751.349609	109.572678
577.216431	909.465332	22415.125000	24400.640625	109.232529
577.559082	917.861511	22148.822266	24084.929688	109.119263
577.901611	923.211243	21877.023438	23726.640625	108.827118
578.244080	922.394043	21592.593750	23386.705078	108.679703
578.586487	920.313477	21285.798828	23001.447266	108.424294
578.928955	938.071838	20960.945313	22638.330078	108.377342
579.271301	934.653870	20610.462891	22311.994141	108.647835
579.613647	932.053284	20254.181641	21951.849609	108.786133
579.955872	921.725281	19965.513672	21643.267578	108.809982
580.298157	920.685059	19692.822266	21297.390625	108.547607
580.640320	927.892334	19437.591797	21020.386719	108.551163
580.982483	924.697449	19201.607422	20771.101563	108.587303
581.324524	930.344421	18981.224609	20573.529297	108.821205
581.666626	928.486877	18861.968750	20431.611328	108.752579
582.008728	925.811951	18765.671875	20299.800781	108.599442
582.350647	924.548828	18717.822266	20208.185547	108.375992
582.692566	924.623047	18631.556641	20074.291016	108.147850
583.034424	922.393982	18546.849609	19967.445313	108.060364
583.376343	929.601379	18459.693359	19852.720703	107.946495
583.718201	929.452820	18389.849609	19791.050781	108.025024
584.059937	928.709717	18322.976563	19722.171875	108.043999
584.401611	924.920227	18240.054688	19648.908203	108.136543
584.743347	922.096741	18186.556641	19578.839844	108.064445
585.085022	917.638611	18102.818359	19498.369141	108.120667
585.426514	911.768738	18023.685547	19402.224609	108.056015
585.768127	906.790344	17952.056641	19334.013672	108.107574
586.109619	916.672668	17846.546875	19281.927734	108.478394
586.451172	921.725281	17826.857422	19254.509766	108.445084
586.792542	931.013123	17766.970703	19226.869141	108.671310
587.133850	929.007019	17742.525391	19177.234375	108.533066
587.475220	926.183411	17696.009766	19175.824219	108.824265
587.816589	925.217529	17717.111328	19142.535156	108.488762
588.157776	922.022461	17792.529297	19190.015625	108.283592
588.498962	923.137024	17862.521484	19257.482422	108.235016
588.840210	923.954346	17908.367188	19305.185547	108.224121
589.181335	927.966614	17959.115234	19388.701172	108.393951
589.522400	925.366150	17989.876953	19400.888672	108.268692
589.863403	918.901794	18029.037109	19477.046875	108.462875
590.204407	910.877136	18066.259766	19455.126953	108.095810
590.545410	908.499329	18124.958984	19520.958984	108.108521
590.886353	912.437439	18158.619141	19504.984375	107.806747
591.227112	918.976013	18172.736328	19503.275391	107.711586
591.567932	921.427979	18134.173828	19413.072266	107.429947
591.908752	922.914063	18058.382813	19349.691406	107.535881
592.249512	923.434265	18027.771484	19355.263672	107.761147
592.590149	923.062683	17979.474609	19251.611328	107.458405
592.930786	922.245422	17936.453125	19211.265625	107.492638
593.271423	922.319641	17849.076172	19074.324219	107.238525
593.612000	922.616882	17754.708984	19040.218750	107.637253
593.952576	916.301208	17686.947266	19004.628906	107.857071
594.292969	907.533447	17693.632813	19056.865234	108.121201
594.633484	906.790466	17750.994141	19155.091797	108.335793
594.973877	909.688232	17857.320313	19258.373047	108.266953
595.314209	913.626282	17925.457031	19379.189453	108.545418
595.654480	915.409485	18039.660156	19549.564453	108.817345
595.994812	919.050293	18163.375000	19763.259766	109.277748
596.335022	924.400085	18364.585938	20047.095703	109.647316
596.675171	924.400146	18558.517578	20261.533203	109.657501
597.015320	915.335205	18797.548828	20454.423828	109.265495
597.355408	912.660339	18969.560547	20565.134766	108.836365
597.695496	914.666504	19170.771484	20667.078125	108.196198
598.035461	923.582825	19202.423828	20618.931641	107.749443
598.375366	929.229797	19210.224609	20566.623047	107.419716
598.715271	928.412415	19103.082031	20491.277344	107.638077
599.055176	933.093506	18925.794922	20290.212891	107.583176
599.395081	920.387756	18651.097656	19976.806641	107.476906
599.734802	919.347473	18291.025391	19519.250000	107.070267
600.074524	911.174255	17962.830078	19128.419922	106.835640
600.414246	920.387756	17584.853516	18715.220703	106.783096
600.753906	921.353699	17216.533203	18366.220703	107.055382
601.093506	921.799622	16852.152344	18052.441406	107.534607
601.433044	922.468262	16612.080078	17807.763672	107.620865
601.772583	926.109131	16478.857422	17659.826172	107.593315
602.112122	932.796387	16455.302734	17671.712891	107.836426
602.451538	931.310303	16487.326172	17770.537109	108.248970
602.790894	925.960449	16606.435547	17938.906250	108.497643
603.130310	914.815125	16763.064453	18167.906250	108.864342
603.469604	909.762512	16955.507813	18410.283203	109.066429
603.808838	910.951355	17175.593750	18711.876953	109.445541
604.148010	916.449768	17448.656250	19005.818359	109.418961
604.487305	919.198975	17739.552734	19334.681641	109.483322
604.826416	920.685059	18029.630859	19617.703125	109.282120
605.165527	921.873840	18283.447266	19829.166016	108.903099
605.504456	928.040955	18487.482422	19979.554688	108.497269
605.843445	928.561035	18646.417969	20045.535156	107.896652
606.182434	927.075012	18702.589844	20047.095703	107.563805
606.521423	921.650879	18611.791016	19919.666016	107.393242
606.860229	922.171082	18426.333984	19655.595703	107.022682
607.199036	923.359863	18177.789063	19334.757813	106.705345
607.537903	928.709717	17901.533203	19028.109375	106.637527
607.876648	932.350586	17565.685547	18730.527344	107.003044
608.215271	928.932617	17216.166016	18390.816406	107.212090
608.553955	915.632385	16945.480469	18047.833984	106.876884
608.892578	907.161926	16691.291016	17830.052734	107.214600
609.231140	910.579834	16557.990234	17724.767578	107.456680
609.569641	922.839844	16471.501953	17739.404297	108.154411
609.908081	922.394043	16521.283203	17761.025391	107.947632
610.246521	914.815125	16589.640625	17801.892578	107.733757
610.584961	914.815125	16690.025391	17810.585938	107.103310
610.923340	911.991638	16735.572266	17795.798828	106.700287
611.261597	920.982239	16694.113281	17709.830078	106.439537
611.599854	917.267090	16561.187500	17595.330078	106.610512
611.938110	924.623047	16418.822266	17420.716797	106.466255
612.276245	923.434143	16220.432617	17175.371094	106.242653
612.614319	920.610657	15977.090820	16847.621094	105.781761
612.952393	914.815125	15642.356445	16459.091797	105.545631
613.290466	913.254822	15334.223633	16116.036133	105.421356
613.628479	916.969971	15006.028320	15795.940430	105.606567
613.966370	925.291809	14750.502930	15584.921875	106.035484
614.304260	921.725281	14507.829102	15378.657227	106.409698
614.642151	915.038025	14325.862305	15159.464844	106.215897
614.979980	914.294983	14173.765625	14935.812500	105.747192
615.317749	916.969910	14033.778320	14785.721680	105.732674
615.655396	920.907959	13955.536133	14686.898438	105.610916
615.993164	917.118469	13870.164063	14633.028320	105.889458
616.330811	921.205139	13832.640625	14556.721680	105.608063
616.668396	920.685059	13807.081055	14532.721680	105.631058
617.005859	925.291809	13783.453125	14499.953125	105.572334
617.343445	924.623047	13778.401367	14529.971680	105.847076
617.680908	928.189514	13766.139648	14531.234375	105.959633
618.018311	922.691162	13770.151367	14552.855469	106.092285
618.355652	923.062683	13789.321289	14538.739258	105.824677
618.692993	919.719055	13816.293945	14528.187500	105.520020
619.030273	917.564270	13831.377930	14528.782227	105.400452
619.367554	914.220703	13802.399414	14510.653320	105.495377
619.704712	912.734680	13801.433594	14504.039063	105.451332
620.041870	917.415710	13794.523438	14449.500000	105.086365
620.379028	917.415710	13776.319336	14428.250000	105.069878
620.716064	923.359863	13701.421875	14368.660156	105.221748
621.053040	917.787170	13643.987305	14338.493164	105.457291
621.389954	924.325867	13590.117188	14248.364258	105.197044
621.726929	916.226868	13522.948242	14177.703125	105.193695
622.063843	905.378662	13450.129883	14118.260742	105.325981
622.400635	898.542786	13379.393555	14071.078125	105.541969
622.737427	899.805969	13333.698242	14037.567383	105.660889
623.074219	916.375488	13305.018555	13965.940430	105.334900
623.410889	916.152588	13261.327148	13937.926758	105.480682
623.747559	925.514648	13248.769531	13914.223633	105.399986
624.084167	921.799622	13198.020508	13900.331055	105.720901
624.420715	926.034851	13210.131836	13873.656250	105.401489
624.757324	923.880066	13200.471680	13879.674805	105.532509
625.093750	928.561035	13227.221680	13896.540039	105.442207
625.430176	927.520813	13263.184570	13988.304688	105.878242
625.766602	925.737610	13255.977539	14029.393555	106.272514
626.102905	928.189636	13331.171875	14188.921875	106.915672
626.439209	930.864502	13402.129883	14302.159180	107.216827
626.775452	932.424805	13570.797852	14448.015625	106.940910
627.111694	925.514648	13671.773438	14496.907227	106.473534
627.447876	924.177246	13769.854492	14548.696289	106.063065
627.783997	922.022461	13849.356445	14627.382813	106.018463
628.120056	929.081238	13925.518555	14702.131836	105.975586
628.456055	927.892334	13944.539063	14690.167969	105.728271
628.792053	929.972839	13967.053711	14677.313477	105.447998
629.128052	929.378418	13935.252930	14566.750977	104.855484
629.463928	921.651062	13889.704102	14485.687500	104.595779
629.799744	916.226868	13747.265625	14312.114258	104.402206
630.135559	912.437439	13592.643555	14184.612305	104.668449
630.471375	925.366028	13436.012695	14027.758789	104.729942
630.807068	926.629211	13262.664063	13837.543945	104.660164
631.142700	921.428040	13125.649414	13695.773438	104.671532
631.478333	905.527283	12944.127930	13508.828125	104.690742
631.813965	904.338379	12846.643555	13414.984375	104.759064
632.149475	909.762512	12717.281250	13278.862305	104.756134
632.484924	921.428040	12649.666992	13194.231445	104.643188
632.820435	922.691162	12515.698242	13100.833008	105.047310
633.155884	922.616882	12472.231445	13022.963867	104.768402
633.491150	924.548767	12418.362305	12992.350586	104.993889
633.826477	924.845947	12386.709961	12926.444336	104.708961
634.161804	924.325867	12311.218750	12864.179688	104.856117
634.497009	916.226807	12242.190430	12780.438477	104.752335
634.832153	917.787292	12160.903320	12703.684570	104.827675
635.167297	919.719055	12063.195313	12635.102539	105.132217
635.502380	920.239258	11972.768555	12540.665039	105.138161
635.837463	920.536438	11900.917969	12426.907227	104.790260
636.172424	911.768738	11855.742188	12334.698242	104.376434
636.507324	916.301086	11801.128906	12256.010742	104.179047
636.842224	918.678894	11741.389648	12200.581055	104.242851
637.177124	925.217468	11629.415039	12093.585938	104.336342
637.511963	916.969910	11520.562500	11976.335938	104.298294
637.846741	910.951355	11387.264648	11841.848633	104.339157
638.181396	914.294922	11274.026367	11717.167969	104.277542
638.516113	922.468262	11182.114258	11590.258789	103.978157
638.850769	923.285645	11082.473633	11479.918945	103.912178
639.185303	918.604492	10981.645508	11379.684570	103.955452
639.519836	919.719055	10856.742188	11308.577148	104.546982
639.854370	918.976013	10776.198242	11221.046875	104.512924
640.188843	920.907898	10694.614258	11117.098633	104.322662
640.523254	913.774902	10626.180664	11018.276367	104.037064
640.857605	914.369202	10527.284180	10890.475586	103.778160
641.191895	917.267090	10453.351563	10785.931641	103.487595
641.526184	924.251526	10385.216797	10696.545898	103.290672
641.860413	924.102966	10322.504883	10666.750000	103.662804
642.194580	922.542542	10260.314453	10614.291992	103.790817
642.528748	917.118469	10176.425781	10555.370117	104.092575
642.862793	921.502380	10111.559570	10461.081055	103.803253
643.196838	920.759338	10048.476563	10400.077148	103.852013
643.530823	921.948181	10017.194336	10330.456055	103.444237
643.864746	922.765442	9960.427734	10296.424805	103.717743
644.198669	919.644775	9913.022461	10254.666992	103.798843
644.532532	919.793396	9855.215820	10213.578125	104.010582
644.866333	911.917297	9827.649414	10165.653320	103.791092
645.200073	918.604553	9795.773438	10121.219727	103.666107
645.533813	922.616943	9775.043945	10097.442383	103.641922
645.867554	930.195801	9766.944336	10099.002930	103.757698
646.201172	929.898621	9756.244141	10117.282227	104.090462
646.534729	928.561035	9789.680664	10145.145508	104.011513
646.868225	924.474426	9800.305664	10144.625000	103.879288
647.201782	913.849121	9790.943359	10128.575195	103.803413
647.535217	914.517883	9760.702148	10111.559570	103.966202
647.868591	915.781006	9807.290039	10144.030273	103.787209
648.201965	917.712891	9823.190430	10174.866211	103.948982
648.535278	920.759277	9842.583008	10175.609375	103.732704
648.868591	928.263916	9818.583984	10178.506836	104.048477
649.201782	929.972900	9812.565430	10155.918945	103.865463
649.534912	920.090637	9764.863281	10130.506836	104.134010
649.868103	914.963684	9705.347656	10058.730469	104.020103
650.201172	916.152588	9663.292969	10006.347656	103.921906
650.534180	927.000732	9646.277344	9973.208008	103.749519
650.867188	919.421875	9648.431641	9952.850586	103.487442
651.200134	918.753113	9635.206055	9942.744141	103.528252
651.533020	916.301086	9588.542969	9920.379883	103.826424
651.865845	933.167786	9510.301758	9862.274414	104.103615
652.198608	941.192566	9457.844727	9806.399414	104.092628
652.531433	937.774658	9426.191406	9752.901367	103.848892
652.864136	927.892395	9403.901367	9730.833008	103.857140
653.196777	1185.202759	9667.452148	10001.889648	103.942795
653.529358	1196.868286	9653.409180	9961.246094	103.640221
653.861938	1190.478149	9599.911133	9895.191406	103.511299
654.194519	931.681824	9252.174805	9517.434570	103.188026
654.526978	924.623047	9192.955078	9480.655273	103.479546
654.859375	930.641602	9146.367188	9422.328125	103.358932
655.191833	929.229797	9085.366211	9381.461914	103.630348
655.524170	925.440369	9030.530273	9314.291992	103.501030
655.856445	922.616882	8974.729492	9241.846680	103.317352
656.188660	924.623047	8960.090820	9212.719727	103.143921
656.520874	922.765442	8906.444336	9166.058594	103.251816
656.853088	922.765564	8922.493164	9200.014648	103.469139
657.185181	920.090637	8893.589844	9174.676758	103.525261
657.517212	923.508484	8897.600586	9199.344727	103.784050
657.849243	929.081238	8904.808594	9226.688477	104.035744
658.181274	926.777832	8962.245117	9325.511719	104.520798
658.513123	919.719055	9036.473633	9409.845703	104.600021
658.844971	911.025696	9117.092773	9493.510742	104.587067
659.176819	910.059753	9202.168945	9585.942383	104.628174
659.508667	917.861572	9318.006836	9690.336914	104.432426
659.840393	920.833679	9416.161133	9804.244141	104.568192
660.172058	921.502380	9508.816406	9875.575195	104.270935
660.503662	919.050354	9566.995117	9927.438477	104.167969
660.835266	918.530273	9606.821289	9936.428711	103.793694
661.166931	923.359924	9568.184570	9887.090820	103.688988
661.498413	922.542664	9530.809570	9815.462891	103.306747
661.829773	927.892395	9437.262695	9717.085938	103.288414
662.161194	930.047119	9335.764648	9588.394531	103.005455
662.492615	921.948181	9186.491211	9428.866211	102.932709
662.823975	920.610657	9022.282227	9238.503906	102.668861
663.155212	913.329041	8856.141602	9054.010742	102.491173
663.486450	920.907898	8691.784180	8875.534180	102.364601
663.817627	922.096741	8539.240234	8731.238281	102.520607
664.148743	922.096863	8409.581055	8604.403320	102.601974
664.479858	921.725281	8298.945313	8498.522461	102.705315
664.810913	920.833679	8211.639648	8406.981445	102.679291
665.141907	920.610840	8158.958984	8322.573242	102.260384
665.472778	925.291809	8078.637207	8245.150391	102.327766
665.803711	924.474548	8049.584473	8197.819336	102.080460
666.134583	923.137024	7989.177246	8163.045410	102.460617
666.465454	919.496094	7986.650391	8134.662109	102.094360
666.796143	916.524109	7931.666504	8106.872559	102.497543
667.126831	919.719055	7911.976563	8084.284668	102.464272
667.457458	920.684998	7883.666504	8067.343750	102.637909
667.788147	919.124695	7868.063965	8027.442871	102.293571
668.118774	924.177246	7825.191406	7998.836426	102.516228
668.449219	921.725281	7797.104004	7996.979004	102.907112
668.779663	925.068848	7789.005859	8002.700684	103.113297
669.110107	919.941956	7789.600098	7996.755859	103.015518
669.440552	926.703552	7747.990723	7959.232910	103.096809
669.770874	927.297913	7716.783691	7915.542969	102.927460
670.101135	927.297913	7701.253906	7875.048340	102.565628
670.431396	921.428040	7688.399902	7837.228027	102.199333
670.761597	922.022461	7644.858887	7807.209473	102.414909
671.091797	927.297913	7601.763184	7785.810547	102.757484
671.421875	920.090576	7557.106934	7743.532715	102.808876
671.751892	919.941956	7541.355469	7710.988281	102.561882
672.081909	914.815186	7510.073730	7665.291504	102.353477
672.411865	918.233093	7493.429688	7617.812012	101.891693
672.741821	920.982239	7433.095703	7535.558594	101.573418
673.071716	917.935852	7395.275391	7490.308594	101.467163
673.401550	922.542664	7346.532715	7466.829590	101.872620
673.731262	917.044189	7327.808594	7460.810547	102.074669
674.060974	913.254700	7281.666504	7420.761230	102.184135
674.390625	914.220703	7250.236816	7389.925781	102.204681
674.720276	916.152588	7205.283691	7352.031250	102.333359
675.049927	917.935852	7169.915527	7320.675781	102.411400
675.379395	909.762512	7110.993652	7276.168457	102.663582
675.708923	906.567566	7059.130371	7204.911621	102.369438
676.038330	909.836914	7020.270020	7149.259277	102.110970
676.367737	913.031921	7004.592285	7119.834473	101.891830
676.697083	915.855408	6986.759277	7123.178223	102.247093
677.026428	917.341370	6966.771973	7109.209473	102.354561
677.355652	912.140198	6953.992188	7070.275391	101.924629
677.684875	914.443604	6948.122559	7084.244629	102.256035
678.013977	909.093750	6942.326172	7071.390137	102.139221
678.343079	915.260986	6930.808594	7093.681152	102.707520
678.672180	915.483887	6924.121094	7077.482910	102.552353
679.001221	919.867676	6930.734375	7097.990723	102.782570
679.330139	923.285645	6929.694824	7130.386719	103.341293
679.659058	923.211243	6948.938965	7164.193848	103.572266
679.987976	926.034851	6982.598145	7222.670410	103.963837
680.316772	922.096741	7041.074219	7256.775391	103.525116
680.645630	916.895569	7102.746094	7294.818359	103.105026
680.974304	908.350769	7159.364746	7344.601563	102.963310
681.302979	909.836853	7211.970703	7379.968750	102.665733
681.631653	909.242432	7244.068848	7407.015137	102.572227
681.960266	917.267090	7288.650879	7425.591309	102.149307
682.288757	916.821289	7321.566895	7432.203613	101.727417
682.617249	921.725281	7330.929199	7418.681152	101.369156
682.945679	915.781006	7286.050293	7352.253906	101.039253
683.274109	919.273254	7215.239746	7305.666504	101.436264
683.602478	921.205078	7148.144531	7239.685547	101.470078
683.930725	930.047058	7091.451660	7186.931152	101.549637
684.259033	927.372253	7020.714844	7114.708496	101.542564
684.587280	924.474365	6959.786621	7023.167969	101.050163
684.915344	919.198975	6875.676270	6919.886719	100.742218
685.243469	913.254700	6817.497559	6843.057129	100.432899
685.571533	911.620117	6732.569824	6786.438965	100.925438
685.899536	911.174316	6651.951172	6737.919434	101.497505
686.227539	917.341492	6572.224121	6661.685059	101.582016
686.555420	920.833679	6520.732422	6629.362793	101.939865
686.883301	919.347656	6499.185059	6595.554688	101.727104
687.211121	922.319641	6505.723145	6576.979004	101.276207
687.538940	926.554993	6507.134766	6569.994629	101.126404
687.866638	922.245422	6526.304688	6569.029297	100.762390
688.194336	917.712952	6507.803223	6590.205566	101.474075
688.521973	908.276428	6517.908691	6558.775391	100.728508
688.849609	911.322937	6513.673340	6565.982910	100.933708
689.177063	915.112305	6519.320313	6535.221191	100.283730
689.504578	921.725281	6494.949219	6521.847168	100.482628
689.832031	919.941956	6445.463379	6460.621094	100.274323
690.159485	920.090637	6364.919922	6389.588379	100.453064
690.486816	923.731445	6280.065918	6305.849121	100.481361
690.814087	931.161804	6200.265137	6220.697754	100.387779
691.141296	927.149353	6135.621582	6144.760254	100.175461
691.468506	917.787170	6038.507813	6071.795410	100.650055
691.795715	915.483826	5929.208496	5995.857910	101.329338
692.122803	915.409485	5836.404297	5910.632813	101.508408
692.449829	909.613953	5786.770020	5840.490723	101.101479
692.776855	913.997803	5738.324707	5772.132813	100.700775
693.103821	914.963684	5690.474121	5711.798828	100.446541
693.430664	917.267090	5606.511719	5647.526855	100.874664
693.757568	917.192688	5548.630371	5603.019531	101.174347
694.084351	914.666443	5486.066895	5557.100098	101.553864
694.411133	917.638489	5462.958984	5512.667480	101.093620
694.737854	911.768738	5411.913086	5468.160156	101.249893
695.064575	909.168152	5373.943848	5442.228027	101.529396
695.391174	914.889343	5333.598145	5413.398926	101.805977
695.717773	914.592224	5332.854980	5396.903809	101.449638
696.044250	919.198975	5329.362793	5389.324707	101.359627
696.370789	918.233093	5322.377441	5386.427246	101.454308
696.697205	919.050354	5324.234863	5396.309082	101.636124
697.023621	921.725281	5347.640625	5432.420410	101.915527
697.349915	920.016296	5398.092773	5516.679688	102.648163
697.676208	915.335205	5461.918457	5603.019531	103.103462
698.002380	913.180420	5545.286621	5697.606934	103.288361
698.328674	914.294983	5662.089844	5810.250000	103.120613
698.654724	919.496155	5774.807129	5924.082031	103.074463
698.980896	923.211243	5890.125488	6046.978516	103.157959
699.306946	923.359863	5983.895996	6127.819824	102.844040
699.632935	920.833557	6064.439941	6200.710938	102.649330
699.958862	914.592102	6127.522949	6243.360840	102.222130
700.284729	909.019470	6158.878418	6266.097656	102.042328
700.610596	915.260925	6158.061035	6226.939453	101.313774
700.936340	915.855286	6092.302734	6141.343262	100.947380
701.262146	919.347473	5987.685059	6008.341309	100.407555
701.587830	916.301086	5843.611816	5875.338379	100.643890
701.913513	924.102966	5701.768066	5728.442871	100.558327
702.239075	918.976074	5542.760254	5575.081543	100.699020
702.564697	918.604492	5397.943848	5411.467285	100.301910
702.890137	919.867737	5259.369629	5253.351074	99.861305
703.215698	927.298035	5138.107422	5130.751465	99.825310
703.541016	922.394043	5026.728027	5028.956543	100.054298
703.866455	921.799561	4926.270508	4952.276855	100.649429
704.191711	924.920227	4851.150391	4879.459473	100.721024
704.517029	925.366028	4792.748047	4822.841309	100.778130
704.842163	923.508545	4746.605957	4768.079590	100.561684
705.167419	917.118469	4710.940918	4731.226074	100.534691
705.492493	921.873779	4681.962891	4696.229004	100.379410
705.817566	924.771667	4636.712402	4655.882813	100.516449
706.142578	932.350525	4596.068848	4608.626465	100.342758
706.467590	932.424805	4561.741699	4586.335449	100.677643
706.792480	920.536377	4559.734863	4576.453613	100.459404
707.117371	911.843018	4550.744629	4572.737793	100.604393
707.442200	914.146423	4549.927246	4581.951660	100.880814
707.766907	916.003906	4549.406738	4581.951172	100.895699
708.091675	912.437439	4558.323242	4585.814941	100.754044
708.416321	913.551941	4563.895996	4575.189941	100.309395
708.741028	917.712891	4579.425293	4577.047852	99.935074
709.065552	927.818054	4609.146484	4589.381836	99.463112
709.390137	927.669434	4610.929688	4595.994629	99.594513
709.714600	927.520813	4615.981934	4618.434082	100.066483
710.039063	920.907898	4615.313477	4631.659668	100.442459
710.363403	918.901794	4648.601074	4667.474121	100.506020
710.687744	915.483887	4688.204590	4698.310059	100.267853
711.012085	915.706726	4733.603516	4748.018555	100.377563
711.336304	916.747009	4773.727051	4785.615234	100.308228
711.660461	918.901794	4819.125488	4824.995605	100.150505
711.984619	923.062683	4848.846680	4846.395020	99.937553
712.308716	917.638611	4869.354492	4870.172363	100.020699
712.632751	915.706726	4870.246094	4871.583984	100.033829
712.956726	916.152588	4862.369629	4865.416016	100.077194
713.280701	915.409607	4860.289551	4842.902832	99.559258
713.604553	914.220703	4822.915527	4797.132324	99.340363
713.928467	916.152588	4790.147949	4752.179199	99.019905
714.252258	913.329102	4739.250488	4685.381348	98.591995
714.575989	916.078308	4682.334473	4657.666504	99.345024
714.899719	911.099915	4608.403320	4608.329102	99.997993
715.223267	920.759277	4542.051270	4577.196289	100.970512
715.546936	922.691223	4503.934082	4515.599121	100.325729
715.870422	917.341309	4481.345703	4473.618652	99.783195
716.193970	904.932800	4461.135254	4436.467285	99.306343
716.517395	903.075195	4426.212891	4407.711914	99.474869
716.840820	910.059753	4390.547852	4380.591309	99.713936
717.164124	913.254700	4348.492676	4357.779785	100.270348
717.487488	911.694336	4320.034668	4318.622559	99.958572
717.810730	907.236267	4272.480469	4276.641602	100.123650
718.133972	915.706787	4235.031738	4209.694824	99.236687
718.457092	924.920227	4189.559082	4174.178223	99.528862
718.780212	933.910828	4137.992676	4117.113770	99.348366
719.103210	931.681824	4071.640381	4057.522705	99.550385
719.426208	924.251465	4005.139404	3997.262939	99.744347
719.749207	919.124573	3964.941650	3949.561279	99.495033
720.072083	922.245361	3923.035156	3911.146729	99.603821
720.394958	915.558167	3880.385498	3863.890381	99.443642
720.717773	915.260925	3818.936768	3812.992920	99.795296
721.040527	915.260925	3786.689453	3764.918945	99.241821
721.363281	925.960449	3758.454346	3719.445313	98.622803
721.685913	927.818054	3734.083008	3694.182373	98.578156
722.008545	924.994568	3703.470459	3681.699951	99.216461
722.331055	921.576660	3681.699463	3670.479736	99.593506
722.653503	917.415710	3659.780273	3648.114502	99.574608
722.976013	921.651062	3638.306885	3626.641357	99.570595
723.298401	925.514709	3632.585693	3613.489990	99.294601
723.620789	926.703430	3625.824219	3588.524170	98.618065
723.943115	920.833496	3608.883057	3566.233398	98.413361
724.265381	916.895508	3581.168701	3535.843750	98.298790
724.587585	916.598328	3570.543213	3527.819092	98.390167
724.909790	905.824524	3569.205811	3523.360596	98.278687
725.231873	907.459167	3565.267578	3525.812744	98.515511
725.553894	912.660400	3578.270508	3537.255615	98.461334
725.875916	991.049622	3649.898193	3615.793213	98.717300
726.197937	994.839050	3661.786865	3629.167725	98.776909
726.519775	995.879333	3653.687744	3622.851807	98.839798
726.841675	923.805725	3600.784180	3566.976563	98.737099
727.163513	919.050293	3600.338135	3579.979492	99.240715
727.485291	911.991516	3608.140381	3605.688232	99.909050
727.806946	919.793396	3619.434326	3620.771484	100.049530
728.128662	914.592285	3645.885986	3632.883057	99.523926
728.450256	912.511780	3681.031250	3655.025146	99.060646
728.771790	907.830627	3701.687500	3678.876221	99.183517
729.093323	915.335205	3714.690186	3696.262939	99.341736
729.414795	923.136963	3723.903564	3698.343506	99.087387
729.736145	923.285645	3722.120361	3692.547852	98.943398
730.057495	919.421875	3726.355713	3690.764648	98.732033
730.378845	916.969910	3714.169922	3685.414795	98.972000
730.700134	917.192688	3708.300049	3663.941406	98.410713
731.021301	921.725281	3696.188721	3649.601318	98.320847
731.342468	920.685059	3699.309326	3644.251221	98.018509
731.663574	929.229797	3702.653076	3664.239014	98.614922
731.984680	928.412598	3710.083252	3687.272461	99.179962
732.305664	931.384583	3716.101807	3707.408447	99.687820
732.626648	926.257751	3737.129639	3719.371338	99.368225
732.947571	923.508545	3753.550781	3712.089844	98.534973
733.268433	920.982239	3755.111084	3694.851563	97.873787
733.589233	919.644775	3739.582031	3683.631836	98.015907
733.909973	918.901794	3727.321533	3670.405518	97.973381
734.230713	922.468262	3713.947266	3656.659424	97.947762
734.551331	916.524109	3691.210938	3609.923096	97.070381
734.871948	917.044189	3643.433838	3565.416016	97.138420
735.192505	910.579895	3594.096924	3519.051025	97.203453
735.513062	917.118469	3561.626709	3489.924561	97.288643
735.833435	917.861511	3517.936523	3446.828857	97.265167
736.153931	917.415710	3469.713867	3401.875732	97.342079
736.474304	914.963684	3399.944092	3352.835938	98.104286
736.794617	917.341370	3361.975342	3330.544922	98.714310
737.114807	921.799500	3347.931885	3305.207764	98.239006
737.434998	919.198914	3348.377930	3287.226563	97.482635
737.755188	914.666504	3343.994141	3266.718994	96.819069
738.075256	910.802734	3335.671875	3267.090576	97.171753
738.395325	912.734680	3334.334717	3284.625977	97.947281
738.715271	909.985413	3351.349854	3312.637939	98.414330
739.035278	917.192688	3365.095703	3333.517334	98.709984
739.355164	918.678772	3383.522705	3339.164063	98.200348
739.675049	923.731445	3396.451904	3343.548096	97.860504
739.994873	917.341309	3410.940674	3333.591553	96.898094
740.314636	909.613831	3403.584961	3322.297607	96.740646
740.634277	908.127869	3377.875977	3286.706787	96.308563
740.953979	906.344543	3337.232422	3279.647705	97.631126
741.273499	911.099915	3312.266602	3256.836914	97.691551
741.593140	918.827454	3294.508545	3234.768799	97.485367
741.912598	923.582825	3263.301514	3183.648682	96.595627
742.232117	930.864502	3230.162109	3149.023438	96.471153
742.551453	928.189636	3189.964600	3123.166016	97.046631
742.870850	932.499207	3155.933594	3096.268799	97.316551
743.190063	929.007019	3112.318115	3056.813721	97.457787
743.509338	920.610657	3074.944092	3020.703125	97.482239
743.828552	915.558167	3041.061768	2993.508057	97.762711
744.147705	904.858582	3018.919678	2976.641357	98.000137
744.466797	908.870850	2992.393799	2954.945068	98.202621
744.785828	912.734558	2986.375000	2936.592041	97.599251
745.104858	925.886230	2964.827148	2901.149658	96.876930
745.423706	922.765442	2934.734375	2884.580078	97.507202
745.742615	919.867676	2903.304443	2856.122314	97.621193
746.061401	921.428040	2879.899170	2858.648438	98.914932
746.380249	925.068848	2869.496826	2849.657959	98.979706
746.698975	928.635437	2859.911377	2840.370117	98.988167
747.017639	928.115295	2860.803467	2821.719971	97.977768
747.336304	928.189514	2852.555664	2793.782227	96.945831
747.654907	920.090576	2838.066650	2789.844482	97.485779
747.973389	916.746887	2823.726318	2787.541016	98.102478
748.291931	917.564270	2815.924561	2783.751709	98.305229
748.610352	921.873840	2828.630127	2782.339844	97.572304
748.928711	929.452698	2835.020264	2788.061279	97.535698
749.247070	926.852112	2842.004883	2799.726563	97.792435
749.565308	927.892395	2836.729492	2808.717041	98.532486
749.883545	917.564270	2832.568359	2795.416992	98.059982
750.201782	917.341492	2823.949219	2795.714111	98.519089
750.519836	915.260925	2823.726318	2771.491455	97.262993
750.837952	920.462097	2822.537354	2761.832275	96.808479
751.155884	917.044189	2818.896729	2731.887939	95.425049
751.473877	920.759277	2794.971436	2738.055420	96.963203
751.791809	924.325867	2769.114014	2721.782959	97.434334
752.109619	929.675598	2752.024414	2721.040039	98.299759
752.427490	924.623047	2752.024170	2697.783203	97.031799
752.745300	915.409485	2755.516357	2695.405518	96.733299
753.062988	919.793396	2742.141846	2677.572998	96.456833
753.380615	918.753113	2723.046143	2667.690674	96.932014
753.698303	924.325867	2705.956299	2649.783936	96.847137
754.015808	917.267090	2715.690186	2646.588623	96.157661
754.333374	916.152588	2728.469971	2645.176758	95.404053
754.650757	915.855286	2722.080322	2643.542236	95.651810
754.968262	921.205078	2708.556885	2640.347412	96.183769
755.285583	925.068848	2697.114258	2644.433838	97.027138
755.602905	915.558105	2695.925537	2648.297607	97.324829
755.920105	910.282532	2682.328369	2651.715576	98.272461
756.237305	914.517883	2676.235596	2637.597900	97.806816
756.554443	915.706726	2661.672119	2625.932373	97.953011
756.871582	918.976013	2654.316162	2607.579834	97.306793
757.188599	910.951355	2640.570068	2609.883545	98.225822
757.505615	921.948181	2636.632080	2613.598389	98.656677
757.822510	924.474548	2660.334717	2619.691162	97.658592
758.139465	927.075012	2671.628662	2624.966553	97.325272
758.456238	925.589050	2697.337158	2645.102783	97.051819
758.773010	918.158752	2700.606689	2674.155029	98.515991
759.089783	916.895569	2711.974854	2704.321777	99.573662
759.406433	911.174255	2707.071045	2706.625244	99.975174
759.723145	916.969910	2721.782959	2706.550781	99.156021
760.039673	922.245361	2747.045898	2697.857422	97.304443
760.356201	919.942078	2773.274658	2704.247559	96.275513
760.672668	917.341370	2767.999023	2717.844971	97.289932
760.989136	916.449768	2748.680420	2707.591553	97.757439
761.305481	919.793396	2736.420654	2701.721436	98.089912
761.621826	923.434265	2748.085938	2691.095703	96.876648
761.938049	926.257629	2760.940674	2708.780029	97.156967
762.254333	925.886169	2782.190674	2733.225586	97.362228
762.570496	919.644714	2805.744873	2770.748779	98.144524
762.886597	913.254700	2856.939453	2816.518799	97.920410
763.202637	913.329102	2924.257813	2883.317139	97.964088
763.518677	922.616943	3018.622314	2969.210938	97.642593
763.834656	923.879944	3127.178711	3100.057861	98.769081
764.150574	918.530212	3277.270264	3241.158936	98.469040
764.466370	916.746887	3415.027344	3368.736572	98.147095
764.782288	918.678772	3513.478516	3446.605713	97.422813
765.097961	930.567200	3557.539795	3485.837891	97.270554
765.413696	925.440369	3548.549072	3465.330322	96.827477
765.729309	918.233093	3500.252686	3386.941162	95.611519
766.044861	919.793396	3383.968750	3270.805908	95.407677
766.360474	921.799622	3235.437744	3124.280518	95.195564
766.675903	926.703613	3086.832275	2991.055908	95.566170
766.991394	930.195801	2953.087158	2870.983154	95.941254
767.306763	933.613708	2848.765869	2786.872314	96.768219
767.622131	932.722107	2751.355469	2701.349609	97.250359
767.937378	924.028625	2670.662598	2621.771729	97.200851
768.252625	917.267090	2613.301025	2557.425537	96.705521
768.567810	916.449707	2556.533936	2512.100830	97.290802
768.882996	923.359863	2515.593018	2479.630371	97.741371
769.197998	928.040955	2466.479248	2443.816406	98.526894
769.513062	934.579590	2434.528564	2399.383545	97.656921
769.828064	926.109131	2385.191650	2360.523193	98.309319
770.142944	927.892395	2356.139404	2328.944336	98.095909
770.457825	919.719055	2327.086914	2312.375000	98.954651
770.772705	920.833679	2306.653564	2280.350342	98.101974
771.087402	917.861511	2288.077881	2262.146240	98.107475
771.402100	925.514648	2266.158691	2234.208496	97.616806
771.716736	921.873840	2248.771973	2216.821533	97.592094
772.031372	922.914063	2220.462646	2179.224365	96.821831
772.345947	919.496155	2200.252197	2167.558838	97.447342
772.660461	923.359863	2197.502930	2145.565430	95.923729
772.974854	920.090576	2182.568115	2137.168945	96.403961
773.289246	915.558105	2162.060547	2116.364502	96.334061
773.603638	911.174255	2144.079346	2111.832031	97.384445
773.917908	917.489990	2126.023682	2096.599854	97.565331
774.232178	925.886230	2120.005127	2078.767334	96.546593
774.546265	931.384583	2099.646484	2068.587646	97.341446
774.860474	923.805847	2096.897217	2064.055420	97.200409
775.174561	917.564392	2085.900146	2064.947021	98.206581
775.488586	911.248535	2074.754883	2043.473633	97.311470
775.802551	914.369202	2047.040039	2025.046509	98.058250
776.116516	910.877136	2030.173340	2002.161133	97.497337
776.430359	910.654114	2019.399414	1995.399536	97.835388
776.744202	908.127869	2020.216675	1983.585571	96.706100
777.057922	913.997742	2008.625366	1989.306763	98.235146
777.371704	919.719055	1998.668945	1985.740234	98.801735
777.685303	921.948181	1987.003418	1980.464844	99.386078
777.998962	923.211243	1975.635132	1963.375122	98.835068
778.312500	919.793274	1967.090454	1954.607422	98.808083
778.626038	918.307312	1970.656860	1948.217407	97.867683
778.939453	914.666504	1976.898071	1942.793335	96.789330
779.252869	914.889404	1974.223267	1936.700317	96.457870
779.566223	916.078186	1959.362793	1944.873657	98.611191
779.879578	922.691162	1954.013062	1949.406250	99.553307
780.192749	924.474426	1945.468140	1949.109009	100.356598
780.505920	926.331970	1943.610474	1938.112305	99.459518
780.819031	920.239075	1932.316406	1925.555054	99.331932
781.132141	930.567200	1943.833374	1923.251465	97.968758
781.445190	932.053284	1934.322754	1925.109009	99.080711
781.758118	939.706543	1933.505371	1929.270142	99.573837
782.071045	932.350586	1918.199097	1906.236206	98.786537
782.383911	925.737610	1919.462280	1889.518188	96.986679
782.696838	923.880066	1905.939087	1868.787720	96.216995
783.009583	926.183411	1897.542969	1864.255249	96.573082
783.322266	930.641602	1872.057007	1842.633179	96.874512
783.634888	923.731445	1854.893066	1830.447632	97.374741
783.947510	923.508545	1832.230835	1816.404297	98.258377
784.260132	924.251526	1829.481567	1817.667480	98.694908
784.572571	923.359924	1820.342407	1802.881348	98.053352
784.885010	914.369324	1817.221680	1796.788574	97.736824
785.197449	911.248596	1807.042114	1785.940430	97.644356
785.509766	917.415771	1805.704712	1784.008423	97.557518
785.822083	922.022461	1793.667847	1777.543945	98.150177
786.134277	925.068848	1789.358276	1779.847290	98.899559
786.446533	923.954285	1786.832031	1779.847290	99.190529
786.758606	918.604492	1778.658569	1782.968140	100.501083
787.070740	915.632507	1783.711060	1783.042358	99.922966
787.382690	911.025635	1791.512817	1792.032837	100.059059
787.694641	914.740723	1813.877930	1795.822388	97.991905
788.006653	919.570496	1825.469238	1811.945923	98.507195
788.318481	924.771667	1841.592896	1825.617798	98.257553
788.630310	925.960449	1856.527710	1849.320313	99.225487
788.942017	922.914063	1872.948608	1858.088013	98.435783
789.253784	922.022461	1888.998047	1876.069336	98.662971
789.565430	923.954346	1900.292114	1876.292358	97.541862
789.877014	926.629211	1901.852417	1867.524780	96.480026
790.188538	926.703552	1891.375610	1852.069702	95.925461
790.500061	924.028625	1871.685547	1837.060425	96.346237
790.811462	922.171143	1857.567993	1829.035767	96.949722
791.122925	916.226868	1833.345337	1807.413696	97.172485
791.434204	916.078308	1812.020508	1791.141479	97.669601
791.745483	916.524109	1783.116699	1760.677368	97.410622
792.056702	922.839844	1754.807251	1734.968628	97.615456
792.367920	930.047180	1742.770386	1718.473267	97.010406
792.678955	927.595215	1730.064575	1711.043091	97.629631
792.990112	926.703430	1718.101929	1707.550781	98.666771
793.301086	914.220520	1700.863647	1701.160767	100.037773
793.612122	912.511658	1687.711914	1693.804688	100.785965
793.922974	914.666504	1693.210327	1686.225952	99.102890
794.233826	927.297913	1687.860352	1675.006226	98.309921
794.544556	934.876770	1688.380737	1670.102173	97.574188
794.855286	933.242188	1684.442749	1672.257202	98.377853
795.166016	929.675598	1681.396362	1684.665649	100.434906
795.476624	923.731445	1684.665649	1691.575684	100.908096
795.787292	927.372314	1683.253906	1696.554077	101.759560
796.097778	923.211243	1701.978149	1700.640625	99.828255
796.408264	927.892395	1716.244141	1713.717773	99.679535
796.718689	925.068848	1735.562988	1726.869507	98.927383
797.029053	919.198975	1745.148071	1726.646851	97.760002
797.339355	909.465332	1749.829102	1731.625000	97.833786
797.649658	909.242371	1751.835327	1737.494751	98.298042
797.959839	912.437317	1744.999390	1729.247192	98.107986
798.270020	924.400146	1739.723999	1713.940918	96.837685
798.580078	924.697449	1726.869507	1702.201050	96.924789
798.890137	926.777832	1718.101929	1702.423828	98.018753
799.200195	922.171082	1695.811035	1699.749023	100.509018
799.510071	917.787109	1684.145508	1683.179321	99.873924
799.820007	919.421875	1665.866821	1669.805054	100.527596
800.129883	918.010071	1667.278687	1660.294312	99.067841
800.439575	921.873840	1653.161133	1647.811523	99.268463
800.749329	917.564270	1654.795898	1631.910645	96.895782
801.058960	917.192810	1642.907593	1617.644531	96.518875
801.368591	917.044250	1639.118042	1608.059448	95.698692
801.678162	922.394043	1630.573120	1601.817993	95.939568
801.987671	923.359863	1614.969604	1600.852173	97.958755
802.297119	915.260925	1608.876587	1590.078247	97.289803
802.606506	919.719055	1603.155396	1586.734741	97.597336
802.915894	923.211243	1610.882813	1577.372437	95.126976
803.225159	930.270020	1605.087280	1580.344604	96.333427
803.534424	926.406311	1593.273315	1586.585938	98.997192
803.843628	924.994568	1582.276489	1577.149414	99.219955
804.152771	929.155518	1584.356934	1578.338257	99.081398
804.461792	932.722107	1587.849243	1570.759399	97.391373
804.770874	931.310303	1587.849121	1571.502563	97.510193
805.079773	927.446594	1589.038086	1564.146606	96.237633
805.388733	925.589050	1588.220703	1568.530396	97.028465
805.697571	927.446533	1593.793457	1586.065796	98.840294
806.006470	926.629211	1596.393921	1596.393921	100.000000
806.315125	922.245422	1599.886230	1595.205078	99.309196
806.623901	913.403320	1601.743774	1589.780884	98.262070
806.932495	907.533447	1604.938599	1600.480469	99.360756
807.241150	912.883240	1608.728149	1609.025391	100.042717
807.549622	922.542542	1609.768433	1606.796265	99.567513
807.858154	924.325867	1605.161621	1597.657104	98.897751
808.166565	918.678894	1599.663208	1583.168335	97.577789
808.474915	920.462158	1590.003906	1579.007202	98.357574
808.783264	929.527039	1579.898804	1573.806030	99.063187
809.091492	932.053223	1570.165039	1568.381836	99.720551
809.399719	923.285583	1554.190063	1560.357056	100.977486
809.707825	912.957520	1541.261230	1542.747437	100.236542
810.015930	916.746887	1529.744507	1528.481445	99.793953
810.323975	920.090637	1535.688599	1519.119141	97.308395
810.632080	931.533203	1535.242798	1512.952148	96.307716
810.939880	930.418762	1537.694702	1509.905640	95.423981
811.247864	926.926514	1525.955078	1498.537231	95.422951
811.555664	918.084473	1520.456665	1509.979980	98.260765
811.863464	918.530273	1509.459839	1508.047974	99.761078
812.171143	920.090637	1513.769531	1507.899414	99.011230
812.478882	924.548828	1505.373169	1487.243164	96.878571
812.786438	914.815125	1504.778687	1484.791138	96.612068
813.094055	920.685059	1500.023315	1478.252563	96.242134
813.401489	923.508545	1502.475220	1474.389038	95.148911
813.708984	930.047180	1497.051147	1464.135132	94.194748
814.016357	926.332031	1480.258789	1469.559204	98.068413
814.323730	924.771667	1476.097778	1473.868774	99.595703
814.630981	924.994568	1467.404419	1474.091797	101.232903
814.938232	925.737610	1473.645874	1464.506714	98.331993
815.245361	921.873840	1473.200073	1459.528320	97.520203
815.552490	920.016296	1484.048218	1454.401489	94.743782
815.859619	924.474426	1484.048218	1454.327148	94.688622
816.166565	926.109070	1488.580688	1458.265259	94.610321
816.473572	924.474426	1494.450684	1464.729614	94.785561
816.780457	921.799500	1505.521851	1470.525269	94.004585
817.087341	920.833679	1501.806641	1469.856445	94.500572
817.394043	921.799500	1500.840698	1477.212280	95.919388
817.700806	920.907898	1499.577515	1475.206177	95.788383
818.007507	922.022461	1504.035767	1482.487915	96.297707
818.314209	921.353699	1513.249146	1490.884155	96.221466
818.620667	916.301086	1516.667114	1506.636353	98.329224
818.927246	917.118469	1523.428711	1514.140991	98.468155
819.233704	922.839783	1532.122070	1524.394531	98.731697
819.540161	924.548767	1549.954712	1543.341797	98.942619
819.846497	921.948181	1586.288696	1578.189819	98.780914
820.152832	916.672668	1614.821167	1614.300903	99.925476
820.458984	915.409485	1670.696777	1661.854858	98.829330
820.765259	916.078308	1734.522827	1716.392944	97.784836
821.071350	923.434265	1843.227539	1818.707642	97.334198
821.377502	923.731445	1996.439819	1967.758911	97.326309
821.683472	926.406250	2232.425049	2211.620361	98.407013
821.989441	915.483826	2570.279541	2562.626709	99.537537
822.295349	916.598328	2991.055908	3010.077393	100.916939
822.601196	917.341309	3471.274414	3515.187500	101.719429
822.907043	922.914063	3991.690674	4026.761719	101.142838
823.212769	923.211243	4509.431641	4485.729980	99.339088
823.518494	922.988342	4911.707031	4774.693359	96.564972
823.824097	923.879944	5092.856934	4836.438965	93.849380
824.129700	923.285583	5018.108887	4689.467285	91.974220
824.435242	920.239258	4818.977539	4451.029785	90.562386
824.740723	920.239258	4555.277344	4180.791016	89.697868
825.046082	923.508545	4298.857910	3915.233154	88.634514
825.351501	918.010071	3964.421875	3614.233154	88.504883
825.656799	914.666504	3600.338135	3282.694092	88.172638
825.962036	913.700623	3223.474854	2966.610352	88.879234
826.267212	919.050293	2918.164795	2711.454834	89.659927
826.572449	922.171082	2703.281494	2554.676025	91.656586
826.877502	921.502380	2602.527100	2489.215576	93.259377
827.182495	927.075012	2602.081299	2512.843750	94.672409
827.487488	927.818115	2650.675537	2577.115479	95.730347
827.792419	930.270020	2710.711670	2658.328369	97.057846
828.097290	920.982178	2779.144531	2711.157715	96.341179
828.402100	921.948059	2819.639648	2730.327881	95.293663
828.706848	922.691162	2819.268311	2678.538818	92.579819
829.011597	924.102844	2728.990479	2576.521240	91.552422
829.316223	924.846008	2614.861572	2454.590576	90.516594
829.620789	919.719055	2482.751221	2340.461426	90.896553
829.925354	922.914063	2355.098877	2232.053711	91.408569
830.229797	916.152527	2218.902100	2111.460449	91.752701
830.534302	923.062683	2075.943604	1978.310059	91.531342
830.838562	927.743713	1938.409302	1846.645508	90.920456
831.142944	933.985168	1805.333130	1737.123413	92.171928
831.447144	931.756042	1704.950195	1650.932129	93.013649
831.751404	921.205078	1646.028198	1596.319702	93.141983
832.055542	920.982178	1618.090210	1558.796875	91.494385
832.359619	913.849121	1593.719116	1539.775391	92.065582
832.663635	929.081238	1576.183594	1536.283081	93.833969
832.967651	927.223633	1582.573608	1557.013550	96.099785
833.271545	935.174072	1614.300903	1609.545532	99.299782
833.575439	922.691223	1682.064941	1672.777222	98.776924
833.879211	923.657166	1760.380005	1758.002441	99.715851
834.183044	920.090637	1856.304810	1831.339233	97.333351
834.486694	926.332031	1941.158569	1913.666626	97.290970
834.790344	935.174072	2011.746094	1977.195313	96.790665
835.093933	934.653870	2046.445679	2013.678101	97.052727
835.397522	932.647766	2057.219482	2009.739868	95.777969
835.700928	917.861511	2043.845093	1968.501953	93.308670
836.004395	916.821289	2016.947388	1924.366211	91.584496
836.307739	913.031921	1971.176880	1873.097290	90.730980
836.611023	920.387878	1911.437500	1815.141235	90.283409
836.914307	921.948181	1844.490723	1743.884766	89.094711
837.217529	922.988342	1754.881714	1672.405640	90.085739
837.520691	919.867676	1667.947388	1591.489868	89.779495
837.823730	919.793396	1574.548828	1527.292358	92.782578
838.126831	924.548767	1509.905640	1470.599243	93.285057
838.429749	917.415710	1463.614868	1432.928101	94.381760
838.732727	916.226868	1433.745239	1393.919067	92.304398
839.035522	913.180420	1418.215942	1363.232056	89.112869
839.338379	919.421814	1402.092163	1349.634644	89.131813
839.641113	914.294922	1386.117188	1346.513916	91.606316
839.943848	911.620117	1387.083130	1357.956421	93.874031
840.246460	908.870911	1391.987183	1368.953247	95.232216
840.549072	916.969910	1411.677368	1386.934570	94.998497
840.851563	925.811829	1412.791992	1394.364868	96.216042
841.154053	933.985168	1429.287109	1411.677368	96.444649
841.456482	933.836609	1434.191040	1413.683594	95.901413
841.758850	930.121521	1436.494629	1409.002563	94.570786
842.061157	922.765442	1417.101563	1392.433105	95.009781
842.363403	921.353699	1404.247070	1378.241211	94.614578
842.665588	916.821289	1383.888306	1365.832642	96.134247
842.967712	922.616882	1376.755249	1350.600586	94.240814
843.269775	923.062683	1356.619141	1322.216919	92.065109
843.571777	928.189514	1338.786377	1306.241821	92.073845
843.873840	923.211365	1302.898071	1281.201782	94.285736
844.175659	920.164856	1276.372192	1267.381470	97.475983
844.477600	920.982239	1258.762329	1245.090820	95.952545
844.779297	923.582825	1249.697388	1236.174438	95.853310
845.081116	926.926453	1244.347656	1223.319946	93.375458
845.382751	923.880066	1235.654297	1212.471802	92.564331
845.684387	918.604553	1227.778198	1201.994995	91.660606
845.985962	920.313477	1212.248901	1191.741211	92.975266
846.287537	918.976074	1206.230591	1177.846680	90.118896
846.588989	922.022461	1200.212036	1167.369995	88.194366
846.890381	915.038086	1198.280029	1173.908691	91.395576
847.191711	913.106140	1192.558716	1182.082031	96.250999
847.493042	916.821289	1192.707397	1182.527832	96.310226
847.794250	927.149353	1189.289429	1175.469116	94.727890
848.095459	930.195801	1184.088257	1166.478394	93.064049
848.396606	925.811951	1181.784790	1154.144287	89.201782
848.697693	922.319763	1172.051147	1152.063843	91.996475
848.998657	919.421875	1166.329834	1158.305176	96.749939
849.299622	921.205261	1160.534180	1165.289551	101.986961
849.600464	925.068848	1172.868530	1168.930298	98.410721
849.901367	928.858398	1172.125366	1165.066772	97.098419
850.202087	928.783997	1166.701416	1166.775635	100.031197
850.502808	923.508484	1166.552734	1162.317505	98.257423
850.803467	923.211243	1168.113159	1160.608521	96.935654
851.104065	928.783997	1170.044922	1161.648682	96.519852
851.404663	934.059570	1163.060547	1160.014038	98.669655
851.705139	932.796387	1161.574585	1159.270996	98.993088
852.005615	927.149353	1158.453735	1155.555786	98.747124
852.306030	919.198914	1154.664429	1149.686035	97.885719
852.606384	918.084412	1154.069824	1140.546753	94.269531
852.906616	917.787170	1152.286499	1140.323853	94.898643
853.206909	917.044189	1156.298950	1141.735718	93.913086
853.506958	916.375488	1157.636353	1142.552979	93.748108
853.807129	916.003967	1155.704590	1131.927612	90.080551
854.107178	918.010071	1149.537354	1123.160034	88.607254
854.407166	917.415710	1144.410522	1125.909058	91.849388
854.707092	917.341370	1145.376465	1130.590210	93.515800
855.007019	916.969910	1148.125610	1134.899780	94.278389
855.306763	916.598389	1151.617798	1133.562378	92.317474
855.606567	919.570496	1147.754150	1136.385620	95.017815
855.906250	921.725281	1153.326782	1141.215454	94.770615
856.205933	932.573486	1144.261841	1140.621094	98.280136
856.505493	933.985291	1141.289673	1132.967896	95.985718
856.805054	930.492981	1131.853394	1128.435425	98.302559
857.104492	922.839844	1136.980225	1121.376831	92.713478
857.403931	920.239258	1140.621094	1121.525269	91.335121
857.703308	921.353760	1140.546753	1123.308472	92.135567
858.002563	926.332031	1142.330078	1123.160034	91.124901
858.301819	924.400146	1135.940063	1132.447754	98.349098
858.601013	926.480652	1133.042236	1128.732666	97.913666
858.900208	919.050354	1130.813110	1140.695435	104.666695
859.199219	921.353699	1131.927612	1127.395142	97.847565
859.498291	922.765442	1132.373535	1123.902954	95.958847
859.797302	922.914063	1131.110229	1111.940308	90.792374
860.096191	921.873840	1144.559082	1120.039185	88.988991
860.395020	913.700500	1145.896606	1118.033081	88.000000
860.693787	916.152588	1135.494141	1117.587280	91.836082
860.992554	919.496277	1122.416870	1114.243652	95.972206
861.291260	924.771667	1120.559326	1113.946289	96.622345
861.589844	924.771667	1128.881226	1120.336426	95.813622
861.888428	924.251526	1135.642700	1123.159912	94.094933
862.186890	924.102966	1136.980225	1136.014282	99.546242
862.485413	921.502380	1137.203247	1138.540649	100.620026
862.783813	922.245361	1133.265015	1136.831665	101.690201
863.082153	920.313477	1137.723267	1130.367310	96.616547
863.380371	924.994568	1139.060669	1131.556152	96.494301
863.678589	919.273254	1146.119507	1128.807007	92.368179
863.976746	922.988342	1144.187622	1128.807007	93.046715
864.274902	915.855408	1139.283569	1126.875122	94.446335
864.572937	914.666504	1138.317627	1130.664551	96.578117
864.870911	913.997803	1134.231079	1129.178589	97.705849
865.168884	915.706726	1137.351685	1123.680054	93.831741
865.466736	918.901672	1132.522095	1122.491211	95.304344
865.764587	913.626160	1143.147339	1117.884521	88.993256
866.062317	908.870789	1147.605591	1118.701782	87.892921
866.360107	911.025635	1149.834595	1122.714233	88.643494
866.657715	913.700500	1138.540527	1125.537598	94.216812
866.955322	911.248535	1137.351685	1127.098022	95.465050
867.252808	907.607727	1140.992554	1118.776001	90.480721
867.550293	908.127869	1147.234009	1119.370483	88.346794
867.847717	915.706726	1147.531372	1115.803833	86.313995
868.145081	916.152527	1133.413696	1120.262085	93.946632
868.442383	912.808899	1129.252808	1124.051636	97.596985
868.739624	912.437317	1128.138306	1129.104126	100.447762
869.036804	920.982178	1133.413696	1129.475708	98.146233
869.333984	931.830383	1137.574585	1127.395142	95.052376
869.631042	934.505310	1133.190796	1124.200195	95.474960
869.928101	929.081238	1137.648926	1135.568481	99.002510
870.224976	920.759277	1138.837769	1139.952271	100.511055
870.521851	921.205078	1147.308228	1145.079224	99.014168
870.818726	920.090576	1143.296021	1126.577881	92.509979
871.115479	921.576660	1135.791382	1118.404541	91.883453
871.412231	920.090576	1125.166138	1115.135254	95.108688
871.708862	920.759277	1125.166138	1118.181641	96.583038
872.005493	922.393982	1134.973999	1125.463257	95.526039
872.302063	929.527039	1146.268066	1123.680054	89.578339
872.598572	926.554871	1153.103882	1132.447754	90.882271
872.895020	916.523987	1156.298950	1131.630493	89.711830
873.191406	914.963684	1160.905640	1137.203125	90.362556
873.487671	917.192688	1162.763306	1142.032837	91.558243
873.783997	924.920227	1157.710693	1143.593140	93.935509
874.080200	923.136963	1153.029663	1142.404419	95.378174
874.376343	919.198914	1153.698364	1129.624268	89.733833
874.672424	922.542542	1162.688965	1130.813110	86.726494
874.968445	923.136963	1162.986206	1134.825317	88.258919
875.264465	925.886230	1173.611450	1144.707642	88.332314
875.560364	919.496155	1180.818848	1152.360962	89.110062
875.856201	911.471497	1182.082031	1146.862427	86.985130
876.152039	907.682068	1178.812866	1151.766479	90.024597
876.447754	909.762512	1170.936646	1139.060669	87.795128
876.743469	915.855286	1173.165771	1145.599365	89.286713
877.039063	918.604492	1166.924316	1146.416626	91.741417
877.334595	923.359863	1164.992310	1147.308228	92.681412
877.630127	928.783997	1166.626953	1148.199829	92.252396
877.925537	935.991394	1171.902466	1140.695313	86.771645
878.221008	940.226563	1176.657837	1149.908813	88.686340
878.516296	933.465088	1180.224487	1154.441284	89.551277
878.811646	934.505371	1193.375977	1162.020142	87.887451
879.106812	929.155518	1205.264404	1163.134766	84.741661
879.401978	926.183411	1217.227173	1173.611450	85.014030
879.697083	925.143250	1221.685425	1186.391479	88.098167
879.992126	922.468262	1239.592285	1210.614136	90.862206
880.287109	916.821289	1271.468262	1243.233032	92.038498
880.582031	906.938965	1335.219849	1300.817749	91.967400
880.876892	910.877014	1429.435669	1394.141968	93.193886
881.171753	919.570496	1593.050293	1543.193237	92.597099
881.466492	927.149353	1823.314453	1766.918823	93.707001
881.761230	929.527039	2116.141602	2034.482788	93.118347
882.055786	925.886230	2437.054932	2328.498779	92.816414
882.350403	922.988464	2727.429932	2571.988525	91.385620
882.644958	918.381653	2975.155273	2751.801514	89.140579
882.939453	917.489990	3112.763916	2825.137939	86.897949
883.233826	917.415710	3159.351563	2820.531250	84.887154
883.528137	918.307373	3109.494385	2764.803955	84.269234
883.822449	917.118469	3049.011963	2699.046143	83.584274
884.116577	911.397217	2969.508057	2615.084229	82.779167
884.410828	911.843018	2856.493408	2515.741455	82.477470
884.704956	921.353699	2671.108643	2368.250732	82.691406
884.999023	926.332031	2431.407959	2176.178223	83.042068
885.292969	917.935791	2188.958252	1964.266724	82.321983
885.586914	907.013367	1955.722046	1770.931030	82.379181
885.880798	904.487061	1785.717407	1629.235718	82.242813
886.174622	912.140198	1655.316040	1535.317017	83.853210
886.468384	923.508545	1566.301392	1459.082520	83.319839
886.762085	927.446594	1494.302124	1407.590820	84.703102
887.055664	926.406433	1437.088867	1365.015259	85.886803
887.349304	924.028625	1396.519653	1340.272583	88.095634
887.642822	917.341370	1366.947266	1320.730957	89.720703
887.936340	913.774902	1344.210571	1294.650757	88.486130
888.229736	906.493164	1324.520264	1270.205078	87.006783
888.523071	918.976013	1302.378052	1250.291870	86.414734
888.816284	922.468262	1278.675415	1234.019531	87.463509
889.109619	931.087402	1261.511597	1218.564575	87.002457
889.402710	929.675598	1240.483887	1206.081665	88.931366
889.695862	928.783997	1222.056763	1191.295532	89.511047
889.988892	921.205139	1214.775269	1177.326782	87.243767
890.281921	910.356934	1222.205444	1159.345459	79.842781
>>>>>End Processed Spectral Data<<<<<
