Jaz Data File
++++++++++++++++++++++++++++++++++++
Date: Fri Jun 04 16:09:23 2021
User: jaz
Dark Spectrum Present: Yes
Reference Spectrum Present: Yes
Processed Spectrum Present: Yes
Spectrometers: JAZA3586
Integration Time (usec): 33500 (JAZA3586)
Spectra Averaged: 10 (JAZA3586)
Boxcar Smoothing: 1 (JAZA3586)
Correct for Electrical Dark: No (JAZA3586)
Strobe/Lamp Enabled: Yes (JAZA3586)
Correct for Detector Non-linearity: No (JAZA3586)
Correct for Stray Light: No (JAZA3586)
Number of Pixels in Processed Spectrum: 2048
>>>>>Begin Processed Spectral Data<<<<<
W	D	R	S	P
191.335022	0.000000	0.000000	0.000000	0.000000
191.713211	343.427155	341.792572	337.557220	359.109070
192.091385	684.030823	687.671692	679.349792	-128.569031
192.469528	1030.727417	1035.779907	1023.148499	-150.003632
192.847641	1039.866577	1050.417603	1038.752075	-10.562973
193.225739	1060.745605	1062.231689	1042.541504	-1224.971191
193.603790	1066.318359	1074.194458	1048.337036	-228.302414
193.981842	1072.485474	1075.606201	1048.782837	-759.522766
194.359863	1070.479370	1071.445313	1060.968628	-984.607605
194.737854	1075.234619	1068.770264	1064.609375	164.366638
195.115829	1072.708374	1068.621704	1069.141846	87.272240
195.493774	1072.931274	1069.661987	1068.027222	150.003738
195.871704	1075.457642	1070.850952	1077.240845	-38.708992
196.249603	1074.120117	1066.764160	1077.166626	-41.415531
196.627457	1074.788940	1071.370972	1076.795044	-58.692856
197.005310	1076.497803	1067.953003	1072.485474	46.956387
197.383133	1086.826050	1072.559814	1072.634155	99.478905
197.760910	1090.986816	1074.343140	1067.878784	138.839706
198.138687	1086.008545	1084.745483	1065.575317	1617.753906
198.516449	1084.745239	1086.751587	1057.179077	-1373.947388
198.894180	1080.955933	1086.900269	1063.271973	-297.492615
199.271866	1083.779419	1085.191284	1062.008789	-1541.976440
199.649536	1076.051880	1079.024048	1067.878662	-274.991791
200.027191	1073.971558	1076.646484	1071.147949	-105.558342
200.404816	1073.897339	1070.776489	1062.528809	364.276764
200.782410	1070.776489	1086.751465	1067.953003	-17.674433
201.159988	1066.541138	1100.126099	1066.318359	-0.663328
201.537537	1067.729980	1109.636841	1083.036499	36.525089
201.915070	1074.491577	1104.138306	1085.488403	37.092884
202.292557	1071.668213	1100.126099	1088.832153	60.313477
202.670029	1067.953003	1100.200317	1091.952759	74.424042
203.047485	1059.631226	1104.584229	1089.277954	65.950493
203.424911	1058.665161	1102.801025	1086.974487	64.141319
203.802292	1056.733276	1100.869141	1082.813599	59.090996
204.179688	1056.881836	1098.565674	1080.881714	57.575981
204.557037	1057.550659	1103.766846	1082.144897	53.215637
204.934357	1058.145020	1107.184814	1081.030396	46.666950
205.311661	1058.665161	1103.692505	1079.767212	46.864967
205.688934	1055.247192	1099.085815	1085.637085	69.322189
206.066177	1052.052246	1093.661743	1086.603027	83.035805
206.443390	1047.445435	1095.222046	1094.256104	97.978210
206.820587	1056.361816	1095.073486	1087.643188	80.806053
207.197769	1059.928345	1098.194336	1087.346069	71.650368
207.574921	1066.169800	1103.692505	1081.921875	41.980118
207.952042	1063.420532	1104.584351	1080.361572	41.155170
208.329147	1056.436035	1103.395386	1076.274902	42.246895
208.706223	1063.123413	1103.692627	1079.692871	40.842442
209.083267	1054.578613	1103.246826	1078.429565	49.007248
209.460297	1054.949951	1099.160156	1079.098267	54.621586
209.837280	1043.284424	1088.163330	1076.720703	74.503326
210.214264	1052.720947	1086.082886	1073.228516	61.469955
210.591217	1056.138916	1094.181885	1077.760986	56.835918
210.968124	1055.692993	1100.869263	1077.612427	48.519794
211.345016	1052.572388	1105.178711	1082.590698	57.062172
211.721893	1052.720947	1099.160278	1082.070435	63.199635
212.098724	1050.714844	1098.342896	1074.640137	50.233616
212.475555	1046.182373	1094.404785	1073.228394	56.085999
212.852356	1044.399048	1095.816528	1073.748657	57.080994
213.229126	1048.560059	1094.256226	1073.897217	55.447010
213.605865	1058.367920	1096.559570	1073.599976	39.883209
213.982590	1062.974731	1090.838257	1072.188232	33.066528
214.359283	1061.265747	1091.952759	1080.584473	62.954079
214.735931	1055.544434	1087.346069	1079.618530	75.700813
215.112579	1056.807617	1095.370728	1073.302856	42.774658
215.489197	1064.460815	1086.677246	1068.695923	19.062952
215.865799	1063.940552	1086.603027	1075.160400	49.508488
216.242355	1061.339966	1088.906372	1076.497803	54.986626
216.618896	1057.624878	1097.674194	1074.714722	42.671997
216.995407	1060.522705	1098.045776	1064.757935	11.287002
217.371902	1057.476318	1099.234497	1065.352417	18.861212
217.748367	1058.739502	1094.627686	1069.810547	30.848719
218.124802	1056.287476	1087.940430	1071.445190	47.887203
218.501236	1058.590942	1084.448120	1067.358521	33.907715
218.877609	1050.863403	1099.160156	1071.519531	42.769184
219.253983	1054.504272	1108.225098	1068.844604	26.694178
219.630295	1051.011963	1108.225098	1077.686646	46.623356
220.006592	1052.943848	1099.754517	1069.884888	36.190552
220.382889	1046.405273	1098.342773	1075.606201	56.223206
220.759140	1047.371216	1098.565674	1076.423462	56.748810
221.135391	1049.228638	1093.810303	1078.726929	66.166870
221.511581	1057.550659	1094.330444	1078.727051	57.576168
221.887772	1063.866333	1092.175659	1073.897217	35.433144
222.263931	1068.547485	1092.547241	1078.801147	42.724026
222.640060	1064.312134	1093.364624	1077.315063	44.756680
223.016159	1062.603149	1092.472900	1080.584473	60.199108
223.392212	1058.888062	1095.073364	1069.810547	30.184866
223.768265	1054.950073	1091.358398	1068.175903	36.326389
224.144302	1045.513550	1091.729858	1065.055176	42.282967
224.520294	1035.854248	1088.460571	1069.959106	64.830338
224.896286	1039.717896	1093.513184	1079.692749	74.309212
225.272217	1047.222412	1099.234497	1084.373901	71.428574
225.648148	1057.104614	1109.785400	1088.089111	58.815556
226.024048	1051.160645	1106.813354	1080.807495	53.271172
226.399902	1049.377319	1105.475830	1078.801270	52.450500
226.775772	1042.095703	1100.274780	1076.126343	58.492916
227.151581	1050.789063	1107.259155	1074.194458	41.447418
227.527374	1047.222534	1105.178711	1072.336914	43.333397
227.903137	1049.971802	1104.435669	1072.559814	41.473392
228.278870	1051.160522	1108.968140	1074.120239	39.717461
228.654572	1059.408203	1119.593384	1076.274902	28.024672
229.030273	1070.925171	1129.772827	1075.309082	7.449594
229.405930	1067.284302	1135.271362	1075.160400	11.584702
229.781555	1060.374146	1136.757324	1076.200562	20.719767
230.157181	1051.606323	1135.122681	1080.510132	34.608559
230.532761	1051.977783	1128.286743	1078.652588	34.956322
230.908325	1051.011841	1122.937012	1073.377075	31.095142
231.283859	1058.665161	1122.639771	1071.742310	20.441154
231.659332	1053.092407	1118.924683	1075.829102	34.537308
232.034821	1049.303101	1119.221802	1078.875488	42.295391
232.410263	1046.999634	1121.673828	1081.178833	45.771099
232.785690	1044.101807	1123.531494	1081.550415	47.146866
233.161087	1055.618774	1121.599487	1077.538086	33.220787
233.536469	1049.451660	1119.964966	1073.377075	33.930355
233.911804	1058.367920	1119.444702	1073.154175	24.209290
234.287140	1041.724243	1118.478882	1077.166504	46.176052
234.662430	1039.940918	1123.159912	1078.949829	46.875008
235.037704	1037.340332	1122.937012	1073.674316	42.447891
235.412933	1047.742798	1133.413696	1072.113892	28.447342
235.788162	1049.971680	1133.562378	1064.014893	16.799971
236.163345	1056.733276	1143.295898	1068.250122	13.304641
236.538513	1059.482544	1138.243286	1068.621704	11.603700
236.913635	1058.070679	1133.562378	1070.107788	15.944944
237.288742	1044.027466	1128.435425	1066.318359	26.408522
237.663834	1037.934814	1130.813110	1065.426636	29.599834
238.038879	1033.550903	1137.426147	1075.160400	40.057182
238.413910	1044.696411	1140.695435	1081.847656	38.699608
238.788910	1045.365112	1139.135010	1081.773315	38.827175
239.163879	1049.971680	1131.556030	1081.178833	38.251396
239.538834	1046.925293	1127.172241	1082.144897	43.889027
239.913757	1055.024292	1130.887329	1086.900269	42.017796
240.288651	1055.024414	1137.054565	1083.853882	35.144966
240.663528	1049.228638	1148.645874	1085.414063	36.397537
241.038361	1043.358765	1150.280396	1086.082886	39.958351
241.413177	1042.615845	1160.459839	1090.764038	40.857571
241.787979	1051.383545	1173.388550	1089.649292	31.364080
242.162735	1051.755005	1184.236816	1087.197388	26.752640
242.537476	1055.470093	1196.793945	1078.504028	16.298689
242.912170	1044.919067	1209.053833	1083.408081	23.449642
243.286865	1045.810791	1223.988647	1081.996216	20.308598
243.661514	1043.210205	1231.270386	1088.237671	23.943115
244.036148	1051.309204	1225.697754	1084.225220	18.875101
244.410751	1054.652710	1216.781372	1081.996216	16.865313
244.785339	1060.819946	1198.725830	1075.309082	10.506539
245.159882	1062.306030	1198.651489	1081.253296	13.896514
245.534378	1054.429932	1202.218018	1088.683472	23.177471
245.908890	1049.303101	1220.050659	1091.061157	24.456020
246.283356	1044.621948	1233.796753	1081.624634	19.560049
246.657791	1052.646606	1258.911011	1075.606079	11.131088
247.032196	1058.813721	1289.969604	1074.194458	6.653838
247.406586	1060.374146	1320.433716	1073.451294	5.028521
247.780960	1057.624878	1352.532349	1077.835327	6.853149
248.155289	1053.835571	1355.207275	1080.955933	8.998974
248.529602	1051.309204	1341.535522	1086.677246	12.186366
248.903870	1047.222534	1314.192261	1083.110840	13.442837
249.278122	1044.398926	1299.257324	1087.717529	16.997126
249.652344	1045.364868	1277.338135	1080.733032	15.246655
250.026550	1043.656128	1260.248413	1080.807373	17.152617
250.400711	1044.101929	1241.672729	1071.965332	14.102997
250.774857	1040.461060	1238.031860	1074.120239	17.036516
251.148987	1043.135864	1232.384888	1081.550415	20.298414
251.523071	1046.033691	1236.768799	1081.178833	18.426153
251.897125	1055.767334	1247.319824	1087.197388	16.408064
252.271164	1064.312134	1262.254639	1079.990112	7.920471
252.645187	1063.197632	1283.728149	1085.265503	10.006720
253.019165	1062.974731	1294.056152	1067.209961	1.832787
253.393112	1059.333862	1299.926147	1072.039673	5.281055
253.767044	1062.231689	1282.242065	1068.027222	2.634209
254.140930	1053.686890	1268.867554	1081.996216	13.156074
254.514801	1049.674561	1254.006958	1075.383179	12.581763
254.888657	1044.473267	1247.914185	1080.881592	17.896265
255.262466	1056.510376	1246.948242	1077.240845	10.885686
255.636276	1057.922119	1253.115356	1077.835205	10.201730
256.010010	1058.962280	1266.266968	1079.989990	10.143384
256.383759	1047.445435	1275.406250	1090.169556	18.741871
256.757446	1043.804565	1275.703369	1096.708130	22.813211
257.131134	1045.959351	1283.802368	1090.986694	18.931540
257.504791	1043.879028	1294.724976	1082.293335	15.313904
257.878418	1048.411499	1321.399536	1086.454346	13.935719
258.252014	1046.628052	1341.312744	1095.296387	16.515392
258.625580	1053.092407	1378.390015	1103.321045	15.440826
258.999115	1046.182251	1419.256348	1097.822754	13.841889
259.372650	1041.872681	1464.804077	1090.243774	11.437101
259.746124	1041.352661	1517.038696	1081.550415	8.450480
260.119598	1054.504272	1579.675781	1077.612427	4.400116
260.493042	1063.271973	1637.334595	1083.779541	3.572357
260.866425	1062.826050	1658.733887	1087.123169	4.077328
261.239838	1049.377319	1630.498901	1086.082886	6.316332
261.613159	1052.126465	1578.041016	1077.166626	4.761261
261.986511	1051.903442	1516.890015	1082.516479	6.583639
262.359802	1056.956177	1470.525024	1092.473022	8.587892
262.733063	1054.281250	1445.187866	1093.958862	10.150151
263.106293	1057.624878	1430.401733	1086.900269	7.853328
263.479523	1067.135742	1437.460449	1083.036377	4.293701
263.852692	1062.974731	1439.243652	1084.151001	5.627961
264.225861	1062.231812	1446.748413	1085.785645	6.125570
264.598969	1049.451782	1441.324219	1085.859985	9.290831
264.972076	1050.269165	1438.723633	1087.346069	9.544724
265.345154	1041.724243	1440.135376	1084.448242	10.723596
265.718201	1046.553833	1452.543945	1079.098511	8.016126
266.091217	1053.315308	1472.605591	1079.247070	6.184680
266.464203	1057.401978	1500.989258	1080.658813	5.242899
266.837158	1054.801392	1516.890015	1083.705200	6.255036
267.210114	1043.061523	1540.889771	1084.522583	8.328386
267.583038	1047.222534	1564.741089	1084.522461	7.207457
267.955902	1052.795166	1583.168091	1085.339722	6.136165
268.328766	1052.200806	1583.985352	1086.157104	6.385349
268.701569	1046.033691	1577.446777	1078.875488	6.180088
269.074371	1042.170044	1583.762329	1076.126343	6.269716
269.447144	1045.662231	1599.440430	1073.525757	5.031532
269.819885	1053.389648	1614.300903	1084.596802	5.563653
270.192596	1048.708496	1634.734009	1090.838257	7.189066
270.565277	1054.504150	1653.012573	1091.655640	6.207346
270.937927	1049.525879	1694.845093	1090.095215	6.286708
271.310577	1055.470093	1740.021118	1086.528687	4.537075
271.683136	1056.881836	1800.800781	1087.420288	4.105078
272.055725	1051.977905	1841.667358	1089.426392	4.742179
272.428284	1053.686890	1857.122192	1088.311890	4.309619
272.800812	1051.680786	1847.239868	1083.779541	4.034742
273.173279	1060.151245	1820.342407	1079.767212	2.580399
273.545776	1057.253418	1805.258911	1081.476196	3.238316
273.918152	1051.383423	1792.924683	1083.482300	4.328671
274.290558	1054.281250	1790.992798	1082.367798	3.812421
274.662964	1049.600220	1784.156860	1078.801147	3.975313
275.035278	1042.690186	1786.163086	1082.887817	5.406738
275.407593	1040.906860	1779.104492	1085.934204	6.099633
275.779907	1044.547607	1801.766724	1090.689575	6.093608
276.152161	1050.417480	1818.930664	1092.026978	5.414285
276.524384	1044.621948	1855.041870	1095.667969	6.298712
276.896606	1048.337036	1866.261353	1090.615356	5.168977
277.268799	1052.795288	1883.202515	1081.996094	3.516444
277.640930	1058.367920	1892.564453	1077.835327	2.333672
278.013031	1051.086304	1905.270142	1082.962158	3.731732
278.385162	1050.863403	1899.400391	1091.061157	4.737301
278.757233	1050.937622	1897.319946	1085.859863	4.126060
279.129272	1057.996460	1899.549194	1080.584351	2.684073
279.501282	1062.083130	1910.768921	1079.172729	2.013654
279.873230	1051.532104	1935.065796	1092.324341	4.616942
280.245178	1051.457764	1952.749878	1094.627563	4.789768
280.617126	1048.114136	2004.018555	1100.943481	5.526635
280.988983	1057.327759	2039.683960	1098.640015	4.205425
281.360870	1060.522705	2090.581299	1105.995972	4.414629
281.732697	1052.423706	2134.494141	1102.280884	4.607572
282.104492	1047.222534	2186.134521	1100.571899	4.684239
282.476288	1042.170044	2227.372803	1093.290161	4.313196
282.848053	1051.086304	2256.499268	1094.776245	3.624479
283.219757	1059.259644	2270.616943	1089.426392	2.490326
283.591461	1063.420532	2263.335205	1092.175659	2.396431
283.963135	1060.448364	2250.406494	1088.163452	2.329081
284.334747	1052.572388	2255.087402	1089.352173	3.058572
284.706360	1049.971802	2290.455566	1094.999268	3.629831
285.077942	1051.457886	2330.430420	1096.708130	3.538015
285.449524	1050.863281	2371.519775	1092.473022	3.150686
285.821014	1052.349487	2394.776611	1079.915894	2.053475
286.192535	1045.439331	2439.209717	1073.154297	1.988489
286.563995	1050.714844	2476.806885	1079.395752	2.011154
286.935425	1040.832520	2519.754150	1080.213013	2.662784
287.306824	1051.680786	2516.038818	1082.367676	2.095587
287.678223	1053.315430	2484.088623	1085.414185	2.243455
288.049561	1060.151367	2432.299561	1093.290283	2.415112
288.420898	1049.526001	2396.114258	1099.977417	3.746610
288.792145	1043.878906	2384.522705	1095.444946	3.846364
289.163452	1047.965576	2397.897461	1095.073608	3.489660
289.534668	1050.640503	2433.116943	1092.398560	3.020526
289.905914	1049.302979	2471.754150	1095.073608	3.217729
290.277039	1043.730347	2533.053955	1095.816528	3.497304
290.648193	1052.646606	2596.731445	1091.804199	2.535974
291.019318	1058.070801	2663.975586	1088.832153	1.915515
291.390381	1060.374146	2683.442871	1086.677368	1.620586
291.761475	1059.185425	2674.675049	1084.968384	1.595984
292.132507	1060.076904	2631.876709	1090.689575	1.947619
292.503510	1055.692993	2598.737549	1088.088989	2.099485
292.874481	1051.755005	2575.629639	1091.432739	2.603740
293.245422	1045.216431	2585.586182	1086.825806	2.701259
293.616364	1048.485840	2620.359619	1088.460571	2.543126
293.987213	1048.708618	2664.198486	1092.101440	2.686047
294.358093	1053.687012	2733.596924	1090.912476	2.215920
294.728943	1057.030640	2821.051514	1088.609131	1.790143
295.099731	1057.030518	2906.722412	1090.318115	1.799629
295.470490	1058.368042	2950.041016	1089.872314	1.665419
295.841248	1052.200806	2967.947998	1102.429443	2.621882
296.211975	1046.628052	3003.167236	1098.640015	2.658365
296.582642	1045.587891	3067.736328	1095.667969	2.476578
296.953308	1050.194702	3153.853516	1091.284058	1.953233
297.323883	1059.482544	3200.589844	1088.609131	1.360351
297.694519	1053.909790	3242.719482	1085.042603	1.422363
298.065063	1056.287476	3251.412842	1078.429688	1.008699
298.435608	1053.092529	3227.487061	1079.692749	1.223339
298.806122	1055.247192	3143.896484	1085.562866	1.451449
299.176575	1052.126587	3027.910156	1082.813477	1.553150
299.547028	1050.491821	2956.208252	1077.463745	1.415317
299.917450	1056.213257	2923.812256	1077.612305	1.145805
300.287872	1053.835449	2927.007080	1084.671021	1.646169
300.658234	1056.138794	2919.576904	1092.770142	1.965794
301.028564	1054.875610	2896.840088	1094.107544	2.129896
301.398865	1061.414307	2872.246094	1091.209839	1.645406
301.769135	1057.699219	2863.552734	1093.215942	1.966756
302.139374	1058.145020	2874.475342	1099.011475	2.249946
302.509583	1053.984009	2897.954834	1098.714355	2.425762
302.879791	1056.658813	2898.549072	1096.559570	2.166294
303.249939	1052.869507	2886.660889	1101.240601	2.637764
303.620087	1049.302979	2839.849854	1102.057983	2.946307
303.990173	1045.736450	2813.026611	1106.887695	3.460170
304.360260	1047.073853	2795.862549	1097.228394	2.867959
304.730286	1053.018066	2811.986328	1098.565796	2.589457
305.100281	1061.934448	2825.212158	1094.330444	1.837260
305.470276	1059.928223	2841.187500	1095.593628	2.002258
305.840179	1055.172852	2859.317383	1096.485229	2.289860
306.210144	1043.507324	2874.400391	1095.593628	2.844858
306.579987	1047.519653	2896.393799	1105.475952	3.134681
306.949890	1051.011963	2909.768799	1104.955811	2.902147
307.319702	1056.881836	2945.136719	1109.191040	2.770241
307.689484	1049.228638	2981.248047	1101.835083	2.722873
308.059265	1039.197754	3023.451904	1104.732910	3.302760
308.429016	1034.293945	3069.742920	1101.612183	3.307292
308.798737	1031.544800	3134.311523	1101.760742	3.339217
309.168396	1039.346558	3208.837158	1108.448120	3.185151
309.538055	1047.668335	3269.988281	1114.986694	3.029193
309.907684	1052.869629	3291.536133	1108.745239	2.495933
310.277313	1047.222534	3310.334717	1097.896973	2.239148
310.646851	1040.758179	3326.532471	1101.537964	2.659046
311.016388	1046.182251	3346.074219	1106.144653	2.607183
311.385895	1057.179077	3343.547852	1102.652344	1.988886
311.755371	1058.219360	3345.554443	1095.444946	1.627465
312.124817	1054.801392	3362.718018	1099.011475	1.915584
312.494232	1049.674561	3366.284424	1107.927856	2.514592
312.863617	1056.361816	3343.325195	1105.624512	2.154066
313.232971	1057.476318	3307.511475	1100.869141	1.928540
313.602295	1063.197632	3289.530029	1094.181885	1.391717
313.971619	1057.699219	3302.235596	1094.999146	1.661810
314.340820	1059.259521	3315.239014	1098.342896	1.732435
314.710083	1053.761230	3366.953369	1105.475952	2.235643
315.079285	1052.943848	3402.618896	1113.426270	2.574076
315.448486	1057.476318	3450.618408	1119.816284	2.604942
315.817596	1057.550537	3431.225342	1117.364258	2.519878
316.186707	1057.922119	3385.900391	1113.946289	2.406559
316.555786	1049.525879	3323.114990	1103.766968	2.385703
316.924866	1047.594116	3273.778076	1105.252930	2.590029
317.293884	1045.959351	3246.063232	1108.968140	2.863900
317.662872	1049.971680	3231.499756	1122.937012	3.344689
318.031830	1052.423706	3237.592529	1128.212524	3.468328
318.400757	1049.451660	3255.425049	1129.921509	3.647816
318.769684	1046.479614	3273.183594	1130.144409	3.757338
319.138550	1033.476563	3292.130859	1142.552979	4.829266
319.507416	1033.328003	3317.244873	1139.357910	4.642459
319.876190	1031.619019	3333.740234	1132.076294	4.363683
320.244995	1046.628052	3322.372070	1132.299194	3.764533
320.613770	1047.593994	3303.201904	1144.484741	4.295549
320.982483	1047.891235	3277.047607	1158.379395	4.956501
321.351166	1042.170044	3255.871094	1157.785034	5.222701
321.719818	1042.987427	3231.425537	1160.682739	5.378051
322.088440	1041.204102	3243.611084	1172.274048	5.951214
322.457062	1045.290649	3275.932617	1178.515503	5.972489
322.825623	1054.727173	3318.359375	1194.267700	6.164452
323.194183	1058.516602	3359.374756	1198.874390	6.100236
323.562653	1057.922241	3431.225342	1219.827759	6.821948
323.931183	1054.207031	3519.051025	1233.945190	7.292070
324.299591	1055.098633	3607.100342	1252.446655	7.733068
324.668060	1053.686890	3660.895264	1269.833496	8.290346
325.036407	1050.268921	3697.303467	1277.412476	8.581057
325.404755	1056.658936	3715.804688	1290.563965	8.796247
325.773102	1058.219360	3724.943604	1294.799194	8.871552
326.141388	1061.934448	3717.885010	1315.752563	9.556582
326.509674	1064.237915	3718.405273	1330.092896	10.016511
326.877899	1065.055176	3741.662109	1350.526245	10.665409
327.246124	1063.866333	3771.531982	1361.003052	10.973907
327.614288	1057.401978	3773.612305	1377.646851	11.790134
327.982422	1055.247192	3749.984131	1393.101685	12.537569
328.350525	1052.869507	3714.095947	1415.095337	13.611236
328.718628	1046.256714	3700.275635	1431.664917	14.521682
329.086700	1039.940796	3685.637939	1453.881470	15.645806
329.454712	1045.662109	3702.207275	1476.469360	16.216824
329.822693	1051.903687	3715.656250	1512.060547	17.274761
330.190674	1059.185181	3744.485596	1536.431641	17.772554
330.558563	1055.098633	3758.602783	1564.815430	18.853931
330.926483	1055.247192	3790.552979	1587.626343	19.463242
331.294312	1053.241089	3850.292725	1615.564087	20.104134
331.662231	1052.498047	3919.171143	1643.799194	20.626738
332.029999	1047.296875	3969.994385	1676.492310	21.527901
332.397766	1046.405151	4000.978516	1713.718140	22.585766
332.765503	1048.262817	4044.742920	1752.652710	23.507246
333.133240	1045.439331	4109.014160	1789.283813	24.280279
333.500916	1050.046021	4172.469238	1830.521851	24.995836
333.868561	1051.680786	4218.759766	1865.592773	25.699137
334.236176	1055.990356	4249.967285	1901.555176	26.473728
334.603790	1047.965698	4267.354004	1919.907837	27.084095
334.971344	1041.427002	4254.870605	1949.554688	28.260265
335.338867	1039.420776	4228.642090	1972.959961	29.271698
335.706360	1047.891235	4212.370605	2004.241577	30.221411
336.073853	1053.612549	4225.818848	2027.944336	30.714642
336.441284	1058.962402	4249.595703	2060.265869	31.382593
336.808655	1060.597046	4227.304688	2083.299561	32.295452
337.176086	1055.395874	4183.168945	2091.250000	33.117947
337.543396	1055.693115	4085.312256	2092.513184	34.222786
337.910706	1047.371216	4031.368408	2102.469727	35.358562
338.277954	1054.429810	4028.322266	2147.422852	36.752941
338.645264	1052.795288	4123.726563	2201.961182	37.420765
339.012421	1056.733276	4265.050293	2275.297852	37.981426
339.379669	1058.442261	4393.519531	2335.482910	38.291187
339.746796	1052.869629	4501.778809	2407.631104	39.280869
340.113953	1052.572388	4582.174316	2466.924561	40.071152
340.481018	1047.668457	4634.780762	2525.772461	41.205959
340.848114	1049.971802	4648.749512	2555.642334	41.838387
341.215118	1050.640503	4657.591797	2590.341553	42.687050
341.582153	1044.696289	4672.154785	2624.966553	43.564117
341.949066	1049.748779	4693.702637	2671.108643	44.494522
342.316010	1056.287476	4712.204102	2707.145508	45.155792
342.682922	1055.692993	4735.163574	2749.348877	46.029877
343.049835	1055.395752	4786.135254	2787.317627	46.423019
343.416656	1047.222534	4839.855957	2853.075928	47.614765
343.783478	1051.086304	4922.258301	2921.954346	48.328209
344.150269	1045.885132	5045.080078	3019.885498	49.359943
344.516998	1045.142090	5197.847168	3111.574951	49.761127
344.883728	1050.120239	5315.244629	3199.029297	50.383270
345.250427	1048.337036	5387.318848	3271.771484	51.243233
345.617065	1045.067749	5409.609863	3320.068359	52.124611
345.983704	1046.628296	5419.343262	3344.737061	52.555653
346.350281	1050.417603	5385.238281	3348.897705	53.023643
346.716827	1056.807617	5332.854980	3346.446045	53.545673
347.083405	1048.708618	5279.580078	3348.303467	54.352741
347.449860	1054.578491	5226.527832	3348.303711	54.979698
347.816376	1053.686890	5162.924316	3332.923096	55.466164
348.182770	1053.389648	5102.070313	3338.421631	56.438927
348.549194	1045.439331	5085.872559	3357.591064	57.225346
348.915558	1040.981079	5108.906738	3405.145264	58.117188
349.281921	1043.730225	5137.215332	3446.382813	58.694550
349.648193	1038.529175	5187.667480	3477.738525	58.788342
350.014526	1037.934692	5235.964355	3510.951904	58.908993
350.380737	1037.340210	5299.195801	3557.168701	59.125153
350.746948	1044.473267	5341.548340	3630.876709	60.189854
351.113159	1050.343262	5375.504883	3695.371338	61.154434
351.479309	1043.581665	5428.631348	3742.033447	61.537537
351.845428	1044.844849	5460.804688	3774.801025	61.820217
352.211517	1036.597168	5516.902344	3827.927734	62.302242
352.577576	1044.324707	5548.480957	3881.648682	62.993462
352.943604	1040.460938	5617.656738	3944.954346	63.455738
353.309601	1051.160522	5669.297363	3995.926514	63.765244
353.675537	1048.782837	5788.924316	4081.596924	63.981506
354.041473	1052.943848	5907.511719	4165.187988	64.109604
354.407379	1048.337036	6034.123535	4258.511719	64.386528
354.773254	1044.324707	6142.308594	4336.826660	64.584396
355.139038	1045.810791	6229.168457	4416.479492	65.028679
355.504913	1039.494995	6354.591309	4519.017578	65.464905
355.870636	1045.216431	6474.589844	4619.251465	65.827766
356.236389	1040.535278	6633.300781	4719.411621	65.779198
356.602081	1051.011841	6777.076660	4831.905762	66.029533
356.967804	1045.513550	6918.029785	4954.431152	66.562904
357.333405	1045.959473	7061.507813	5095.085938	67.311012
357.699036	1041.501343	7222.596191	5215.456543	67.527763
358.064606	1052.349487	7391.114746	5344.817383	67.717728
358.430176	1055.098633	7517.354980	5446.687012	67.957504
358.795654	1052.869629	7606.889160	5533.992188	68.372124
359.161163	1052.720947	7622.492676	5556.208984	68.548630
359.526581	1047.148193	7620.932129	5569.137207	68.788223
359.892029	1049.377319	7653.700684	5629.842285	69.355553
360.257416	1052.126587	7768.423828	5725.842285	69.587685
360.622772	1058.813843	8016.074707	5895.178223	69.515350
360.988098	1063.197754	8306.821289	6086.878906	69.353149
361.353394	1050.863403	8624.390625	6323.384277	69.617775
361.718658	1045.587891	8893.441406	6537.005371	69.973495
362.083893	1046.999634	9083.878906	6683.900879	70.137939
362.449097	1047.594116	9219.778320	6763.925293	69.948631
362.814209	1056.881958	9200.311523	6756.717285	69.993057
363.179382	1052.498047	9028.746094	6628.693848	69.910011
363.544434	1059.854004	8644.750000	6418.863281	70.653694
363.909546	1054.207031	8207.702148	6126.407715	70.905212
364.274536	1049.154419	7819.544434	5907.214844	71.754517
364.639587	1038.380493	7569.218750	5720.343262	71.690071
365.004517	1040.758179	7414.892090	5645.297363	72.237877
365.369507	1044.770508	7336.799316	5576.790527	72.027962
365.734344	1052.572388	7290.806152	5553.533691	72.151215
366.099274	1050.120239	7247.487793	5530.277344	72.291290
366.464081	1055.470093	7217.617188	5512.443848	72.328262
366.828918	1057.327759	7202.311035	5512.146973	72.495224
367.193665	1051.680664	7203.722656	5507.615234	72.430168
367.558411	1052.795166	7213.902344	5517.496582	72.465889
367.923126	1047.296753	7214.720215	5503.379395	72.251930
368.287781	1050.194702	7208.701172	5499.144531	72.240723
368.652435	1045.365112	7154.980469	5490.450684	72.755569
369.017059	1045.365112	7117.902832	5488.593750	73.169220
369.381653	1050.863403	7083.203613	5471.429199	73.281113
369.746185	1049.005737	7068.045410	5452.185059	73.154182
370.110687	1053.612671	7066.411621	5448.692383	73.095406
370.475220	1049.674683	7119.761230	5475.070313	72.904984
370.839661	1063.346191	7208.404297	5527.974121	72.653961
371.204041	1065.278198	7286.941895	5601.236328	72.905869
371.568451	1065.575317	7338.434082	5644.257813	72.991959
371.932770	1053.241089	7394.458496	5677.173828	72.918694
372.297150	1043.581665	7429.528809	5696.937988	72.868698
372.661377	1044.101807	7468.463379	5733.123535	72.988136
373.025696	1040.535278	7489.119629	5757.123535	73.141457
373.389862	1045.513550	7504.946777	5744.789063	72.750587
373.754059	1042.987305	7506.134766	5742.931641	72.719124
374.118225	1045.142090	7538.531250	5750.585449	72.465134
374.482361	1039.569336	7593.960938	5770.646973	72.181793
374.846436	1043.433105	7690.851563	5802.671387	71.595284
375.210510	1041.501343	7793.092285	5856.540527	71.317101
375.574524	1050.714722	7893.326660	5963.982422	71.803978
375.938538	1047.519775	8028.631348	6089.331543	72.220757
376.302460	1052.423706	8172.704590	6211.039063	72.449608
376.666412	1053.984131	8362.176758	6343.520996	72.378189
377.030304	1056.064575	8528.465820	6437.290527	72.014679
377.394196	1056.361938	8682.347656	6534.626953	71.836815
377.757996	1051.755127	8814.235352	6599.567871	71.469582
378.121796	1050.789063	8876.797852	6654.180176	71.599602
378.485565	1049.971802	8872.710938	6648.458984	71.566841
378.849304	1050.937622	8790.606445	6597.115723	71.659111
379.212982	1057.847778	8651.065430	6504.682129	71.732887
379.576630	1060.968506	8475.636719	6380.597168	71.744667
379.940277	1060.671387	8339.291992	6262.976563	71.473778
380.303864	1051.234863	8228.134766	6166.902832	71.279633
380.667450	1048.857300	8213.422852	6155.906250	71.282043
381.030945	1049.600220	8183.626953	6140.153809	71.355965
381.394501	1050.343262	8220.407227	6159.175293	71.252251
381.757935	1043.878906	8238.090820	6179.905762	71.391098
382.121399	1046.405273	8253.621094	6205.837402	71.587036
382.484741	1051.755005	8308.752930	6264.239746	71.827011
382.848145	1060.225464	8350.289063	6289.354004	71.729530
383.211487	1057.401978	8441.160156	6365.587891	71.890030
383.574768	1057.030396	8541.395508	6426.070313	71.736748
383.938019	1053.315308	8636.874023	6517.314453	72.050591
384.301270	1047.148315	8743.201172	6604.025879	72.204254
384.664459	1044.919067	8793.355469	6678.625488	72.707657
385.027649	1042.318481	8872.561523	6740.074219	72.766014
385.390778	1054.429932	8927.769531	6794.166504	72.900909
385.753876	1047.817017	8970.046875	6855.763184	73.312012
386.116943	1056.361938	8997.167969	6913.496582	73.759949
386.479980	1047.222656	9010.393555	6934.376465	73.929771
386.842987	1048.411499	9073.329102	6973.087891	73.828499
387.205994	1038.752075	9134.627930	7013.211426	73.796333
387.568909	1042.244263	9190.727539	7073.396484	74.015640
387.931793	1041.872681	9237.612305	7103.042969	73.955139
388.294678	1049.303101	9277.140625	7165.308594	74.333084
388.657471	1053.612671	9316.223633	7203.351563	74.428513
389.020294	1062.826172	9300.842773	7237.976563	74.959190
389.383057	1067.655884	9322.093750	7252.911621	74.932495
389.745819	1059.779663	9339.109375	7289.468750	75.243874
390.108521	1054.950073	9386.885742	7314.583496	75.128204
390.471191	1049.303101	9448.557617	7362.508301	75.163872
390.833801	1049.897461	9570.116211	7445.504395	75.063881
391.196442	1049.600220	9752.455078	7598.122559	75.245682
391.558960	1052.498169	9914.137695	7755.123535	75.636406
391.921509	1053.835571	10107.993164	7928.917969	75.932884
392.284027	1056.956177	10301.329102	8052.260254	75.670944
392.646484	1048.634277	10448.375000	8147.962402	75.526855
393.008911	1049.080078	10468.584961	8145.361328	75.336029
393.371307	1045.810669	10425.192383	8132.655762	75.557701
393.733673	1046.776733	10329.043945	8097.584473	75.959969
394.096008	1042.541626	10269.156250	8085.696777	76.335213
394.458344	1044.770630	10249.168945	8107.764160	76.734985
394.820587	1045.439331	10279.484375	8104.197754	76.442757
395.182831	1051.680664	10338.481445	8144.172363	76.371742
395.545013	1046.330933	10294.715820	8106.947266	76.344315
395.907196	1044.621948	10245.379883	8043.417969	76.067604
396.269287	1039.123535	10106.209961	7943.183594	76.144203
396.631409	1046.330933	9977.815430	7856.843750	76.252861
396.993469	1052.126465	9808.330078	7778.231934	76.815323
397.355530	1053.389771	9684.764648	7707.049316	77.086906
397.717499	1045.662231	9641.075195	7672.573730	77.098236
398.079468	1042.690063	9641.520508	7670.790527	77.081421
398.441376	1047.296753	9672.282227	7671.979004	76.808037
398.803284	1051.903564	9670.573242	7670.566406	76.794487
399.165131	1057.179077	9710.028320	7688.027832	76.631966
399.526978	1054.504272	9698.809570	7699.693359	76.873604
399.888763	1057.699219	9705.050781	7716.188965	77.000336
400.250519	1054.058350	9687.366211	7721.910156	77.234032
400.612244	1057.030518	9713.446289	7736.770996	77.165192
400.973938	1059.408203	9706.090820	7730.900879	77.156677
401.335602	1056.138916	9730.908203	7748.584473	77.148392
401.697205	1054.875732	9768.727539	7794.281250	77.341293
402.058807	1048.782837	9857.221680	7857.810059	77.301186
402.420349	1044.770630	9976.848633	7927.282715	77.053871
402.781860	1044.101929	10090.458008	8025.585449	77.174530
403.143341	1044.250488	10242.926758	8151.009277	77.258499
403.504822	1053.686890	10396.213867	8301.620117	77.580002
403.866241	1052.795288	10580.707031	8416.789063	77.288643
404.227631	1059.630981	10750.637695	8549.494141	77.286743
404.588959	1056.807495	10945.163086	8685.393555	77.147163
404.950287	1058.739502	11102.907227	8828.425781	77.355202
405.311554	1058.962402	11184.343750	8922.790039	77.664513
405.672821	1057.625000	11213.320313	8959.050781	77.802902
406.034027	1058.813721	11203.586914	8928.883789	77.577583
406.395203	1053.463989	11133.519531	8862.234375	77.467537
406.756348	1052.052368	11041.012695	8799.448242	77.559586
407.117493	1046.553955	10963.738281	8753.157227	77.709587
407.478516	1044.919312	10939.960938	8727.745117	77.643181
407.839600	1042.095581	10921.682617	8709.245117	77.605972
408.200592	1053.166626	10920.717773	8705.157227	77.547012
408.561554	1052.349487	10918.709961	8713.034180	77.644485
408.922485	1053.612549	10955.342773	8719.647461	77.421165
409.283417	1042.987305	10949.026367	8738.667969	77.686760
409.644257	1042.021362	11051.266602	8802.940430	77.537506
410.005096	1043.210327	11173.122070	8899.087891	77.551292
410.365906	1049.823120	11314.668945	8984.313477	77.297707
410.726715	1049.674438	11417.875977	9045.614258	77.119835
411.087433	1050.863403	11473.010742	9110.256836	77.329491
411.448120	1042.912964	11561.281250	9188.645508	77.442932
411.808807	1043.581665	11573.094727	9222.379883	77.674995
412.169434	1044.770508	11529.627930	9187.382813	77.660690
412.530029	1045.810791	11482.890625	9150.900391	77.656677
412.890564	1049.154419	11465.355469	9121.252930	77.495613
413.251099	1056.584595	11500.722656	9119.172852	77.197266
413.611572	1058.813843	11563.805664	9145.699219	76.981354
413.972076	1060.448486	11628.078125	9189.463867	76.923737
414.332489	1051.383423	11660.028320	9234.491211	77.136223
414.692871	1051.309082	11787.679688	9309.090820	76.914085
415.053223	1053.389648	11909.239258	9426.711914	77.131889
415.413574	1048.708496	12116.247070	9609.125000	77.347061
415.773834	1048.857056	12249.695313	9758.696289	77.760605
416.134094	1042.021362	12424.307617	9872.602539	77.581787
416.494263	1050.417603	12569.864258	9978.409180	77.503647
416.854462	1056.881958	12851.769531	10178.208984	77.332886
417.214630	1058.145142	13169.489258	10420.881836	77.305511
417.574738	1060.299927	13565.746094	10686.588867	76.976776
417.934784	1052.720947	13885.172852	10918.264648	76.879646
418.294861	1053.761108	14272.735352	11214.659180	76.866013
418.654846	1052.126465	14674.936523	11548.648438	77.051071
419.014832	1051.160522	15148.020508	11935.691406	77.212448
419.374756	1045.290649	15690.729492	12356.913086	77.236488
419.734680	1039.717896	16250.078125	12800.203125	77.318916
420.094543	1040.906738	16816.785156	13219.866211	77.199875
420.454376	1046.702515	17247.072266	13567.157227	77.284996
420.814148	1049.451660	17714.958984	13920.614258	77.232346
421.173920	1045.959473	18179.423828	14280.461914	77.243584
421.533691	1044.696289	18673.017578	14658.812500	77.228661
421.893341	1043.804565	19027.886719	14947.405273	77.310593
422.253021	1051.383545	19277.173828	15150.995117	77.360764
422.612640	1059.259644	19361.728516	15187.105469	77.190926
422.972260	1055.544434	19383.945313	15153.520508	76.918747
423.331757	1050.640503	19316.998047	15088.504883	76.850922
423.691315	1042.541504	19324.279297	15100.393555	76.895599
424.050781	1043.061523	19388.255859	15198.695313	77.162621
424.410248	1043.804565	19468.798828	15267.574219	77.198235
424.769653	1048.634277	19558.556641	15356.664063	77.299240
425.128998	1057.847778	19558.705078	15374.198242	77.382095
425.488373	1062.454712	19458.841797	15303.313477	77.411171
425.847656	1055.841675	19279.921875	15145.643555	77.314201
426.206940	1048.039917	19063.701172	14968.803711	77.270340
426.566193	1048.708618	18724.880859	14701.239258	77.236916
426.925385	1054.950073	18349.501953	14429.215820	77.332245
427.284576	1057.476318	17832.357422	14031.398438	77.341362
427.643677	1055.692993	17441.968750	13723.266602	77.305992
428.002777	1048.188354	17064.140625	13419.071289	77.241005
428.361847	1051.606323	16693.667969	13107.000000	77.070366
428.720856	1051.234985	16377.954102	12879.559570	77.174538
429.079865	1063.271973	16122.278320	12688.303711	77.196541
429.438812	1060.819946	15976.942383	12594.460938	77.323318
429.797760	1061.042847	15861.550781	12518.151367	77.410240
430.156616	1055.544434	15678.840820	12379.428711	77.437286
430.515503	1052.869507	15583.659180	12294.351563	77.363190
430.874268	1056.881836	15511.288086	12232.754883	77.318108
431.233093	1060.299683	15521.467773	12272.061523	77.530128
431.591827	1061.414307	15580.909180	12289.967773	77.334328
431.950562	1058.888062	15616.574219	12328.752930	77.415222
432.309204	1050.566284	15672.226563	12358.549805	77.337204
432.667877	1045.216431	15758.195313	12470.745117	77.656120
433.026459	1039.346558	15949.004883	12558.274414	77.258163
433.385010	1042.690063	16087.504883	12660.143555	77.218987
433.743561	1052.275146	16286.041992	12787.350586	77.033310
434.102051	1049.228638	16413.470703	12922.729492	77.280098
434.460510	1049.674438	16598.486328	13070.739258	77.311790
434.818939	1049.228638	16615.203125	13109.377930	77.477638
435.177338	1051.086304	16635.191406	13132.633789	77.524811
435.535675	1050.417603	16610.820313	13096.077148	77.412262
435.894012	1049.080200	16576.865234	13095.112305	77.577271
436.252289	1051.234863	16602.572266	13104.473633	77.506119
436.610535	1047.371216	16585.929688	13102.170898	77.579910
436.968719	1041.501343	16722.498047	13181.304688	77.417297
437.326935	1041.278320	16828.824219	13287.481445	77.568756
437.685028	1044.250366	16990.802734	13413.053711	77.564125
438.043152	1043.878906	17123.357422	13506.227539	77.504684
438.401215	1047.891357	17352.730469	13673.632813	77.435547
438.759277	1057.179199	17576.755859	13859.686523	77.499008
439.117249	1061.785889	17931.697266	14167.077148	77.684402
439.475250	1061.340088	18187.449219	14386.641602	77.806938
439.833130	1052.721069	18593.884766	14710.453125	77.861038
440.191071	1051.680786	18860.779297	14886.996094	77.686783
440.548889	1051.606445	19129.013672	15096.604492	77.693657
440.906708	1058.070801	19384.390625	15296.403320	77.693352
441.264496	1057.253418	19592.958984	15464.031250	77.724464
441.622223	1055.247192	19786.740234	15588.859375	77.589188
441.979950	1052.126587	19854.281250	15656.473633	77.673798
442.337616	1060.374146	19917.365234	15710.343750	77.689865
442.695251	1062.974731	19829.390625	15651.644531	77.738174
443.052887	1059.185425	19712.882813	15525.850586	77.553871
443.410461	1049.674561	19550.902344	15420.934570	77.677330
443.768005	1044.027466	19447.994141	15337.643555	77.665955
444.125458	1049.600220	19312.242188	15235.104492	77.674980
444.482941	1051.532104	19326.212891	15236.515625	77.620964
444.840393	1054.504028	19385.505859	15312.155273	77.778900
445.197754	1048.931519	19648.982422	15552.895508	77.978088
445.555084	1053.761108	19921.748047	15745.562500	77.866295
445.912415	1054.652832	20305.744141	16044.706055	77.865990
446.269714	1056.584595	20535.193359	16259.887695	78.051277
446.626953	1051.012085	20812.787109	16528.119141	78.318405
446.984161	1049.451660	21130.580078	16755.488281	78.212921
447.341309	1044.101929	21420.134766	16945.255859	78.038521
447.698456	1048.782959	21628.779297	17103.966797	78.013542
448.055542	1044.919312	21733.472656	17205.835938	78.115265
448.412598	1049.526001	21700.257813	17192.832031	78.173042
448.769653	1043.061646	21576.025391	17090.220703	78.153160
449.126617	1049.377441	21252.287109	16847.326172	78.196404
449.483582	1050.566162	20993.789063	16658.298828	78.260834
449.840515	1062.454590	20646.794922	16391.626953	78.272598
450.197388	1057.847778	20390.822266	16198.438477	78.314857
450.554230	1056.510376	20199.716797	16041.065430	78.276093
450.911041	1048.708618	20016.263672	15914.230469	78.373421
451.267822	1056.138794	19878.503906	15805.453125	78.360580
451.624573	1056.658936	19654.482422	15650.085938	78.468460
451.981262	1062.380249	19543.250000	15536.698242	78.320549
452.337921	1049.154419	19349.394531	15400.426758	78.421227
452.694580	1049.897461	19258.449219	15303.536133	78.279915
453.051147	1049.228638	19205.322266	15291.426758	78.443077
453.407715	1056.807617	19107.091797	15219.129883	78.460381
453.764221	1058.219360	19103.599609	15235.922852	78.566940
454.120728	1050.714844	18885.966797	15053.954102	78.514389
454.477142	1047.668335	18842.576172	15012.791992	78.478203
454.833557	1052.200806	18672.720703	14884.097656	78.498802
455.189911	1049.080078	18506.951172	14759.120117	78.532143
455.546265	1047.965454	18286.123047	14612.223633	78.687393
455.902557	1047.222534	18122.433594	14496.460938	78.764694
456.258820	1050.566162	18125.701172	14494.825195	78.735886
456.615051	1053.018188	18216.724609	14536.286133	78.556847
456.971252	1048.560059	18213.751953	14552.335938	78.669533
457.327393	1049.748901	18413.105469	14710.824219	78.677612
457.683502	1051.755005	18675.765625	14952.902344	78.876190
458.039612	1049.005737	19158.435547	15308.739258	78.742035
458.395630	1049.451538	19617.404297	15702.914063	78.918030
458.751648	1048.485718	20068.720703	16033.710938	78.785706
459.107605	1047.073975	20712.478516	16520.837891	78.685204
459.463562	1048.634399	21332.681641	16999.644531	78.638199
459.819458	1051.606445	21925.916016	17498.068359	78.788048
460.175323	1053.389648	22410.814453	17928.501953	79.012863
460.531158	1058.219360	22952.037109	18305.144531	78.775322
460.886932	1057.922241	23294.349609	18538.082031	78.610466
461.242676	1057.922119	23457.591797	18673.091797	78.640312
461.598419	1049.600342	23254.820313	18592.324219	79.002701
461.954102	1054.355591	22904.408203	18331.447266	79.071167
462.309723	1056.584717	22324.994141	17850.115234	78.959976
462.665344	1064.237915	21679.826172	17323.234375	78.867485
463.020905	1056.881958	21111.261719	16945.701172	79.228676
463.376373	1056.956177	20640.257813	16596.775391	79.352402
463.731873	1047.816895	20263.542969	16299.192383	79.369232
464.087341	1051.606323	19909.787109	16002.726563	79.281876
464.442749	1044.993530	19769.578125	15896.769531	79.316986
464.798126	1042.095581	19669.861328	15845.575195	79.469971
465.153503	1037.043091	19797.439453	15926.862305	79.368362
465.508820	1038.083374	19798.554688	15963.641602	79.558548
465.864105	1035.854248	19960.162109	16064.024414	79.411987
466.219330	1039.346436	20239.687500	16271.254883	79.331444
466.574524	1039.272095	20501.085938	16429.892578	79.081116
466.929657	1049.154419	20678.818359	16578.720703	79.112747
467.284790	1052.275146	20832.921875	16702.433594	79.118538
467.639893	1053.092407	21014.888672	16830.976563	79.040398
467.994934	1049.674683	21191.730469	17008.857422	79.233131
468.349945	1052.572388	21244.855469	17090.962891	79.428314
468.704926	1055.841675	21171.667969	17105.304688	79.785255
469.059875	1060.002563	20971.570313	16936.560547	79.735344
469.414764	1052.498047	20725.705078	16735.869141	79.719444
469.769653	1048.634277	20531.626953	16536.664063	79.495125
470.124451	1048.708618	20416.531250	16490.744141	79.730362
470.479248	1043.804565	20238.648438	16349.718750	79.739716
470.834015	1050.491943	20133.212891	16296.593750	79.894798
471.188721	1052.200928	20155.652344	16288.418945	79.756363
471.543365	1058.739502	20267.255859	16352.691406	79.620689
471.898010	1058.442261	20374.251953	16448.763672	79.677322
472.252625	1050.268921	20570.039063	16578.423828	79.550919
472.607178	1055.841675	20837.007813	16825.107422	79.718582
472.961700	1058.962402	21090.009766	17002.171875	79.592491
473.316193	1064.980835	21358.689453	17196.695313	79.491211
473.670654	1054.058228	21468.878906	17290.763672	79.533913
474.025055	1047.445435	21687.253906	17451.851563	79.479446
474.379456	1050.194702	21801.976563	17632.109375	79.905983
474.733795	1060.374146	22004.304688	17781.978516	79.839859
475.088104	1063.346313	22126.085938	17902.052734	79.945473
475.442383	1060.225586	22199.275391	17891.873047	79.623482
475.796570	1051.977905	22300.400391	17971.601563	79.627670
476.150787	1053.909790	22540.250000	18151.486328	79.574165
476.504944	1051.309204	22809.005859	18345.417969	79.485016
476.859070	1054.578491	23101.531250	18564.236328	79.419853
477.213135	1046.479492	23354.681641	18743.455078	79.329460
477.567200	1046.702271	23760.744141	19102.708984	79.492706
477.921173	1044.621948	24148.755859	19466.271484	79.733131
478.275146	1045.736450	24639.896484	19910.601563	79.955658
478.629089	1045.810913	24984.662109	20193.472656	79.985718
478.983002	1048.634277	25488.435547	20566.919922	79.862701
479.336823	1049.971680	25909.583984	20882.853516	79.779533
479.690643	1046.925171	26385.564453	21268.931641	79.806992
480.044403	1042.912964	26860.435547	21674.771484	79.914169
480.398163	1046.925293	27554.273438	22257.677734	80.018387
480.751862	1041.129761	28525.705078	23010.513672	79.933502
481.105499	1043.507324	29711.205078	23950.291016	79.904510
481.459137	1037.860352	31243.255859	25218.343750	80.053528
481.812744	1045.587891	33151.496094	26784.048828	80.167366
482.166290	1044.621948	35505.855469	28676.318359	80.181969
482.519806	1050.789185	38274.074219	30890.908203	80.165192
482.873291	1050.640503	41358.304688	33424.480469	80.316833
483.226715	1051.829468	44677.332031	36255.121094	80.694298
483.580139	1049.674561	47750.863281	38980.546875	81.220360
483.933502	1053.984131	50582.394531	41666.738281	81.998901
484.286804	1055.247192	52928.800781	44073.406250	82.928886
484.640106	1052.349487	54839.421875	46185.011719	83.909866
484.993347	1055.470215	56051.375000	47676.042969	84.770988
485.346558	1056.138794	56573.269531	48315.792969	85.126251
485.699738	1056.584595	56379.562500	48132.933594	85.093666
486.052887	1043.655884	55678.519531	47272.578125	84.614326
486.405975	1039.346436	54554.691406	46077.863281	84.160004
486.759064	1046.033569	53203.796875	44522.781250	83.356232
487.112061	1052.943848	51781.199219	43002.027344	82.693726
487.464996	1059.408203	50729.660156	41783.839844	81.989578
487.817963	1056.659058	50134.863281	41172.250000	81.738098
488.170868	1061.117188	49857.941406	40863.296875	81.567154
488.523743	1055.544434	49788.324219	40797.910156	81.551605
488.876587	1054.950073	49715.281250	40699.460938	81.471931
489.229401	1049.005737	49551.292969	40589.347656	81.522636
489.582153	1044.473267	49063.644531	40191.753906	81.524277
489.934845	1036.894531	48349.230469	39600.894531	81.509399
490.287537	1035.185425	47508.566406	38811.507813	81.285934
490.640198	1035.556885	46715.531250	38046.414063	81.022064
490.992798	1035.259766	45958.683594	37401.984375	80.952705
491.345337	1035.259766	45605.968750	37091.699219	80.897156
491.697876	1044.027466	45426.750000	36962.628906	80.929245
492.050354	1045.216309	45597.941406	37035.371094	80.781044
492.402832	1046.702515	45656.718750	37084.714844	80.784576
492.755219	1044.399048	45468.214844	36927.855469	80.775269
493.107605	1051.234863	44826.750000	36461.308594	80.890137
493.459930	1052.275146	43809.472656	35633.281250	80.877625
493.812225	1056.584717	42367.410156	34515.988281	80.994278
494.164490	1051.755005	40697.683594	33116.277344	80.877213
494.516724	1060.894165	38792.039063	31557.554688	80.826225
494.868896	1059.854004	37011.074219	29982.337891	80.449249
495.221039	1065.501099	35429.917969	28673.718750	80.339546
495.573120	1062.826172	34100.863281	27560.662109	80.204018
495.925201	1062.231812	33202.394531	26921.365234	80.457382
496.277222	1060.002563	32613.767578	26495.531250	80.610123
496.629211	1051.383423	32405.421875	26295.435547	80.512924
496.981140	1047.965576	32252.804688	26168.453125	80.501900
497.333069	1046.108032	32293.000000	26198.468750	80.495560
497.684967	1050.789063	32301.619141	26275.818359	80.717949
498.036804	1048.782959	32403.640625	26310.369141	80.566742
498.388580	1052.720825	32348.431641	26247.806641	80.506516
498.740326	1049.303101	32227.765625	26141.109375	80.478012
499.092072	1050.566284	31967.111328	25945.617188	80.523392
499.443756	1044.324829	31697.914063	25670.400391	80.336678
499.795410	1044.844849	31367.490234	25421.115234	80.389656
500.147003	1044.398926	30986.314453	25109.490234	80.372581
500.498566	1050.046021	30579.287109	24825.431641	80.514717
500.850098	1046.182373	30184.884766	24467.884766	80.380043
501.201599	1044.473389	29848.146484	24201.958984	80.397682
501.553009	1042.244263	29486.664063	23913.736328	80.407661
501.904449	1053.835571	29266.951172	23721.365234	80.343941
502.255859	1051.160645	29045.826172	23532.562500	80.306023
502.607178	1058.888062	29000.947266	23475.275391	80.224533
502.958405	1049.674561	28879.015625	23441.320313	80.460571
503.309692	1050.640503	28788.142578	23410.111328	80.610977
503.660919	1037.786133	28683.525391	23364.564453	80.760284
504.012115	1043.061523	28679.513672	23353.271484	80.727478
504.363251	1042.764404	28813.851563	23388.416016	80.463730
504.714294	1046.999634	28902.570313	23432.107422	80.361336
505.065369	1046.999634	28967.140625	23474.609375	80.327713
505.416443	1050.417603	28988.166016	23490.806641	80.322823
505.767395	1054.652710	28984.896484	23523.052734	80.444695
506.118317	1053.241089	28944.773438	23470.296875	80.372261
506.469238	1061.117188	28890.384766	23491.474609	80.599884
506.820160	1059.333862	28870.990234	23438.646484	80.467384
507.170929	1056.138794	28877.380859	23462.939453	80.538460
507.521729	1045.810913	28938.828125	23502.468750	80.509964
507.872498	1035.779907	29017.664063	23622.916016	80.720566
508.223236	1036.894531	29230.244141	23768.771484	80.628510
508.573883	1039.866455	29413.773438	23895.234375	80.550652
508.924500	1044.176025	29615.505859	24060.039063	80.555801
509.275116	1045.885132	29761.656250	24184.939453	80.579605
509.625702	1049.674438	29984.341797	24385.853516	80.651276
509.976196	1052.423828	30253.763672	24589.224609	80.601784
510.326660	1041.129761	30508.994141	24838.062500	80.755539
510.677124	1028.126709	30748.546875	25021.142578	80.729057
511.027557	1030.281494	30955.554688	25194.865234	80.749748
511.377869	1039.940796	31206.843750	25364.197266	80.632263
511.728180	1049.154419	31383.984375	25508.570313	80.631462
512.078430	1042.838745	31528.798828	25617.572266	80.610001
512.428650	1039.197754	31604.291016	25704.134766	80.696426
512.778931	1032.882080	31689.740234	25789.505859	80.753952
513.129028	1040.981079	31721.314453	25804.812500	80.715652
513.479126	1049.080078	31761.291016	25838.250000	80.714378
513.829285	1053.463989	31719.312500	25816.554688	80.751366
514.179382	1049.823242	31674.806641	25844.712891	80.962952
514.529297	1041.352661	31581.406250	25784.232422	81.017799
514.879272	1050.640381	31596.414063	25815.218750	81.073662
515.229187	1053.463989	31560.380859	25709.931641	80.822548
515.579163	1062.083008	31608.673828	25699.974609	80.656761
515.928955	1057.847778	31616.625000	25701.607422	80.643799
516.278748	1050.863403	31785.587891	25877.257813	80.776367
516.628540	1048.559937	32048.470703	26147.349609	80.964073
516.978333	1048.931519	32489.162109	26481.267578	80.891060
517.327942	1057.327759	33009.281250	26897.437500	80.871765
517.677612	1057.550659	33620.941406	27362.275391	80.780052
518.027222	1054.058472	34179.769531	27799.398438	80.738914
518.376831	1050.343262	34853.253906	28311.716797	80.648003
518.726379	1052.869507	35442.621094	28766.595703	80.587173
519.075867	1053.018188	35879.597656	29192.126953	80.797798
519.425293	1054.058472	36248.808594	29517.724609	80.874748
519.774658	1049.377319	36482.191406	29736.025391	80.960686
520.124084	1052.423706	36708.593750	29864.046875	80.804031
520.473389	1056.510376	36622.472656	29804.310547	80.829536
520.822693	1055.098633	36346.660156	29628.953125	80.965118
521.171997	1058.888062	35972.394531	29321.265625	80.949692
521.521240	1055.693237	35524.203125	28974.345703	80.997559
521.870361	1060.225586	35135.750000	28607.884766	80.842957
522.219482	1062.083130	34684.808594	28305.994141	81.028259
522.568604	1060.597046	34358.394531	28044.521484	81.038162
522.917664	1059.556763	34138.011719	27921.625000	81.207146
523.266724	1055.172974	34215.660156	27963.531250	81.145844
523.615662	1058.293579	34510.496094	28163.851563	81.027725
523.964600	1056.213257	34952.890625	28486.992188	80.924690
524.313538	1053.538208	35508.824219	28900.193359	80.819687
524.662354	1051.383423	36172.199219	29421.572266	80.778847
525.011169	1050.640503	37014.496094	30092.900391	80.754021
525.359985	1049.377319	37967.578125	30902.130859	80.861893
525.708740	1046.256592	39076.472656	31902.689453	81.136627
526.057434	1055.841675	40382.933594	33009.503906	81.251015
526.406067	1051.532104	41868.023438	34255.488281	81.349365
526.754700	1054.132813	43604.332031	35686.707031	81.392273
527.103333	1052.275024	45497.265625	37322.550781	81.607117
527.451782	1060.151245	47637.480469	39188.000000	81.859245
527.800293	1059.408203	49628.343750	41063.324219	82.365227
528.148743	1049.377319	51512.218750	42940.878906	83.014549
528.497131	1050.046021	53043.230469	44586.832031	83.735565
528.845642	1050.863281	54366.187500	46041.980469	84.386841
529.193909	1055.692993	55370.238281	47215.667969	84.986397
529.542175	1043.953247	56087.781250	48100.312500	85.488892
529.890503	1047.519653	56450.902344	48519.300781	85.683907
530.238770	1049.748901	56420.363281	48485.718750	85.669937
530.586914	1057.699341	56044.535156	48073.714844	85.504128
530.934998	1057.847900	55321.125000	47186.386719	85.008759
531.283142	1052.200806	54357.191406	46026.816406	84.372246
531.631226	1046.553833	52954.281250	44487.046875	83.687912
531.979248	1042.987427	51343.175781	42882.625000	83.179886
532.327148	1040.238159	49688.082031	41221.664063	82.596519
532.675110	1042.318604	48367.582031	39842.605469	81.986412
533.023071	1045.067749	47387.824219	38925.859375	81.740479
533.370850	1049.823120	46868.667969	38472.832031	81.676018
533.718689	1054.132813	46724.375000	38373.566406	81.714989
534.066467	1054.355591	46807.515625	38422.085938	81.672455
534.414246	1052.052246	46844.449219	38419.339844	81.601509
534.761963	1057.179077	46824.753906	38386.492188	81.562798
535.109619	1059.333984	46690.496094	38240.042969	81.480965
535.457153	1063.643433	46324.253906	37920.910156	81.433426
535.804749	1060.151245	45751.750000	37434.304688	81.389244
536.152344	1047.668335	44990.519531	36850.878906	81.476761
536.499817	1051.903687	44119.394531	36164.250000	81.528656
536.847229	1048.857300	43181.246094	35349.222656	81.410919
537.194641	1055.692993	42276.687500	34521.562500	81.186470
537.542114	1049.748779	41554.839844	33861.675781	81.006920
537.889404	1052.720947	40845.988281	33335.023438	81.125038
538.236694	1045.290649	40343.777344	32937.878906	81.154747
538.583984	1040.981079	40013.203125	32651.140625	81.109459
538.931213	1039.940918	39954.433594	32515.835938	80.884766
539.278381	1054.504272	39906.800781	32480.392578	80.885536
539.625488	1058.070801	40005.921875	32601.728516	80.989471
539.972595	1059.036743	40248.222656	32830.136719	81.071083
540.319641	1053.315308	40818.347656	33225.722656	80.906281
540.666687	1052.349487	41544.953125	33782.699219	80.830437
541.013611	1051.457886	42547.148438	34675.593750	81.030426
541.360596	1043.358887	43627.214844	35621.617188	81.200394
541.707458	1035.557007	44798.597656	36607.613281	81.283325
542.054260	1037.340332	45794.550781	37494.640625	81.455704
542.401062	1044.473267	46741.542969	38359.222656	81.656769
542.747864	1057.104858	47293.675781	38958.550781	81.972870
543.094666	1053.761230	47568.894531	39156.937500	81.915657
543.441284	1051.309204	47270.425781	38885.433594	81.858170
543.787903	1044.176147	46680.535156	38287.894531	81.609749
544.134460	1041.872681	45696.542969	37432.746094	81.493996
544.481079	1049.748657	44497.667969	36426.609375	81.423599
544.827637	1053.241089	43016.816406	35183.156250	81.332237
545.174072	1057.699219	41356.968750	33771.328125	81.176727
545.520508	1044.844849	39871.730469	32448.962891	80.882401
545.866943	1040.758179	38497.136719	31367.562500	80.965660
546.213318	1033.030762	37552.449219	30576.312500	80.897461
546.559631	1041.872803	36648.480469	29897.335938	81.039627
546.905823	1046.776733	35978.269531	29270.591797	80.797623
547.252136	1052.052246	35322.472656	28746.312500	80.810966
547.598389	1049.451538	34773.378906	28305.619141	80.821457
547.944458	1053.686890	34312.402344	27957.289063	80.891884
548.290588	1058.888062	33779.503906	27552.712891	80.969826
548.636658	1059.631104	33218.445313	27128.666016	81.063423
548.982727	1055.024414	32602.025391	26597.476563	80.966347
549.328735	1050.789185	32046.763672	26078.990234	80.746620
549.674622	1055.098755	31398.693359	25520.607422	80.628250
550.020569	1055.618774	30706.712891	25013.267578	80.798531
550.366455	1055.395874	29955.437500	24429.396484	80.878777
550.712280	1057.922241	29286.119141	23884.460938	80.864319
551.058044	1056.138794	28724.466797	23431.884766	80.871338
551.403748	1054.430054	28232.953125	23045.359375	80.912895
551.749512	1043.061646	27927.718750	22794.587891	80.906837
552.095154	1044.770630	27699.164063	22595.603516	80.852837
552.440735	1046.702393	27615.945313	22508.820313	80.778053
552.786316	1044.473267	27537.703125	22432.361328	80.729637
553.131897	1049.005737	27542.681641	22428.500000	80.696594
553.477417	1045.513550	27509.541016	22417.650391	80.759201
553.822815	1047.371216	27469.791016	22360.734375	80.663933
554.168213	1041.501221	27384.490234	22255.748047	80.530899
554.513672	1042.021362	27278.384766	22149.197266	80.450081
554.859009	1046.479370	27124.802734	22051.337891	80.545280
555.204285	1044.844849	26970.548828	21933.419922	80.570908
555.549500	1040.906860	26773.945313	21787.490234	80.622360
555.894714	1040.386719	26532.087891	21596.755859	80.639458
556.239990	1044.473267	26180.341797	21372.880859	80.874100
556.585022	1055.692993	25898.509766	21176.425781	80.992157
556.930115	1053.686890	25635.478516	20958.494141	80.973785
557.275146	1047.891235	25413.759766	20746.138672	80.843613
557.620178	1034.739746	25208.537109	20553.990234	80.745483
557.965149	1035.928589	25026.939453	20391.193359	80.677155
558.310059	1041.650024	24879.896484	20254.400391	80.596321
558.654968	1053.984253	24682.250000	20118.724609	80.686157
558.999756	1053.761230	24545.609375	20015.146484	80.714745
559.344604	1057.922241	24485.197266	19970.044922	80.726944
559.689331	1059.556763	24421.000000	19892.695313	80.616333
560.033997	1064.386597	24338.896484	19837.787109	80.660774
560.378723	1056.584595	24270.835938	19824.041016	80.844551
560.723389	1056.361694	24264.146484	19825.080078	80.872513
561.067932	1058.665161	24239.554688	19807.173828	80.879158
561.412476	1064.683716	24203.443359	19734.728516	80.687317
561.757019	1057.624878	24166.367188	19713.701172	80.731682
562.101501	1056.064453	24248.990234	19734.505859	80.535080
562.445862	1048.485718	24256.716797	19733.835938	80.511734
562.790222	1053.761230	24266.525391	19739.482422	80.497612
563.134644	1048.188477	24164.656250	19682.419922	80.610191
563.478943	1050.417603	24185.312500	19694.085938	80.586784
563.823181	1045.810669	24178.998047	19652.845703	80.434380
564.167358	1043.210083	24224.693359	19709.392578	80.521950
564.511536	1040.981079	24250.179688	19725.664063	80.505508
564.855774	1038.157715	24275.218750	19784.585938	80.674698
565.199768	1039.197876	24393.509766	19888.757813	80.711266
565.543823	1040.386719	24501.992188	19990.626953	80.771286
565.887817	1040.386597	24707.884766	20137.822266	80.690552
566.231812	1038.603394	24822.013672	20242.513672	80.744980
566.575745	1042.169922	24990.234375	20377.224609	80.737442
566.919617	1044.250488	25149.763672	20497.519531	80.700500
567.263428	1046.702515	25293.312500	20570.412109	80.521400
567.607239	1041.204102	25406.400391	20624.281250	80.373161
567.950989	1040.089478	25443.478516	20645.607422	80.339325
568.294678	1036.968750	25475.578125	20702.224609	80.467979
568.638367	1036.522949	25375.343750	20660.242188	80.627235
568.981995	1039.940918	25346.142578	20624.650391	80.574951
569.325623	1043.656128	25225.849609	20493.136719	80.428932
569.669128	1047.519897	25153.552734	20445.806641	80.470673
570.012573	1044.324829	24999.820313	20296.458984	80.366257
570.356140	1049.377441	24933.095703	20258.189453	80.426392
570.699524	1052.423828	24879.968750	20176.904297	80.262070
571.042908	1054.504272	24894.234375	20242.736328	80.488464
571.386230	1053.018066	24969.208984	20268.224609	80.343925
571.729492	1051.309204	25059.781250	20346.537109	80.368416
572.072815	1054.355591	25190.554688	20425.818359	80.258965
572.416016	1054.132690	25301.634766	20526.720703	80.307602
572.759094	1054.801392	25409.523438	20625.619141	80.357384
573.102234	1053.315308	25479.666016	20672.503906	80.319771
573.445374	1052.349487	25539.923828	20715.154297	80.297073
573.788391	1048.857300	25559.986328	20719.166016	80.250519
574.131409	1051.086304	25540.000000	20737.666016	80.389763
574.474365	1046.553833	25521.869141	20705.568359	80.321800
574.817261	1053.241089	25433.822266	20627.402344	80.285866
575.160156	1047.445435	25274.291016	20483.031250	80.223343
575.502930	1049.897339	25050.195313	20251.951172	80.007568
575.845703	1050.343262	24801.357422	20096.359375	80.190331
576.188477	1053.538208	24558.906250	19911.494141	80.228294
576.531250	1059.333862	24280.125000	19744.164063	80.465950
576.873901	1053.984009	24037.302734	19491.537109	80.221458
577.216431	1054.504150	23786.974609	19249.011719	80.037529
577.559082	1051.829346	23500.984375	19037.250000	80.116249
577.901611	1053.984131	23217.742188	18793.908203	80.040237
578.244080	1055.544556	22885.609375	18523.150391	80.016281
578.586487	1057.327759	22563.507813	18261.603516	79.996895
578.928955	1086.008667	22237.244141	18023.611328	80.078552
579.271301	1088.980591	21920.490234	17804.269531	80.240410
579.613647	1089.946533	21584.939453	17524.892578	80.190056
579.955872	1055.841675	21251.394531	17265.648438	80.264236
580.298157	1050.566162	20966.890625	17013.837891	80.151695
580.640320	1041.798462	20712.404297	16812.701172	80.174973
580.982483	1041.129761	20505.396484	16623.154297	80.054512
581.324524	1039.866577	20311.093750	16477.296875	80.106117
581.666626	1039.643677	20146.066406	16349.718750	80.130524
582.008728	1044.027466	20006.898438	16241.014648	80.140755
582.350647	1045.067749	19879.320313	16133.276367	80.110474
582.692566	1051.012085	19791.050781	16079.332031	80.193642
583.034424	1054.875854	19680.710938	15982.515625	80.144806
583.376343	1057.030518	19561.380859	15921.291992	80.328476
583.718201	1056.361694	19503.498047	15840.820313	80.145004
584.059937	1056.361694	19408.019531	15803.743164	80.359940
584.401611	1054.206909	19330.669922	15721.268555	80.251091
584.743347	1055.841675	19247.005859	15632.104492	80.128258
585.085022	1053.686890	19187.787109	15573.256836	80.067780
585.426514	1061.562988	19139.044922	15491.895508	79.824898
585.768127	1063.643433	19019.640625	15441.145508	80.070747
586.109619	1055.618774	18943.330078	15365.581055	79.998840
586.451172	1047.073853	18896.742188	15333.333008	80.036552
586.792542	1039.197876	18888.271484	15317.135742	79.992592
587.133850	1043.284546	18839.751953	15282.286133	80.010277
587.475220	1043.210205	18802.527344	15257.617188	80.039154
587.816589	1049.451660	18778.007813	15215.859375	79.907288
588.157776	1053.909912	18818.500000	15253.753906	79.933418
588.498962	1055.470215	18851.863281	15276.936523	79.912079
588.840210	1052.349487	18890.203125	15315.351563	79.959183
589.181335	1049.154419	18942.142578	15341.059570	79.874336
589.522400	1053.092529	18963.095703	15373.530273	79.957756
589.863403	1055.470215	18987.390625	15382.445313	79.896492
590.204407	1059.111084	18939.837891	15351.833008	79.933678
590.545410	1056.436157	18981.966797	15390.471680	79.964355
590.886353	1052.497925	18975.724609	15408.897461	80.099411
591.227112	1048.411255	18972.902344	15400.354492	80.068909
591.567932	1050.417603	18905.064453	15355.102539	80.117432
591.908752	1052.275146	18864.421875	15309.704102	80.043297
592.249512	1051.977905	18877.201172	15322.781250	80.059608
592.590149	1048.782837	18816.498047	15261.778320	79.993378
592.930786	1050.566162	18733.873047	15210.137695	80.073097
593.271423	1051.680786	18622.789063	15123.500977	80.084991
593.612000	1049.526001	18546.626953	15061.458008	80.081444
593.952576	1045.959351	18526.564453	15029.879883	79.996773
594.292969	1046.999634	18548.632813	15030.846680	79.900238
594.633484	1040.609619	18632.447266	15076.617188	79.787048
594.973877	1045.067749	18738.107422	15150.250977	79.721657
595.314209	1047.742676	18853.722656	15234.881836	79.676254
595.654480	1061.562988	18995.937500	15375.536133	79.813057
595.994812	1058.219360	19182.509766	15490.110352	79.627342
596.335022	1050.863403	19384.314453	15680.327148	79.796562
596.675171	1044.547607	19540.648438	15805.229492	79.804283
597.015320	1044.324707	19680.931641	15934.664063	79.898338
597.355408	1043.507446	19773.068359	15990.762695	79.805687
597.695496	1044.696167	19844.472656	16008.817383	79.597328
598.035461	1044.696289	19808.435547	15965.574219	79.519753
598.375366	1052.943848	19764.001953	15899.593750	79.346931
598.715271	1053.166870	19697.875000	15847.656250	79.349533
599.055176	1051.234985	19532.921875	15726.765625	79.405792
599.395081	1048.857300	19322.125000	15587.668945	79.563286
599.734802	1050.714844	19051.736328	15379.846680	79.601768
600.074524	1052.126587	18768.347656	15182.348633	79.758667
600.414246	1053.018188	18405.525391	14904.828125	79.825981
600.753906	1056.659058	18063.435547	14628.497070	79.802528
601.093506	1064.757935	17746.982422	14375.793945	79.791733
601.433044	1063.643555	17487.591797	14177.406250	79.845367
601.772583	1056.510376	17272.484375	14021.889648	79.954369
602.112122	1054.652832	17218.615234	13980.206055	79.965248
602.451538	1053.686890	17262.228516	13969.729492	79.686646
602.790894	1055.618774	17366.107422	14057.703125	79.716095
603.130310	1054.504272	17527.269531	14169.973633	79.619110
603.469604	1055.024414	17695.935547	14335.668945	79.807198
603.808838	1052.795288	17998.275391	14534.875000	79.561508
604.148010	1054.355591	18239.087891	14730.067383	79.580589
604.487305	1061.339966	18515.125000	14932.543945	79.473900
604.826416	1064.163452	18646.640625	15083.081055	79.732330
605.165527	1058.293701	18801.115234	15179.004883	79.585487
605.504456	1049.377319	18933.744141	15269.803711	79.513168
605.843445	1047.296875	19055.898438	15304.129883	79.166794
606.182434	1048.634277	19073.583984	15323.375000	79.194344
606.521423	1049.971802	18985.310547	15248.702148	79.166229
606.860229	1047.668335	18855.429688	15126.399414	79.059525
607.199036	1042.095703	18685.798828	14962.338867	78.896378
607.537903	1047.668335	18501.824219	14819.381836	78.902206
607.876648	1049.525879	18236.041016	14672.708008	79.266685
608.215271	1050.046021	17949.828125	14492.523438	79.542320
608.553955	1041.872681	17685.681641	14294.208008	79.623215
608.892578	1048.931519	17444.498047	14109.566406	79.659554
609.231140	1052.498047	17307.853516	13972.179688	79.479538
609.569641	1057.401978	17182.652344	13853.073242	79.351768
609.908081	1057.030518	17142.380859	13812.132813	79.296394
610.246521	1056.138794	17085.615234	13770.152344	79.316460
610.584961	1053.241089	17067.111328	13771.934570	79.422981
610.923340	1055.618774	17016.958984	13715.019531	79.312897
611.261597	1056.361816	16960.560547	13666.127930	79.285759
611.599854	1059.630981	16867.759766	13595.762695	79.301804
611.938110	1049.971802	16768.638672	13513.585938	79.291801
612.276245	1047.742676	16593.656250	13363.196289	79.219872
612.614319	1053.315430	16359.081055	13179.891602	79.228813
612.952393	1057.179077	16093.375000	12952.598633	79.111893
613.290466	1054.578613	15848.324219	12748.637695	79.047310
613.628479	1046.702271	15555.200195	12494.671875	78.905273
613.966370	1036.151367	15258.583008	12288.184570	79.114693
614.304260	1050.417603	14982.325195	12076.273438	79.141037
614.642151	1050.268921	14796.198242	11921.796875	79.089073
614.979980	1056.881958	14669.437500	11770.815430	78.706261
615.317749	1046.330933	14511.766602	11660.252930	78.823456
615.655396	1046.479614	14406.257813	11570.346680	78.772766
615.993164	1054.504272	14298.295898	11535.200195	79.136673
616.330811	1058.442383	14274.890625	11500.575195	79.008614
616.668396	1061.265747	14223.918945	11475.535156	79.119835
617.005859	1054.950073	14172.204102	11422.928711	79.040771
617.343445	1051.309204	14134.383789	11415.573242	79.218872
617.680908	1051.234985	14154.816406	11405.764648	79.020607
618.018311	1046.330933	14182.679688	11404.723633	78.852905
618.355652	1049.674438	14184.538086	11390.606445	78.728889
618.692993	1044.473389	14144.934570	11369.727539	78.815956
619.030273	1050.491821	14110.754883	11387.708008	79.150139
619.367554	1046.033691	14106.668945	11376.934570	79.099525
619.704712	1048.411499	14131.633789	11376.042969	78.937981
620.041870	1048.114136	14158.012695	11373.815430	78.762634
620.379028	1056.361816	14130.742188	11379.460938	78.956703
620.716064	1051.309204	14062.903320	11328.043945	78.981361
621.053040	1047.371216	13970.471680	11245.643555	78.915062
621.389954	1039.123535	13894.237305	11175.128906	78.848045
621.726929	1040.609497	13817.631836	11123.265625	78.912407
622.063843	1046.999634	13771.489258	11072.293945	78.787399
622.400635	1045.439331	13743.106445	11043.390625	78.738487
622.737427	1049.823120	13709.819336	11039.601563	78.908226
623.074219	1043.507324	13660.852539	11009.434570	78.985931
623.410889	1049.228638	13582.016602	10960.617188	79.083672
623.747559	1050.789063	13543.676758	10935.651367	79.123917
624.084167	1052.275024	13543.231445	10915.515625	78.963051
624.420715	1058.739502	13568.867188	10910.090820	78.747009
624.757324	1067.061401	13600.221680	10917.000977	78.591026
625.093750	1069.141968	13617.163086	10954.004883	78.776268
625.430176	1060.522827	13667.540039	11009.285156	78.914482
625.766602	1051.903687	13702.239258	11008.541992	78.706512
626.102905	1050.417603	13800.617188	11068.875977	78.574913
626.439209	1047.965698	13870.015625	11095.921875	78.364662
626.775452	1048.411377	13978.421875	11181.222656	78.366615
627.111694	1050.566162	14022.261719	11194.149414	78.197823
627.447876	1058.739502	14069.590820	11241.481445	78.263458
627.783997	1055.024414	14086.979492	11268.825195	78.375046
628.120056	1058.590820	14122.867188	11338.000977	78.683350
628.456055	1052.126587	14112.166992	11324.329102	78.653679
628.792053	1056.436157	14095.151367	11328.192383	78.778900
629.128052	1048.337036	14029.542969	11272.762695	78.763298
629.463928	1055.247192	13961.406250	11239.699219	78.911568
629.799744	1054.281372	13854.187500	11161.831055	78.965813
630.135559	1055.247437	13752.616211	11036.035156	78.605164
630.471375	1053.166870	13635.143555	10903.850586	78.292023
630.807068	1052.869507	13494.414063	10767.876953	78.085220
631.142700	1050.937622	13348.335938	10678.118164	78.286324
631.478333	1054.207031	13198.243164	10561.983398	78.291733
631.813965	1050.491821	13061.006836	10457.513672	78.323219
632.149475	1051.234863	12928.524414	10342.938477	78.230843
632.484924	1042.169922	12825.465820	10273.390625	78.341583
632.820435	1045.587769	12758.520508	10224.351563	78.364349
633.155884	1048.188477	12687.858398	10192.252930	78.559479
633.491150	1049.525879	12625.295898	10152.575195	78.638824
633.826477	1049.600220	12547.128906	10084.438477	78.580696
634.161804	1051.903564	12472.975586	9988.738281	78.248650
634.497009	1046.553833	12406.473633	9932.639648	78.223137
634.832153	1044.547729	12308.617188	9867.772461	78.330704
635.167297	1046.033691	12233.051758	9835.897461	78.571999
635.502380	1056.213135	12152.656250	9762.708008	78.462036
635.837463	1057.921997	12081.770508	9681.792969	78.229225
636.172424	1057.625000	12011.109375	9622.647461	78.194504
636.507324	1050.640503	11945.796875	9565.806641	78.155518
636.842224	1053.835571	11880.411133	9510.599609	78.111160
637.177124	1049.228760	11757.291992	9410.440430	78.083321
637.511963	1045.810791	11637.070313	9310.874023	78.036644
637.846741	1043.581665	11529.999023	9224.311523	78.012634
638.181396	1048.559937	11418.174805	9140.274414	78.032928
638.516113	1055.247192	11290.745117	9067.161133	78.275764
638.850769	1048.039917	11189.320313	9007.198242	78.482773
639.185303	1037.860352	11104.096680	8930.890625	78.410934
639.519836	1034.368164	11031.502930	8870.481445	78.383591
639.854370	1039.494995	10945.460938	8778.791992	78.127632
640.188843	1040.163696	10847.678711	8711.622070	78.220207
640.523254	1041.798462	10747.368164	8617.109375	78.051178
640.857605	1036.597290	10632.719727	8553.803711	78.335876
641.191895	1042.095703	10570.157227	8484.479492	78.110153
641.526184	1040.906738	10508.113281	8419.315430	77.936485
641.860413	1042.541382	10456.028320	8378.969727	77.935287
642.194580	1044.919067	10376.078125	8344.641602	78.229538
642.528748	1049.971680	10285.354492	8313.433594	78.648193
642.862793	1055.321655	10213.280273	8253.843750	78.603996
643.196838	1054.875610	10169.144531	8213.942383	78.547905
643.530823	1054.504272	10142.469727	8159.925293	78.184944
643.864746	1057.847778	10103.015625	8103.231934	77.891136
644.198669	1059.779663	10056.650391	8052.928223	77.728676
644.532532	1059.259644	10010.359375	8027.962402	77.853035
644.866333	1053.315308	9973.803711	8010.873535	77.995262
645.200073	1054.652710	9957.233398	7987.393066	77.873375
645.533813	1057.179077	9942.818359	7984.718750	77.963318
645.867554	1062.974731	9963.698242	7980.037109	77.713486
646.201172	1064.683716	9953.221680	7972.904297	77.720551
646.534729	1070.107788	9950.842773	7973.945313	77.739479
646.868225	1064.386353	9949.728516	7987.914063	77.920784
647.201782	1058.962402	9966.373047	7987.171387	77.780281
647.535217	1047.668335	9986.434570	7974.019531	77.486656
647.868591	1054.429810	9965.703125	7943.183594	77.303810
648.201965	1054.652954	9957.530273	7932.558105	77.254860
648.535278	1061.340210	9947.127930	7948.533203	77.507957
648.868591	1059.779663	9918.298828	7965.623047	77.957085
649.201782	1056.213135	9883.599609	7954.403809	78.145332
649.534912	1057.253418	9858.336914	7916.731934	77.939018
649.868103	1051.309204	9837.605469	7867.171875	77.573792
650.201172	1053.463989	9787.823242	7857.884277	77.904060
650.534180	1040.981201	9733.582031	7817.166504	77.953491
650.867188	1039.049316	9698.363281	7799.631348	78.072945
651.200134	1039.049194	9690.041016	7767.234863	77.773567
651.533020	1041.501221	9657.125000	7739.966309	77.747879
651.865845	1047.519775	9608.307617	7692.709473	77.623573
652.198608	1054.504272	9538.909180	7656.152344	77.809204
652.531433	1056.881958	9491.800781	7625.539551	77.874580
652.864136	1048.560059	9465.275391	7602.729004	77.870865
653.196777	1168.336060	9580.964844	7689.439941	77.515648
653.529358	1175.246094	9549.014648	7641.068848	77.215210
653.861938	1174.651611	9463.492188	7585.192871	77.339417
654.194519	1044.621826	9262.651367	7389.851074	77.211082
654.526978	1034.888306	9197.117188	7374.248047	77.667015
654.859375	1036.968750	9153.203125	7341.332031	77.675964
655.191833	1046.330933	9113.749023	7332.044434	77.914810
655.524170	1050.269043	9057.948242	7244.218262	77.350121
655.856445	1057.104858	8988.995117	7204.763184	77.505592
656.188660	1057.030396	8936.016602	7169.618652	77.580902
656.520874	1062.008911	8906.295898	7168.503906	77.846397
656.853088	1062.900513	8931.708008	7163.154297	77.524506
657.185181	1055.841675	8929.404297	7164.714355	77.587151
657.517212	1050.343384	8951.471680	7179.872559	77.577896
657.849243	1047.742676	8985.130859	7198.893066	77.495903
658.181274	1054.652832	9040.188477	7249.938965	77.581345
658.513123	1062.380371	9096.807617	7279.511719	77.381142
658.844971	1059.408203	9160.633789	7317.703125	77.251213
659.176819	1054.652832	9237.684570	7345.790527	76.880280
659.508667	1049.005737	9300.323242	7413.257324	77.130127
659.840393	1051.383423	9351.889648	7467.869629	77.302353
660.172058	1054.281250	9405.684570	7513.342285	77.341026
660.503662	1056.510376	9429.832031	7532.661621	77.342682
660.835266	1045.290649	9445.139648	7536.747559	77.280640
661.166931	1036.968872	9398.328125	7481.912598	77.080093
661.498413	1035.259766	9359.245117	7445.727051	77.011993
661.829773	1045.439331	9278.922852	7397.059082	77.143768
662.161194	1051.383667	9205.140625	7359.016113	77.358604
662.492615	1050.491821	9088.262695	7278.620605	77.485771
662.823975	1051.680664	8944.709961	7167.909668	77.488991
663.155212	1049.080078	8788.823242	7029.408691	77.267792
663.486450	1050.789063	8654.334961	6896.926270	76.886986
663.817627	1048.931519	8524.157227	6798.029785	76.908691
664.148743	1045.067749	8396.059570	6714.142090	77.119858
664.479858	1040.015137	8281.929688	6632.186035	77.219513
664.810913	1043.210083	8205.398438	6561.895996	77.053070
665.141907	1047.222534	8116.310059	6499.928223	77.134506
665.472778	1043.061523	8044.532715	6434.764160	77.008141
665.803711	1044.101807	7981.970215	6407.495605	77.306076
666.134583	1043.507446	7956.111816	6372.943848	77.097374
666.465454	1052.943848	7914.800293	6359.272949	77.330811
666.796143	1050.417603	7868.509766	6322.567871	77.325890
667.126831	1055.841675	7842.652344	6316.846191	77.518066
667.457458	1057.550659	7832.546875	6292.400391	77.267197
667.788147	1060.077026	7818.429688	6275.904785	77.176025
668.118774	1063.272095	7785.587402	6227.087891	76.816032
668.449219	1057.847900	7762.033691	6185.775391	76.488449
668.779663	1062.454590	7744.721191	6152.933594	76.178925
669.110107	1059.482422	7721.910156	6157.912598	76.525108
669.440552	1064.015015	7704.375000	6160.066895	76.743607
669.770874	1051.234985	7681.935059	6140.154297	76.747841
670.101135	1047.222656	7657.712402	6115.039551	76.663261
670.431396	1041.352661	7616.771973	6094.978027	76.856323
670.761597	1051.903687	7566.023438	6071.052246	77.050293
671.091797	1047.891235	7536.228027	6045.195313	77.019798
671.421875	1046.776733	7519.287109	6020.154785	76.838470
671.751892	1036.820190	7507.917969	5982.558105	76.428116
672.081909	1033.030762	7469.280762	5953.951660	76.456337
672.411865	1035.779907	7407.683594	5924.527344	76.723495
672.741821	1044.027466	7351.882324	5896.144043	76.921814
673.071716	1052.943848	7317.332031	5862.335938	76.773529
673.401550	1052.498047	7294.743652	5828.454590	76.510231
673.731262	1045.290649	7258.929688	5812.924316	76.728523
674.060974	1044.919067	7213.308105	5771.092285	76.619247
674.390625	1047.148315	7152.825684	5745.532715	76.951073
674.720276	1052.349487	7106.609375	5701.693359	76.794586
675.049927	1052.572388	7048.876465	5666.622559	76.948235
675.379395	1050.491821	7012.765137	5640.468262	76.983665
675.708923	1046.182251	6976.728027	5595.886719	76.716454
676.038330	1045.067749	6980.518066	5561.261719	76.088478
676.367737	1048.708618	6949.385254	5532.580566	75.989113
676.697083	1050.714722	6925.830566	5527.899902	76.205902
677.026428	1047.817017	6874.636230	5534.066895	76.993118
677.355652	1044.547607	6858.066895	5511.552734	76.838219
677.684875	1051.234863	6850.562500	5512.519043	76.927612
678.013977	1059.853882	6849.373535	5485.844238	76.448318
678.343079	1064.460815	6849.968262	5485.250000	76.411430
678.672180	1061.414429	6849.076660	5479.974121	76.344460
679.001221	1059.185181	6864.753906	5515.193848	76.754044
679.330139	1062.380249	6907.998047	5528.419434	76.399780
679.659058	1060.596924	6931.329590	5543.650879	76.362770
679.987976	1054.355591	6981.260254	5575.453125	76.280922
680.316772	1047.371094	7003.328613	5607.923340	76.571266
680.645630	1050.937744	7045.384277	5635.044434	76.472557
680.974304	1054.875610	7073.544922	5641.359863	76.204292
681.302979	1054.652832	7096.727051	5651.835938	76.086174
681.631653	1048.857178	7128.231934	5655.849121	75.780685
681.960266	1047.668335	7153.865723	5666.994141	75.649796
682.288757	1044.919067	7175.710938	5690.696777	75.777779
682.617249	1049.748901	7154.832031	5710.089844	76.335419
682.945679	1046.479614	7100.070313	5696.714844	76.817802
683.274109	1050.863403	7049.916016	5655.774902	76.760643
683.602478	1049.005859	7004.369141	5588.084473	76.218330
683.930725	1054.281128	6953.619629	5538.970703	76.020210
684.259033	1051.606323	6883.850098	5490.005371	76.101051
684.587280	1050.789063	6806.649902	5446.835449	76.375130
684.915344	1043.210327	6746.390137	5381.969238	76.076134
685.243469	1052.349487	6684.125000	5324.235840	75.853279
685.571533	1049.451660	6641.994629	5276.682129	75.586914
685.899536	1055.024414	6586.416504	5244.509277	75.740150
686.227539	1055.692993	6543.468750	5213.673340	75.768044
686.555420	1050.566162	6514.342285	5196.731934	75.884621
686.883301	1052.498047	6514.416504	5179.716797	75.563538
687.211121	1047.817017	6521.104004	5180.683105	75.509766
687.538940	1060.299805	6516.349121	5178.974121	75.488220
687.866638	1058.665161	6510.404297	5185.140625	75.690994
688.194336	1056.584717	6488.113281	5177.859375	75.876884
688.521973	1052.943848	6484.695801	5169.908691	75.794418
688.849609	1056.213257	6446.355469	5156.683105	76.073502
689.177063	1053.463989	6423.841309	5124.435547	75.804199
689.504578	1053.538208	6340.845215	5069.303223	75.951050
689.832031	1050.491821	6269.143066	5025.241699	76.164314
690.159485	1051.829346	6182.952637	4976.127441	76.480293
690.486816	1055.990234	6134.878906	4933.700684	76.349586
690.814087	1057.699219	6070.681152	4872.326660	76.094978
691.141296	1056.659058	6005.740234	4808.872070	75.816353
691.468506	1049.451782	5917.171875	4741.405273	75.845642
691.795715	1047.594116	5826.447754	4670.892090	75.819397
692.122803	1050.194702	5732.975098	4600.750000	75.821518
692.449829	1050.789185	5660.307129	4553.419434	75.986908
692.776855	1049.377319	5607.255371	4512.552734	75.982185
693.103821	1052.349487	5579.466309	4498.955078	76.132462
693.430664	1045.216309	5541.645996	4465.816406	76.073692
693.757568	1044.027466	5495.205566	4421.680664	75.882233
694.084351	1039.792236	5441.559570	4376.727051	75.808975
694.411133	1042.764404	5383.455078	4344.926270	76.074577
694.737854	1053.018188	5355.665527	4310.449707	75.707611
695.064575	1056.361694	5323.195313	4278.499512	75.515900
695.391174	1060.448364	5305.734375	4277.979004	75.790672
695.717773	1053.389648	5286.490234	4284.369141	76.326546
696.044250	1048.931519	5255.728516	4286.672363	76.964516
696.370789	1043.210083	5262.638672	4282.511230	76.771088
696.697205	1046.182251	5291.542480	4284.220703	76.272408
697.023621	1049.451660	5349.127441	4298.932129	75.575012
697.349915	1054.578491	5409.015137	4328.431152	75.184296
697.676208	1042.541504	5470.537598	4378.064941	75.328056
698.002380	1039.569336	5546.326660	4440.479004	75.462456
698.328674	1039.866577	5645.892578	4489.295898	74.889488
698.654724	1050.640503	5738.993652	4561.295410	74.880341
698.980896	1052.869507	5828.380371	4633.517578	74.979370
699.306946	1060.819946	5872.589844	4701.950195	75.671333
699.632935	1062.751831	5901.939941	4728.104980	75.743141
699.958862	1066.838379	5926.459473	4732.414551	75.429260
700.284729	1060.596924	5938.199219	4718.668945	74.997337
700.610596	1057.922119	5914.570801	4694.074707	74.869583
700.936340	1045.142090	5844.206543	4636.489746	74.834328
701.262146	1039.866699	5738.176270	4574.447266	75.230904
701.587830	1038.529175	5629.322754	4500.367188	75.408272
701.913513	1049.897583	5510.587402	4420.565918	75.563835
702.239075	1050.268921	5391.331055	4318.770996	75.292679
702.564697	1050.566162	5262.267090	4227.304688	75.426491
702.890137	1044.919067	5150.664551	4135.169434	75.266487
703.215698	1048.634277	5045.601074	4062.501221	75.403854
703.541016	1047.445435	4951.830566	3979.727783	75.102280
703.866455	1050.046021	4851.076172	3926.452881	75.674400
704.191711	1058.293579	4790.519531	3878.081787	75.552444
704.517029	1060.299805	4727.361816	3833.202881	75.616478
704.842163	1056.956177	4690.136230	3782.900391	75.029152
705.167419	1052.572266	4636.192871	3735.643799	74.870415
705.492493	1052.423706	4611.970215	3707.037354	74.577309
705.817566	1052.423706	4558.025879	3683.408936	75.050888
706.142578	1048.559937	4533.951660	3651.607178	74.684502
706.467590	1053.315430	4511.066895	3635.408936	74.675507
706.792480	1054.801392	4507.574707	3634.369141	74.710022
707.117371	1054.207031	4492.045410	3632.139893	74.987030
707.442200	1043.061646	4480.305176	3628.796143	75.226974
707.766907	1043.433228	4485.877930	3614.901611	74.698898
708.091675	1046.776733	4500.961426	3623.892334	74.608513
708.416321	1053.909790	4499.475098	3623.446533	74.575180
708.741028	1055.618774	4505.196777	3628.573486	74.587517
709.065552	1060.671387	4497.543945	3634.072021	74.876228
709.390137	1064.163574	4516.490723	3650.492920	74.915535
709.714600	1066.764282	4534.323730	3666.541992	74.974281
710.039063	1064.089355	4578.013672	3696.634766	74.917534
710.363403	1064.609497	4616.354004	3713.873047	74.590492
710.687744	1063.420532	4671.412109	3764.101563	74.852753
711.012085	1055.916016	4697.863770	3780.447998	74.809746
711.336304	1051.606445	4743.560059	3810.614990	74.730316
711.660461	1055.618774	4772.018066	3817.970703	74.328720
711.984619	1059.631104	4802.630859	3843.531250	74.376175
712.308716	1057.996460	4788.959473	3845.760010	74.719681
712.632751	1051.383423	4767.337402	3841.450439	75.083458
712.956726	1046.925293	4728.328125	3806.899658	74.970726
713.280701	1046.850952	4693.554199	3785.723389	75.105446
713.604553	1053.835571	4651.573730	3752.435791	75.008240
713.928467	1056.733276	4621.777832	3732.523193	75.056290
714.252258	1055.470093	4586.930176	3693.439453	74.699112
714.575989	1058.145142	4547.178223	3636.746826	73.905907
714.899719	1053.092651	4492.862793	3598.852295	74.009590
715.223267	1051.977905	4449.469727	3570.097412	74.117020
715.546936	1044.696167	4405.110840	3558.060547	74.793282
715.870422	1046.405151	4372.789551	3536.809814	74.868225
716.193970	1044.547607	4336.826660	3512.884033	74.973488
716.517395	1045.290649	4304.950684	3496.017334	75.183502
716.840820	1046.330933	4262.003906	3461.169189	75.095894
717.164124	1050.194580	4235.105957	3433.157227	74.820374
717.487488	1043.730347	4201.224609	3398.680908	74.582901
717.810730	1048.634277	4184.357422	3370.520264	74.046272
718.133972	1047.073853	4139.181641	3344.662842	74.304939
718.457092	1048.485596	4105.819824	3306.916748	73.869293
718.780212	1046.330933	4040.433594	3273.926514	74.399445
719.103210	1047.445313	3989.610352	3224.143799	73.982880
719.426208	1047.073853	3929.499268	3198.509033	74.639748
719.749207	1044.324829	3898.366455	3157.494141	74.041298
720.072083	1043.879028	3853.487549	3132.379883	74.334236
720.394958	1050.937866	3816.336670	3097.308838	73.999123
720.717773	1054.355713	3762.169678	3067.736328	74.354469
721.040527	1054.652954	3733.934570	3028.876221	73.684799
721.363281	1052.200806	3699.309326	2993.507813	73.336891
721.685913	1046.182251	3675.309814	2981.545166	73.612366
722.008545	1055.247192	3641.130127	2965.496094	73.872215
722.331055	1050.194702	3613.266846	2955.390625	74.332512
722.653503	1049.971680	3591.942139	2932.728516	74.066826
722.976013	1037.786011	3570.171631	2936.592041	74.980919
723.298401	1044.250488	3559.471924	2924.554932	74.757011
723.620789	1046.776733	3547.434814	2918.982422	74.868515
723.943115	1044.547607	3534.357422	2900.035156	74.523262
724.265381	1042.467163	3536.883545	2892.381836	74.162224
724.587585	1045.067749	3536.735107	2888.220947	73.972679
724.909790	1051.680664	3533.762939	2887.849609	73.976959
725.231873	1050.046021	3519.719971	2885.546143	74.321564
725.553894	1053.389648	3507.682861	2877.075928	74.305969
725.875916	1098.268433	3557.762695	2922.400391	74.166954
726.197937	1099.531738	3568.536865	2932.579834	74.242378
726.519775	1101.017578	3597.291992	2943.279297	73.800446
726.841675	1055.915894	3578.122070	2900.183838	73.121223
727.163513	1055.544434	3590.976318	2898.697998	72.695839
727.485291	1049.005859	3590.382080	2909.100342	73.192406
727.806946	1050.120239	3597.812500	2935.254639	73.993797
728.128662	1042.987305	3606.951172	2948.034424	74.300858
728.450256	1050.046021	3637.712646	2957.991455	73.732277
728.771790	1051.309204	3649.526611	2956.282227	73.318466
729.093323	1058.590820	3655.173828	2963.192383	73.350304
729.414795	1057.030396	3649.898438	2961.929443	73.466866
729.736145	1053.761108	3645.737305	2966.015869	73.775940
730.057495	1051.754883	3640.536133	2973.371826	74.228630
730.378845	1054.058472	3641.353516	2968.096436	73.978348
730.700134	1054.504272	3645.142822	2968.022217	73.862785
731.021301	1058.368042	3661.117920	2972.331299	73.536194
731.342468	1045.587891	3649.675537	2977.532959	74.188942
731.663574	1051.680664	3638.975830	2965.272705	73.961105
731.984680	1042.392944	3625.155518	2956.653564	74.116783
732.305664	1050.640503	3643.805420	2956.133789	73.481377
732.626648	1043.804688	3656.510986	2976.641357	73.978340
732.947571	1049.451660	3670.034180	2971.142822	73.330688
733.268433	1049.525879	3673.972656	2985.037354	73.749313
733.589233	1051.457886	3670.703125	2967.130859	73.138359
733.909973	1054.727173	3633.997314	2951.229736	73.528656
734.230713	1054.132690	3590.604492	2917.867920	73.477470
734.551331	1053.538208	3549.960938	2887.849609	73.477592
734.871948	1048.411377	3538.815674	2862.140625	72.828705
735.192505	1044.844849	3499.137939	2837.843750	73.055618
735.513062	1040.163696	3451.584229	2813.695313	73.547173
735.833435	1042.244263	3393.702393	2782.339844	74.000710
736.153931	1043.581787	3350.086914	2739.467041	73.526184
736.474304	1048.783081	3326.978516	2707.293945	72.799324
736.794617	1050.566284	3305.282227	2690.873047	72.750046
737.114807	1048.039917	3295.920166	2678.464600	72.531647
737.434998	1047.222656	3280.688232	2676.904297	72.966499
737.755188	1050.343384	3272.663330	2670.885742	72.921204
738.075256	1055.544434	3272.663330	2679.653320	73.253128
738.395325	1049.823242	3286.260742	2683.442871	73.045616
738.715271	1045.142090	3305.430908	2701.126709	73.264290
739.035278	1050.566284	3314.272705	2705.584961	73.111008
739.355164	1060.299927	3325.418213	2705.807861	72.645569
739.675049	1066.095337	3330.322266	2712.718018	72.723389
739.994873	1062.900391	3330.099365	2716.210205	72.923012
740.314636	1054.504150	3307.957031	2711.232178	73.519531
740.634277	1050.120239	3292.947998	2695.182617	73.347694
740.953979	1049.451660	3266.644775	2679.207520	73.505363
741.273499	1053.463989	3253.864502	2665.610107	73.266037
741.593140	1048.188477	3223.177490	2646.439941	73.483200
741.912598	1045.439331	3194.793945	2619.468018	73.232620
742.232117	1039.569336	3161.283203	2594.205322	73.272652
742.551453	1043.953247	3119.302490	2559.060059	73.004913
742.870850	1042.021362	3082.968506	2532.905518	73.048637
743.190063	1048.634277	3038.312500	2496.943115	72.791107
743.509338	1044.250488	3005.322266	2470.490967	72.727600
743.828552	1042.467163	2993.433838	2450.577881	72.175026
744.147705	1040.981079	2970.548584	2438.689697	72.436371
744.466797	1044.399048	2940.084717	2427.989990	72.986305
744.785828	1044.844849	2909.100342	2408.225586	73.132721
745.104858	1050.863403	2888.741211	2396.411377	73.212044
745.423706	1057.030518	2888.444092	2381.179199	72.302002
745.742615	1067.878662	2873.211914	2378.281494	72.585091
746.061401	1067.581421	2867.862305	2370.331055	72.363686
746.380249	1063.048950	2846.314453	2360.151611	72.737495
746.698975	1063.717896	2828.407227	2356.882080	73.279991
747.017639	1062.454712	2815.033203	2342.690430	73.048698
747.336304	1065.723999	2818.525391	2334.739990	72.399300
747.654907	1060.894165	2814.587158	2328.275635	72.269287
747.973389	1059.854126	2817.707764	2326.120850	72.034821
748.291931	1050.566162	2803.070313	2336.077393	73.352821
748.610352	1050.268921	2807.231201	2325.675293	72.591560
748.928711	1051.532104	2802.698486	2328.052979	72.895462
749.247070	1060.374146	2801.063721	2317.501709	72.220093
749.565308	1053.909790	2802.030029	2317.204590	72.265900
749.883545	1050.937622	2788.655518	2315.346924	72.762634
750.201782	1046.628052	2792.742188	2301.452393	71.863823
750.519836	1046.628052	2786.203857	2289.489746	71.446251
750.837952	1050.863403	2780.927979	2283.619873	71.254936
751.155884	1047.891235	2769.410889	2284.065674	71.807167
751.473877	1050.417603	2735.826172	2278.938721	72.891594
751.791809	1042.541626	2717.621826	2264.672607	72.959549
752.109619	1045.216431	2715.689941	2255.013184	72.422386
752.427490	1047.891235	2727.207031	2253.453125	71.788872
752.745300	1047.222534	2736.346436	2261.106201	71.864693
753.062988	1049.154297	2723.343018	2251.447021	71.813454
753.380615	1046.405273	2727.801514	2252.189697	71.713280
753.698303	1053.612549	2712.866455	2241.787354	71.608978
754.015808	1046.850952	2706.030762	2242.827637	72.082405
754.333374	1046.702393	2689.758545	2239.483887	72.595299
754.650757	1036.968750	2696.965820	2236.140381	72.239380
754.968262	1045.810791	2697.486084	2236.214844	72.072525
755.285583	1053.835571	2698.006104	2233.465576	71.746208
755.602905	1063.940674	2682.031006	2216.004395	71.198975
755.920105	1064.609497	2678.835938	2204.561768	70.619102
756.237305	1058.070801	2663.083984	2203.595703	71.371681
756.554443	1054.429932	2658.254150	2198.766357	71.350487
756.871582	1054.429810	2644.210938	2211.769287	72.798668
757.188599	1056.733276	2653.275879	2205.453369	71.950485
757.505615	1055.692993	2669.993896	2218.456299	72.028908
757.822510	1048.634277	2699.492188	2219.199463	70.906479
758.139465	1049.971802	2714.947266	2222.394287	70.416801
758.456238	1047.371216	2714.724365	2236.660645	71.327988
758.773010	1054.281250	2713.535400	2245.056885	71.765717
759.089783	1048.485718	2723.268799	2254.196045	71.992027
759.406433	1053.984009	2735.603271	2256.276367	71.496109
759.723145	1053.612549	2754.550537	2258.356689	70.828224
760.039673	1055.024292	2751.058350	2259.248291	71.002350
760.356201	1049.748657	2754.624756	2272.919922	71.745461
760.672668	1049.154419	2737.757813	2266.530273	72.093651
760.989136	1048.337036	2738.129639	2266.307373	72.078094
761.305481	1046.851074	2736.271729	2262.592041	71.962006
761.621826	1047.371216	2742.067627	2275.966553	72.496483
761.938049	1048.262817	2749.349365	2282.802490	72.573593
762.254333	1048.783081	2774.463623	2283.916992	71.573730
762.570496	1051.903687	2830.041992	2317.873291	71.196350
762.886597	1056.138794	2899.589600	2374.269043	71.503410
763.202637	1057.699097	3008.962891	2450.503662	71.379616
763.518677	1048.782837	3147.017578	2545.908447	71.351669
763.834656	1044.770508	3301.864502	2645.176758	70.905609
764.150574	1043.061523	3423.720703	2749.646484	71.685394
764.466370	1041.724121	3480.190674	2794.822510	71.893478
764.782288	1034.145142	3502.035889	2817.113281	72.246643
765.097961	1041.724243	3478.184570	2797.051758	72.044159
765.413696	1046.182373	3435.980469	2761.757813	71.787460
765.729309	1056.138916	3344.662842	2686.043457	71.220779
766.044861	1057.253418	3228.601807	2597.771729	70.947540
766.360474	1061.488647	3102.064453	2499.246338	70.458427
766.675903	1055.990234	2981.694092	2416.993408	70.675621
766.991394	1049.451538	2881.385010	2345.737061	70.760513
767.306763	1046.033691	2787.094971	2282.059570	70.992668
767.622131	1047.965698	2707.591309	2232.722412	71.386986
767.937378	1049.154419	2647.480469	2178.407227	70.652222
768.252625	1048.114136	2584.991699	2148.166016	71.577065
768.567810	1045.216431	2545.016846	2110.345947	71.018082
768.882996	1046.330933	2496.719971	2083.002441	71.475410
769.197998	1046.108032	2466.850586	2050.680908	70.707596
769.513062	1052.572388	2431.110840	2028.241333	70.775604
769.828064	1055.395874	2410.825928	2006.544922	70.173233
770.142944	1061.042847	2389.204102	1991.089966	70.025169
770.457825	1060.299805	2362.900879	1978.755859	70.509392
770.772705	1061.117188	2329.018799	1959.660034	70.868500
771.087402	1059.631104	2303.904541	1950.966431	71.635002
771.402100	1054.281250	2289.786865	1935.214355	71.301422
771.716736	1049.525879	2274.629150	1930.235962	71.888641
772.031372	1043.135864	2259.619873	1904.155640	70.779373
772.345947	1050.268921	2240.004150	1880.230469	69.760193
772.660461	1051.903687	2220.388428	1872.502808	70.227631
772.974854	1046.999634	2211.843506	1867.524536	70.440765
773.289246	1039.643677	2200.252197	1865.741211	71.177963
773.603638	1037.711792	2194.159424	1855.413086	70.708023
773.917908	1041.872681	2169.862549	1855.636108	72.142799
774.232178	1044.919067	2152.401367	1852.441040	72.915115
774.546265	1045.290649	2138.506592	1839.215210	72.622849
774.860474	1047.817017	2139.472656	1820.193726	70.752777
775.174561	1049.748901	2136.351807	1811.128906	70.069756
775.488586	1050.046021	2125.132080	1808.825562	70.578491
775.802551	1044.250488	2108.934082	1805.258911	71.477425
776.116516	1043.656128	2084.636963	1796.491211	72.319786
776.430359	1036.894409	2070.891113	1784.825684	72.334007
776.744202	1040.015137	2054.247314	1777.469727	72.710625
777.057922	1032.064819	2062.420654	1774.051758	72.012688
777.371704	1036.745972	2059.596924	1775.686523	72.243225
777.685303	1040.981201	2059.671143	1774.200562	71.976692
777.998962	1051.086304	2052.240967	1773.011719	72.109276
778.312500	1057.848022	2043.250366	1755.327515	70.781189
778.626038	1058.293701	2032.253540	1742.993286	70.300598
778.939453	1058.070679	2027.498413	1730.436157	69.356949
779.252869	1055.618774	2028.835571	1734.002563	69.705307
779.566223	1050.937622	2036.043091	1729.024414	68.833931
779.879578	1047.445435	2030.842163	1727.463989	69.149971
780.192749	1045.067749	2029.950562	1717.878906	68.313828
780.505920	1049.154419	2019.102173	1725.755005	69.756393
780.819031	1046.702515	2007.065063	1723.971680	70.522240
781.132141	1055.916016	2005.207642	1726.943970	70.687233
781.445190	1061.265869	2002.532593	1712.231934	69.158516
781.758118	1066.392700	2001.269531	1703.464233	68.144966
782.071045	1066.838501	1978.012695	1700.343384	69.526207
782.383911	1062.900391	1965.529907	1697.742798	70.332558
782.696838	1060.522827	1957.282349	1684.739868	69.608078
783.009583	1057.550659	1959.288452	1681.173340	69.157875
783.322266	1055.098633	1942.347290	1671.291016	69.449799
783.634888	1053.166870	1929.344360	1666.907227	70.047493
783.947510	1043.953247	1913.815063	1654.944458	70.240028
784.260132	1044.473267	1911.288696	1648.851685	69.724007
784.572571	1045.587891	1900.960815	1654.498657	71.186584
784.885010	1044.919067	1899.177612	1642.313110	69.931290
785.197449	1045.364990	1893.307617	1642.461792	70.417122
785.509766	1045.736572	1888.032227	1634.288452	69.874741
785.822083	1051.680786	1882.236450	1638.226440	70.620872
786.134277	1050.194702	1889.518188	1634.511230	69.617561
786.446533	1054.652954	1883.202515	1631.019043	69.563263
786.758606	1052.423828	1886.769043	1625.297852	68.661507
787.070740	1053.166870	1877.183960	1632.876587	70.351662
787.382690	1047.965454	1886.768921	1637.186157	70.245384
787.694641	1048.039795	1892.044556	1650.709351	71.405945
788.006653	1045.216309	1919.536499	1662.374878	70.587250
788.318481	1042.021362	1951.635254	1685.408691	70.731918
788.630310	1039.494995	1975.486450	1704.801758	71.080429
788.942017	1044.547485	1982.173828	1705.024536	70.441391
789.253784	1048.114136	1990.495605	1709.334106	70.164787
789.565430	1051.309204	1994.359375	1707.848145	69.618668
789.877014	1049.451660	1984.997070	1714.238159	71.058708
790.188538	1052.126465	1974.966187	1692.690308	69.412254
790.500061	1048.114136	1953.790039	1678.424194	69.595543
790.811462	1049.600220	1931.276245	1655.316040	68.700500
791.122925	1043.878906	1902.669800	1650.783691	70.669678
791.434204	1048.782959	1881.790649	1625.966431	69.289093
791.745483	1043.210327	1868.787720	1612.071777	68.904678
792.056702	1044.399048	1856.156250	1599.068848	68.329521
792.367920	1043.581665	1839.363892	1589.558105	68.608772
792.678955	1049.005737	1814.769653	1584.134155	69.881645
792.990112	1052.869507	1796.416992	1567.564453	69.221527
793.301086	1048.262817	1793.147583	1564.221069	69.266853
793.612122	1046.256592	1801.395142	1564.072266	68.572273
793.922974	1052.126465	1796.268188	1569.124878	69.475800
794.233826	1055.544434	1790.546997	1565.038208	69.318642
794.544556	1049.451660	1791.141235	1555.081665	68.172729
794.855286	1046.405273	1794.113403	1551.960938	67.614037
795.166016	1051.457886	1801.766602	1562.363281	68.092690
795.476624	1061.340210	1808.676758	1576.332397	68.910347
795.787292	1064.089233	1822.274414	1596.765503	70.256752
796.097778	1056.659058	1831.265015	1608.282349	71.213409
796.408264	1061.488647	1842.633179	1617.050171	71.121475
796.718689	1056.584595	1855.041626	1615.266968	69.970245
797.029053	1059.482544	1857.419434	1618.759155	70.090332
797.339355	1051.680664	1850.434937	1612.740601	70.241867
797.649658	1050.937622	1848.428711	1605.013062	69.477318
797.959839	1046.405273	1846.497070	1588.592163	67.765587
798.270020	1043.358887	1841.667358	1584.059570	67.730797
798.580078	1047.296875	1819.747925	1581.756226	69.190063
798.890137	1054.058228	1814.472534	1576.629395	68.721901
799.200195	1058.442261	1801.246460	1570.313599	68.910667
799.510071	1052.943848	1794.187866	1560.505737	68.474335
799.820007	1056.213257	1780.293335	1545.125000	67.521774
800.129883	1051.309204	1772.417114	1537.397583	67.408546
800.439575	1049.748901	1748.714722	1531.230469	68.884850
800.749329	1043.730347	1736.826172	1534.796997	70.851189
801.058960	1046.182373	1735.786011	1523.503052	69.216667
801.368591	1050.714844	1745.222290	1507.156372	65.721619
801.678162	1048.931519	1738.609375	1502.475220	65.761673
801.987671	1051.755005	1723.897461	1503.664185	67.234138
802.297119	1050.417603	1715.501343	1506.710571	68.606842
802.606506	1051.086304	1705.916016	1503.292603	69.057083
802.915894	1041.426880	1706.733398	1498.388672	68.684402
803.225159	1035.631348	1707.179321	1500.023315	69.152466
803.534424	1036.820190	1705.321899	1503.664063	69.834358
803.843628	1045.067749	1697.074219	1506.710571	70.803413
804.152771	1054.429810	1693.656250	1511.985962	71.579666
804.461792	1057.550537	1699.154663	1501.955078	69.264603
804.770874	1053.761230	1708.293945	1500.171875	68.202957
805.079773	1054.727051	1711.414551	1486.723145	65.784119
805.388733	1049.600098	1710.299927	1498.908813	68.004967
805.697571	1051.160522	1714.683960	1513.472046	69.675240
806.006470	1040.386719	1728.801392	1525.806274	70.512665
806.315125	1043.953247	1741.061401	1525.731934	69.111038
806.623901	1046.405151	1738.535034	1516.444214	67.911972
806.932495	1057.550537	1731.401978	1515.998413	68.033966
807.241150	1056.213135	1715.649902	1513.769409	69.385918
807.549622	1057.847778	1712.677734	1507.825195	68.716682
807.858154	1058.739380	1699.897827	1506.041870	69.764732
808.166565	1054.207031	1699.080200	1505.521851	69.985054
808.474915	1054.504272	1689.346680	1505.893188	71.102516
808.783264	1046.702393	1678.795776	1495.639526	71.023865
809.091492	1050.046021	1667.278809	1481.967773	69.977127
809.399719	1047.816895	1659.848511	1471.045288	69.151390
809.707825	1056.361816	1659.848267	1462.797729	67.347977
810.015930	1060.968628	1656.504761	1462.946289	67.498451
810.323975	1058.070679	1646.473999	1455.738892	67.584290
810.632080	1050.789063	1642.981812	1457.224976	68.632370
810.939880	1047.742676	1628.418335	1449.200317	69.136299
811.247864	1048.262817	1629.310059	1449.051758	68.976997
811.555664	1047.668335	1618.461914	1441.026855	68.914322
811.863464	1042.318481	1625.892212	1443.107422	68.678375
812.171143	1040.535278	1616.381348	1440.655273	69.483849
812.478882	1044.919067	1613.483521	1441.695679	69.785690
812.786438	1055.098511	1602.783813	1433.150879	69.027298
813.094055	1056.807617	1610.734375	1428.841309	67.162971
813.401489	1051.011963	1609.396851	1429.287109	67.744514
813.708984	1050.714722	1613.186401	1439.986694	69.207390
814.016357	1052.795288	1602.115234	1445.113647	71.418915
814.323730	1049.897583	1594.759399	1444.073364	72.344177
814.630981	1048.857300	1589.038086	1432.407837	71.004105
814.938232	1042.318726	1586.585938	1428.692749	70.989769
815.245361	1048.857178	1591.415649	1428.172485	69.912338
815.552490	1047.742554	1597.434204	1426.983765	68.991623
815.859619	1054.429810	1601.372192	1427.652466	68.238022
816.166565	1056.510376	1608.802612	1423.937378	66.527641
816.473572	1051.234985	1607.762329	1429.287109	67.930557
816.780457	1049.971802	1615.043945	1432.705078	67.731758
817.087341	1046.182251	1615.712524	1434.339844	68.153984
817.394043	1048.039917	1619.279175	1433.819702	67.533836
817.700806	1049.005737	1615.861328	1438.946655	68.790169
818.007507	1050.789063	1610.065552	1448.531616	71.117340
818.314209	1053.686890	1618.610352	1456.184692	71.248199
818.620667	1051.234863	1629.978882	1461.237305	70.843483
818.927246	1052.572388	1648.331543	1466.141235	69.418800
819.233704	1053.686890	1669.136353	1484.122437	69.938408
819.540161	1054.578491	1702.275391	1504.852905	69.519310
819.846497	1056.881958	1744.999390	1535.614258	69.571312
820.152832	1053.241089	1792.776001	1567.638794	69.556923
820.458984	1054.504272	1856.007813	1600.852051	68.165359
820.765259	1043.358887	1932.911133	1644.467773	67.574318
821.071350	1049.005859	2027.275391	1701.086548	66.656548
821.377502	1048.188599	2185.986084	1816.850098	67.556969
821.683472	1047.668335	2497.388672	2031.733765	67.879677
821.989441	1038.974976	3045.296875	2397.005859	67.687584
822.295349	1040.758301	3810.169189	2910.586182	67.517174
822.601196	1045.662231	4659.152344	3483.831787	67.474083
822.907043	1046.405273	5368.966309	3966.799561	67.561668
823.212769	1047.148315	5766.782715	4219.874512	67.223984
823.518494	1051.829346	5791.599609	4225.298340	66.954063
823.824097	1054.950073	5505.533691	4036.941162	67.002251
824.129700	1049.228760	5080.447754	3763.209961	67.324081
824.435242	1045.290771	4628.613770	3473.578125	67.766357
824.740723	1046.628174	4252.865234	3230.533447	68.114281
825.046082	1046.553833	3897.029297	3002.870361	68.631233
825.351501	1047.817017	3569.800049	2761.757813	67.960045
825.656799	1047.296875	3240.193115	2519.010986	67.112801
825.962036	1052.200806	2952.567139	2320.697021	66.750092
826.267212	1052.126465	2748.234375	2194.159424	67.332565
826.572449	1047.445435	2657.733887	2143.484619	68.064774
826.877502	1038.157593	2701.052490	2165.775635	67.810539
827.182495	1031.619019	2847.280518	2263.334961	67.838409
827.487488	1030.058716	3026.126953	2380.733398	67.666756
827.792419	1038.380493	3164.255859	2460.906006	66.914810
828.097290	1051.829224	3186.249268	2478.664551	66.848854
828.402100	1060.671265	3105.630859	2431.853760	67.051811
828.706848	1063.866211	2954.721924	2346.553955	67.836365
829.011597	1054.950073	2770.897217	2225.589355	68.221176
829.316223	1044.399048	2586.403564	2088.946533	67.739586
829.620789	1040.015137	2425.018066	1979.721680	67.848701
829.925354	1043.284546	2276.041016	1879.338745	67.819901
830.229797	1053.761230	2155.224854	1800.280640	67.775223
830.534302	1060.151245	2025.863647	1710.151367	67.307838
830.838562	1054.058472	1920.725220	1637.483398	67.318253
831.142944	1047.296875	1821.902710	1573.880249	67.980820
831.447144	1040.609497	1747.674316	1527.589722	68.873489
831.751404	1045.810791	1699.228882	1494.524902	68.671822
832.055542	1047.445435	1672.405640	1477.509399	68.814613
832.359619	1040.163696	1664.381226	1472.011230	69.182220
832.663635	1043.804565	1674.857788	1476.543579	68.574089
832.967651	1044.919067	1707.253540	1500.469116	68.779457
833.271545	1051.680786	1779.773071	1539.626587	67.017029
833.575439	1044.993530	1887.140625	1616.827148	67.901871
833.879211	1042.987427	2021.925781	1708.516968	67.984825
834.183044	1041.501343	2150.023438	1789.655273	67.491119
834.486694	1047.519653	2241.118652	1852.738403	67.461411
834.790344	1049.228760	2280.945068	1877.035522	67.207581
835.093933	1052.869629	2261.031982	1876.812500	68.198029
835.397522	1044.027466	2204.264648	1830.670532	67.800194
835.700928	1044.176147	2117.999023	1768.924805	67.492386
836.004395	1041.426880	2041.392944	1714.906860	67.350281
836.307739	1045.662231	1965.752808	1668.096191	67.649208
836.611023	1042.244263	1899.771973	1625.223511	67.983719
836.914307	1045.067749	1824.651978	1579.378540	68.537918
837.217529	1044.770508	1746.411133	1534.796997	69.840096
837.520691	1050.937744	1670.473633	1480.853149	69.393143
837.823730	1055.321655	1607.316406	1431.144653	68.084526
838.126831	1059.408203	1563.998047	1396.593872	66.823715
838.429749	1052.275024	1539.700806	1377.646851	66.753105
838.732727	1043.433105	1518.301758	1368.358887	68.424347
839.035522	1036.299927	1502.772461	1350.972046	67.457802
839.338379	1041.575562	1488.729370	1341.387085	67.048859
839.641113	1048.188354	1485.757324	1340.643921	66.836449
839.943848	1059.333862	1500.840698	1347.628418	65.297867
840.246460	1055.098633	1534.202637	1370.662109	65.865341
840.549072	1051.457886	1572.617188	1383.070679	63.629833
840.851563	1050.491821	1587.328979	1408.556641	66.698967
841.154053	1059.110962	1588.592163	1410.934204	66.446785
841.456482	1063.494751	1570.982422	1399.789063	66.266502
841.758850	1055.098755	1555.453125	1377.721069	64.478767
842.061157	1057.847778	1523.874512	1359.442627	64.716209
842.363403	1053.092407	1504.333008	1346.439575	65.009033
842.665588	1054.281250	1477.807007	1327.269653	64.456154
842.967712	1047.965454	1470.525024	1319.393433	64.234253
843.269775	1052.498047	1449.051758	1310.402710	65.036499
843.571777	1056.956177	1430.698853	1299.851685	64.990036
843.873840	1060.522827	1402.686646	1278.452637	63.691658
844.175659	1063.197632	1385.671387	1259.654175	60.921715
844.477600	1061.117188	1377.646606	1251.035034	60.000061
844.779297	1055.470215	1363.603394	1240.929810	60.188129
845.081116	1053.389648	1354.538452	1240.112427	62.003494
845.382751	1051.532104	1341.609985	1233.945313	62.884220
845.684387	1049.525879	1329.052734	1231.344727	65.045219
845.985962	1051.532104	1313.597778	1222.874268	65.381386
846.287537	1056.807617	1309.511108	1222.131226	65.421974
846.588989	1060.299805	1305.498901	1219.307739	64.848503
846.890381	1061.340088	1306.762085	1229.189941	68.392342
847.191711	1059.705444	1304.755859	1228.372681	68.829605
847.493042	1066.987183	1301.486450	1234.242554	71.324478
847.794250	1059.333862	1304.681641	1223.319946	66.838219
848.095459	1059.333862	1296.211060	1221.462402	68.444130
848.396606	1050.714844	1292.570190	1212.248901	66.789536
848.697693	1053.686890	1285.139893	1216.187012	70.208687
848.998657	1053.538330	1284.025391	1207.939331	66.989014
849.299622	1051.234863	1292.941650	1206.156128	64.094711
849.600464	1046.628052	1287.740479	1195.456421	61.725716
849.901367	1044.250488	1290.563965	1198.057007	62.443405
850.202087	1047.965576	1283.282349	1195.159302	62.551311
850.502808	1050.194702	1276.000610	1191.890015	62.750931
850.803467	1048.485718	1270.130737	1188.843628	63.325542
851.104065	1045.216431	1268.644653	1195.382202	67.209846
851.404663	1044.101929	1274.737427	1202.812378	68.814407
851.705139	1043.581787	1278.081055	1202.292358	67.680626
852.005615	1037.934692	1270.130737	1196.125122	68.127960
852.306030	1035.482788	1266.266968	1195.753784	69.446266
852.606384	1034.516724	1262.849121	1202.886719	73.738983
852.906616	1046.405151	1264.409546	1212.620483	76.244026
853.206909	1049.526001	1261.140015	1214.923828	78.160149
853.506958	1056.213257	1266.712769	1209.202515	72.679153
853.807129	1051.309204	1267.530029	1194.713501	66.323074
854.107178	1050.714844	1272.211060	1190.106689	62.931931
854.407166	1047.817017	1256.979126	1191.964233	68.916504
854.707092	1052.052368	1262.626099	1195.382202	68.066338
855.007019	1050.640503	1255.864624	1190.478149	68.138992
855.306763	1051.977905	1255.567505	1181.933350	63.832066
855.606567	1052.200806	1252.075195	1179.852905	63.866161
855.906250	1048.114258	1258.093750	1179.184204	62.420357
856.205933	1038.454712	1261.957397	1186.985962	66.456139
856.505493	1035.482666	1258.613770	1180.893066	65.168144
856.805054	1045.290649	1257.647827	1180.967407	63.890827
857.104492	1063.866455	1264.929565	1177.698120	56.614895
857.403931	1063.420654	1271.245239	1186.391479	59.170490
857.703308	1063.049072	1275.777710	1187.283203	58.400284
858.002563	1051.234985	1262.180298	1181.487671	61.747135
858.301819	1052.498047	1253.412476	1181.264771	64.090332
858.601013	1047.742798	1244.050415	1178.441284	66.578407
858.900208	1047.222534	1254.378540	1180.001587	64.096161
859.199219	1039.494995	1261.362915	1180.224487	63.429401
859.498291	1041.203979	1266.489990	1178.738403	61.048809
859.797302	1039.940796	1269.610718	1183.716675	62.601093
860.096191	1045.959351	1263.443604	1182.973633	62.999634
860.395020	1047.073853	1257.350708	1188.917847	67.455826
860.693787	1050.937744	1248.954468	1186.094360	68.255150
860.992554	1054.801392	1256.161865	1184.831177	64.575623
861.291260	1053.241089	1258.911011	1188.769287	65.895973
861.589844	1058.516479	1265.746826	1188.472046	62.710682
861.888428	1058.293579	1253.486816	1187.060425	65.968910
862.186890	1054.652832	1245.685059	1182.304932	66.822289
862.485413	1046.256714	1229.189941	1183.493652	75.020233
862.783813	1046.553833	1237.586060	1182.081909	70.945137
863.082153	1050.343262	1244.124634	1177.400879	65.567505
863.380371	1054.355591	1256.607544	1174.577393	59.441601
863.678589	1056.510376	1250.143188	1178.366821	62.931713
863.976746	1061.339966	1256.087524	1178.515503	60.167912
864.274902	1061.562988	1254.006958	1185.351318	64.324348
864.572937	1061.934570	1256.087524	1186.020020	63.911182
864.870911	1055.098755	1253.189697	1189.289307	67.741890
865.168884	1059.036743	1251.406372	1181.710449	63.769791
865.466736	1053.761230	1245.090698	1181.859009	66.951408
865.764587	1063.197632	1239.740967	1184.682617	68.813126
866.062317	1058.219238	1231.567749	1189.958130	75.996552
866.360107	1063.123291	1239.518188	1186.614624	70.008453
866.657715	1055.172974	1242.341675	1177.772461	65.502129
866.955322	1052.646606	1258.985352	1173.611450	58.624397
867.252808	1045.587891	1257.499268	1181.859009	64.305710
867.550293	1049.228638	1259.876953	1178.366821	61.305111
867.847717	1053.018188	1252.149414	1177.029419	62.276134
868.145081	1055.990234	1255.715942	1169.524780	56.845234
868.442383	1053.984009	1254.601318	1178.292603	61.963043
868.739624	1054.652710	1256.904785	1177.623901	60.800953
869.036804	1046.925293	1265.523926	1181.041748	61.352833
869.333984	1046.925293	1262.477661	1176.583496	60.151604
869.631042	1046.999634	1254.229858	1177.698120	63.069221
869.928101	1058.442383	1240.261108	1170.416382	61.585514
870.224976	1051.829468	1248.582886	1168.187378	59.138954
870.521851	1052.052246	1257.647827	1169.153198	56.956940
870.818726	1045.142090	1266.712769	1172.125488	57.310562
871.115479	1053.092407	1264.632324	1184.236694	61.995056
871.412231	1053.018188	1268.570313	1184.385376	60.944511
871.708862	1051.457642	1267.009888	1185.351440	62.116634
872.005493	1042.392822	1264.632324	1185.871460	64.560364
872.302063	1040.906860	1258.390869	1188.472168	67.851105
872.598572	1043.878906	1255.121582	1195.307983	71.684891
872.895020	1048.559937	1267.604492	1188.769287	64.009514
873.191406	1039.866577	1278.006836	1191.741333	63.775337
873.487671	1039.495117	1282.539429	1187.877563	61.051601
873.783997	1040.238159	1278.675659	1193.747559	64.381401
874.080200	1050.417603	1277.932495	1189.512207	61.136482
874.376343	1052.943848	1281.053223	1190.106567	60.130241
874.672424	1054.207031	1273.622925	1197.388306	65.255653
874.968445	1055.395874	1275.777710	1206.676270	68.644676
875.264465	1055.990356	1271.096680	1212.768921	72.884216
875.560364	1052.795288	1272.805542	1204.001343	68.726822
875.856201	1044.844849	1277.115112	1194.193237	64.299400
876.152039	1046.405273	1277.115112	1193.598877	63.800316
876.447754	1050.863403	1283.951050	1196.199585	62.352589
876.743469	1058.070679	1267.084351	1206.081787	70.814079
877.039063	1056.510376	1270.799438	1201.177856	67.510437
877.334595	1062.751831	1266.564209	1196.793945	65.767403
877.630127	1067.061401	1271.170898	1194.787720	62.577351
877.925537	1067.655762	1274.143066	1197.834106	63.044235
878.221008	1056.361694	1280.755981	1200.657715	64.304680
878.516296	1045.290771	1287.889038	1198.428589	63.124035
878.811646	1039.940918	1292.644409	1199.543091	63.157883
879.106812	1045.142090	1303.864136	1213.289185	64.991409
879.401978	1044.770630	1317.387329	1226.589355	66.693909
879.697083	1044.250488	1336.185913	1242.713013	67.981651
879.992126	1044.176147	1351.566406	1253.264038	68.020340
880.287109	1042.244263	1387.380493	1279.195679	68.654457
880.582031	1042.541504	1459.008179	1321.548218	66.993767
880.876892	1040.758179	1583.539673	1409.225464	67.885010
881.171753	1046.182251	1810.757446	1556.344727	66.724960
881.466492	1049.377319	2133.454102	1769.890747	66.463318
881.761230	1051.086304	2538.255371	2018.284790	65.036217
882.055786	1047.519653	2911.254883	2262.592041	65.195549
882.350403	1045.290649	3161.655273	2418.107666	64.866753
882.644958	1041.055298	3239.969971	2476.658203	65.286888
882.939453	1039.569336	3172.428955	2423.457275	64.884155
883.233826	1036.745850	3035.860596	2339.495361	65.166321
883.528137	1036.597290	2876.258545	2250.926514	66.008308
883.822449	1035.854370	2726.315430	2163.769287	66.722328
884.116577	1038.900635	2593.313721	2083.374023	67.194069
884.410828	1042.615723	2460.980225	1989.752441	66.776680
884.704956	1040.163696	2303.458740	1873.542969	65.968697
884.999023	1036.522949	2122.903076	1747.822876	65.474312
885.292969	1029.761353	1935.511597	1621.954102	65.381462
885.586914	1040.981079	1791.884399	1531.453491	65.317650
885.880798	1048.411377	1675.674927	1462.649048	66.038857
886.174622	1053.984009	1604.270142	1413.980835	65.419937
886.468384	1054.207031	1543.564819	1371.405273	64.819290
886.762085	1054.281250	1501.509399	1336.408691	63.083561
887.055664	1061.265747	1464.283691	1304.904297	60.453526
887.349304	1057.402100	1430.327515	1294.501953	63.578358
887.642822	1051.903687	1409.151001	1278.972656	63.560722
887.936340	1042.244263	1394.364746	1274.366089	65.921135
888.229736	1042.838745	1381.138794	1261.883179	64.748566
888.523071	1044.399048	1360.482666	1252.223755	65.749916
888.816284	1052.943970	1339.529419	1239.295044	65.024612
889.109619	1053.835571	1327.789551	1231.939087	65.012199
889.402710	1060.299805	1319.913574	1228.223999	64.682312
889.695862	1055.395874	1310.551392	1221.313843	65.026215
889.988892	1059.408325	1295.096313	1208.533813	63.272419
890.281921	1064.386475	1274.142944	1193.227417	61.424061
>>>>>End Processed Spectral Data<<<<<
