Jaz Data File
++++++++++++++++++++++++++++++++++++
Date: Fri Jun 04 16:48:11 2021
User: jaz
Dark Spectrum Present: Yes
Reference Spectrum Present: Yes
Processed Spectrum Present: Yes
Spectrometers: JAZA3586
Integration Time (usec): 24900 (JAZA3586)
Spectra Averaged: 10 (JAZA3586)
Boxcar Smoothing: 1 (JAZA3586)
Correct for Electrical Dark: No (JAZA3586)
Strobe/Lamp Enabled: Yes (JAZA3586)
Correct for Detector Non-linearity: No (JAZA3586)
Correct for Stray Light: No (JAZA3586)
Number of Pixels in Processed Spectrum: 2048
>>>>>Begin Processed Spectral Data<<<<<
W	D	R	S	P
191.335022	0.000000	0.000000	0.000000	0.000000
191.713211	231.155762	234.127869	233.682068	85.000511
192.091385	464.763519	467.438385	471.822266	263.891602
192.469528	701.492004	705.652893	710.705566	221.432556
192.847641	713.603333	712.860291	717.467102	-519.993408
193.225739	723.857117	731.064453	726.680664	39.176018
193.603790	734.482422	738.271790	735.076843	15.686559
193.981842	733.739441	737.900330	739.089172	128.571854
194.359863	736.117004	734.185120	740.426575	-223.075958
194.737854	737.974609	738.123230	741.466797	2349.733154
195.115829	740.500916	744.736145	747.336731	161.403656
195.493774	744.141785	746.147949	755.287109	555.553894
195.871704	743.472961	746.593750	754.246887	345.230865
196.249603	746.445068	755.361511	750.977600	50.833408
196.627457	747.188171	758.556458	744.810547	-20.914537
197.005310	747.188171	764.203430	751.051941	22.707674
197.383133	750.606140	760.339783	756.698914	62.594997
197.760910	754.246887	757.293274	764.872253	348.785858
198.138687	752.909485	756.327393	764.797852	347.825867
198.516449	751.943542	754.989990	760.116882	268.290833
198.894180	745.330566	752.612305	751.943542	90.815895
199.271866	748.154053	751.572083	739.237793	-260.859619
199.649536	744.736145	746.816650	735.522644	-442.849182
200.027191	745.553467	751.051941	726.532043	-345.940033
200.404816	740.500916	744.364685	734.631042	-151.920883
200.782410	742.432800	759.448059	740.055115	-13.973843
201.159988	746.370850	763.311829	751.126221	28.070227
201.537537	747.931152	776.314880	750.531799	9.162457
201.915070	745.999268	771.559509	749.045715	11.918697
202.292557	737.008606	778.320984	747.708313	25.899519
202.670029	728.835388	777.726563	749.268616	41.793285
203.047485	720.885010	782.333313	757.367615	59.371216
203.424911	718.358704	770.667786	755.212891	70.454659
203.802292	723.188416	771.633789	751.200500	57.822002
204.179688	728.538147	771.930969	743.175781	33.732845
204.557037	728.835388	782.556335	741.169678	22.959925
204.934357	735.374023	782.704895	740.426575	10.674959
205.311661	737.603088	775.571777	744.290344	17.612555
205.688934	741.912659	776.091980	753.058105	32.608742
206.066177	736.191406	769.999084	754.915710	55.384769
206.443390	740.278015	775.051758	751.274841	31.623936
206.820587	744.216064	767.101318	744.810486	2.597399
207.197769	743.101501	768.810242	750.234619	27.745886
207.574921	737.751709	772.302429	752.612305	43.010960
207.952042	727.052185	774.159973	750.085938	48.895847
208.329147	726.309082	773.045471	746.816650	43.879230
208.706223	732.179016	770.073425	750.531738	48.431213
209.083267	734.036621	768.364441	757.293396	67.749062
209.460297	734.333801	767.992920	763.311829	86.092651
209.837280	723.485596	767.398499	755.212891	72.250504
210.214264	726.457703	769.479004	753.503906	62.867004
210.591217	725.640381	767.101318	742.061279	39.605709
210.968124	722.668274	765.912415	748.302734	59.278461
211.345016	723.188416	764.054871	748.897156	62.909153
211.721893	720.662109	770.370605	759.745300	78.624771
212.098724	717.095520	765.986755	757.887695	83.434532
212.475555	702.383606	762.048767	753.503906	85.678642
212.852356	708.773682	761.974426	748.079773	73.882599
213.229126	711.448547	765.838135	745.033386	61.748657
213.605865	725.417480	768.661621	742.655701	39.862556
213.982590	719.027527	761.602844	735.745605	39.267067
214.359283	722.445313	756.104492	738.346130	47.240658
214.735931	720.141907	760.785583	744.067444	58.866566
215.112579	718.284363	756.104492	745.256348	71.316483
215.489197	719.324646	761.825867	741.392578	51.923054
215.865799	714.049133	760.934143	742.135559	59.904915
216.242355	717.541321	764.203430	752.166504	74.204071
216.618896	722.816895	761.751465	759.299500	93.702347
216.995407	731.733215	762.866028	748.748535	54.653976
217.371902	732.104675	764.277832	741.838379	30.254114
217.748367	733.219238	768.736023	736.042725	7.949724
218.124802	732.104675	763.683350	738.940613	21.647322
218.501236	736.934387	768.067200	743.027161	19.570263
218.877609	731.510315	760.265442	742.358459	37.725948
219.253983	727.572266	757.516174	744.587585	56.823978
219.630295	726.309082	750.829041	738.346191	49.091068
220.006592	721.479431	749.342957	739.832214	65.866692
220.382889	720.142029	754.395508	743.770264	68.980537
220.759140	717.095520	761.751465	750.160339	74.043488
221.135391	717.764343	770.816406	750.606140	61.904842
221.511581	717.689941	775.497498	749.120056	54.370255
221.887772	714.420654	770.890808	752.909485	68.157829
222.263931	711.522888	761.454285	747.931152	72.916573
222.640060	704.984192	756.253113	748.748535	85.362328
223.016159	706.470276	760.785583	742.284180	65.937035
223.392212	709.145203	769.627625	751.274719	69.655800
223.768265	723.188416	774.457275	749.640137	51.594128
224.144302	723.485596	775.200378	750.308899	51.867767
224.520294	731.881836	767.918640	739.980774	22.474073
224.896286	728.389648	763.757751	748.748535	57.562847
225.272217	728.315247	766.135315	755.287292	71.316757
225.648148	724.525818	769.701843	759.968262	78.454102
226.024048	722.593933	772.599609	751.126160	57.057976
226.399902	718.953125	775.943359	740.798096	38.331078
226.775772	723.857178	779.064026	742.507141	33.781975
227.151581	729.206970	777.726563	745.033386	32.618610
227.527374	734.036621	776.983582	750.680359	38.754169
227.903137	730.395752	775.794739	751.720703	46.972305
228.278870	730.990234	779.807129	755.510071	50.228176
228.654572	736.042786	772.302490	754.098328	49.795059
229.030273	733.590759	765.912415	750.160339	51.264641
229.405930	723.782776	759.893982	744.067383	56.172611
229.781555	724.674500	762.048767	748.897156	64.811050
230.157181	724.302917	765.838135	755.955872	76.207512
230.532761	731.658875	771.262207	758.853699	68.668022
230.908325	720.885010	776.983582	753.429504	58.013054
231.283859	720.736389	776.091980	744.438965	42.818756
231.659332	713.603333	773.862793	745.627747	53.144211
232.034821	725.120300	770.816406	746.370850	46.504070
232.410263	722.668274	767.770020	754.915710	71.499306
232.785690	729.875671	768.438721	745.999329	41.811157
233.161087	724.228577	761.157043	739.460693	41.247627
233.536469	720.736328	767.472839	743.175781	48.012684
233.911804	716.501160	763.163269	747.708313	66.879005
234.287140	719.621826	766.878418	756.327454	77.673035
234.662430	724.377258	766.655457	749.194336	58.699467
235.037704	723.485596	770.890625	749.788818	55.486145
235.412933	719.324646	778.023743	739.757874	34.810123
235.788162	718.210144	773.268372	733.665039	28.070091
236.163345	720.142029	767.027039	738.866211	39.936394
236.538513	718.953125	764.054932	746.593750	61.284962
236.913635	721.256531	774.903076	750.531738	54.570538
237.288742	723.931458	778.172363	750.308899	48.630165
237.663834	724.748779	776.017578	751.200500	51.594189
238.038879	730.024231	771.410889	750.085938	48.473850
238.413910	727.646545	774.754456	742.655762	31.861351
238.788910	733.145020	777.800842	747.336731	31.780203
239.163879	730.692932	778.692444	749.342957	38.854614
239.538834	735.002502	776.166199	757.813477	55.415272
239.913757	728.092346	775.200256	755.138611	57.413425
240.288651	729.578430	777.057861	751.646301	46.478802
240.663528	723.337097	777.726563	748.154114	45.628353
241.038361	729.578430	778.915466	751.497742	44.427704
241.413177	728.984070	784.190918	750.828918	39.569092
241.787979	732.327637	787.608887	755.881592	42.607494
242.162735	732.699219	789.243469	749.937317	30.486032
242.537476	731.881775	785.156921	754.692688	42.817177
242.912170	731.807556	787.237305	749.640137	32.171497
243.286865	727.869446	788.054688	753.058105	41.851887
243.661514	726.532043	789.689270	756.401672	47.294079
244.036148	730.024231	789.317810	754.321228	40.977451
244.410751	730.767273	788.128906	756.550293	44.948196
244.785339	733.516418	786.419983	759.076599	48.314667
245.159882	724.823059	798.977234	757.962097	44.689377
245.534378	722.222412	799.348694	750.680359	36.897858
245.908890	715.758057	795.782166	743.993103	35.283176
246.283356	716.724060	782.407654	746.222168	44.909401
246.657791	721.553711	782.779114	745.925049	39.805923
247.032196	730.024231	790.357971	750.011719	33.128208
247.406586	734.928223	803.509583	746.816650	17.334780
247.780960	726.383362	808.710754	741.987000	18.953154
248.155289	717.987122	818.444519	742.655762	24.556320
248.529602	717.689941	815.620911	741.987000	24.810392
248.903870	725.268860	823.794250	749.342957	24.434408
249.278122	727.869446	818.370178	746.519470	20.607595
249.652344	716.501160	814.655029	748.079834	32.172623
250.026550	713.008972	800.983337	745.627747	37.077591
250.400711	707.659180	798.679932	747.559631	43.836655
250.774857	721.033630	795.187744	757.144714	48.697346
251.148987	722.445374	795.633484	761.454285	53.299519
251.523071	726.383362	799.274414	758.110657	43.527008
251.897125	723.262695	804.475586	744.513245	26.166473
252.271164	727.200745	806.704651	740.203674	16.355083
252.645187	728.909668	806.778992	736.785828	10.114586
253.019165	729.578430	810.122620	745.181946	19.372616
253.393112	724.600098	812.277344	748.971375	27.796581
253.767044	723.336975	809.899719	750.828918	31.759556
254.140930	725.045959	806.704590	748.005554	28.116556
254.514801	726.309082	810.122559	744.959045	22.251747
254.888657	735.374023	814.060608	752.240723	21.435291
255.262466	731.361633	814.952209	749.417236	21.600046
255.636276	734.408142	813.911926	756.698914	28.037373
256.010010	727.943787	813.837708	760.636963	38.062271
256.383759	733.144958	821.565186	767.249817	38.571331
256.757446	724.600159	823.645691	761.454285	37.209278
257.131134	723.114075	827.360840	753.132324	28.795378
257.504791	724.005676	835.162598	752.017883	25.200596
257.878418	723.857117	840.140808	753.503906	25.495226
258.252014	718.804504	848.388428	754.246887	27.350910
258.625580	711.448547	856.561768	748.599915	25.601643
258.999115	716.724060	875.731750	740.798157	15.140209
259.372650	717.318542	890.666748	743.472961	15.087793
259.746124	723.708496	902.480896	746.222229	12.593517
260.119598	733.516418	926.257751	761.974426	14.764871
260.493042	737.900208	938.666321	763.014648	12.509303
260.866425	730.172852	952.783752	763.906250	15.153525
261.239838	711.448547	941.266907	759.299500	20.821205
261.613159	713.528992	925.886230	758.927979	21.378592
261.986511	715.386536	899.285828	759.968262	24.242468
262.359802	725.491699	881.824707	757.887695	20.722429
262.733063	731.584534	879.446960	752.092102	13.869357
263.106293	734.408142	883.087830	749.565918	10.194921
263.479523	732.104736	890.740967	750.085938	11.334864
263.852692	721.702332	889.997986	744.736145	13.686517
264.225861	724.005676	890.815247	751.349121	16.392012
264.598969	728.612488	893.044434	742.655701	8.540441
264.972076	734.482422	900.325989	747.113831	7.616460
265.345154	734.333801	894.604736	738.791931	2.781621
265.718201	729.281189	896.016541	739.906433	6.372520
266.091217	732.699158	898.691406	745.553528	7.743958
266.464203	733.144958	918.976074	752.760925	10.555803
266.837158	735.671204	926.109131	757.293396	11.353931
267.210114	726.011780	929.155579	752.463684	13.021271
267.583038	720.959290	928.263977	754.618469	16.236574
267.955902	718.953125	932.350586	753.355286	16.121166
268.328766	715.015137	941.787048	761.231384	20.380058
268.701569	712.414551	941.341125	753.503906	17.948706
269.074371	713.751953	946.839600	753.652527	17.118271
269.447144	720.884949	951.594971	742.729980	9.468610
269.819885	722.445313	966.529785	745.553528	9.467302
270.192596	725.863281	979.384094	746.965271	8.323573
270.565277	721.627991	996.622375	750.754700	10.591747
270.937927	723.039795	1007.544861	748.079773	8.801242
271.310577	710.854065	1030.801636	750.383118	12.354854
271.683136	714.494934	1047.891235	761.157043	13.995989
272.055725	711.299988	1081.550415	764.203430	14.288557
272.428284	717.392761	1092.695801	767.398438	13.324080
272.800812	719.250305	1101.389160	759.819580	10.616370
273.173279	723.931396	1073.228516	766.804016	12.273969
273.545776	728.389587	1071.445190	764.352051	10.482984
273.918152	724.302917	1064.906616	766.135315	12.281838
274.290558	725.268860	1075.606079	759.448059	9.756085
274.662964	724.302917	1056.213135	757.813416	10.096253
275.035278	729.801270	1054.578491	750.011658	6.222847
275.407593	725.714661	1056.064575	750.457520	7.489894
275.779907	725.863281	1070.850708	757.144775	9.067430
276.152161	723.411316	1079.395630	763.163269	11.166771
276.524384	726.977844	1103.098145	769.627625	11.339398
276.896606	722.891113	1111.717285	766.135437	11.121762
277.268799	719.919128	1122.639771	769.033203	12.195569
277.640930	721.776672	1119.370483	761.825867	10.072892
278.013031	724.971680	1133.488037	764.129211	9.585303
278.385162	726.309082	1127.246582	767.027039	10.155686
278.757233	725.789001	1133.710938	764.129211	9.398909
279.129272	726.829163	1127.618042	756.030212	7.285893
279.501282	723.559875	1138.020386	755.732971	7.762644
279.873230	729.058289	1142.850098	759.373840	7.326281
280.245178	722.668274	1156.670532	757.590576	8.046572
280.617126	728.166687	1174.205933	751.943542	5.330665
280.988983	714.420593	1199.617432	751.126160	7.565088
281.360870	717.615662	1234.762695	757.441895	7.701143
281.732697	718.953125	1270.947876	752.389343	6.057343
282.104492	728.538269	1296.731079	747.113770	3.269225
282.476288	728.389465	1313.449097	745.256287	2.882923
282.848053	724.748718	1322.662598	752.240723	4.597987
283.219757	717.318420	1323.480103	757.664856	6.656052
283.591461	719.324707	1321.250977	759.150879	6.616454
283.963135	723.262695	1319.318970	756.104492	5.509849
284.334747	723.114075	1329.349976	762.197266	6.446862
284.706360	723.188293	1350.154663	760.934143	6.020395
285.077942	724.971619	1370.588013	761.528564	5.662333
285.449524	731.881836	1402.315063	755.064270	3.457829
285.821014	732.030457	1420.519409	754.915710	3.323983
286.192535	727.646545	1451.355103	750.680420	3.182755
286.563995	726.383484	1465.472656	748.451355	2.985820
286.935425	722.965515	1486.871704	746.519470	3.083357
287.306824	719.770508	1484.791382	752.315125	4.254082
287.678223	726.680664	1477.806763	747.262451	2.740124
288.049561	733.739441	1457.076294	750.457458	2.311235
288.420898	730.024231	1444.667847	751.720642	3.035976
288.792145	724.748718	1441.770020	759.225159	4.808287
289.163452	721.107910	1448.457153	762.271667	5.659421
289.534668	726.011902	1472.605591	756.624695	4.100328
289.905914	726.680603	1497.348267	761.751465	4.550712
290.277039	725.045898	1535.094238	762.866028	4.668873
290.648193	731.584656	1572.914429	768.364441	4.371625
291.019318	732.699158	1598.028687	768.587402	4.147350
291.390381	730.544373	1617.570313	765.763916	3.970520
291.761475	727.126465	1609.471313	758.036438	3.503162
292.132507	714.123474	1606.127808	764.946533	5.697625
292.503510	712.265930	1582.573730	768.215820	6.428747
292.874481	714.346375	1570.239380	782.630554	7.978121
293.245422	715.386536	1574.326050	771.262207	6.505193
293.616364	723.485596	1596.022461	771.039368	5.450059
293.987213	713.380432	1635.254395	761.454346	5.214803
294.358093	716.724060	1671.291138	759.002258	4.429044
294.728943	715.163635	1716.913086	750.754700	3.552891
295.099731	720.216309	1765.358398	746.445129	2.509594
295.470490	720.736328	1793.147827	748.822815	2.619003
295.841248	720.885010	1824.354858	751.572021	2.780956
296.211975	731.287354	1840.106934	758.482239	2.452598
296.582642	735.076843	1885.803101	762.197327	2.356814
296.953308	736.860107	1931.127808	765.689453	2.413977
297.323883	734.853943	1979.498657	763.609070	2.310308
297.694519	733.070618	2011.597656	767.918640	2.725638
298.065063	733.070618	2009.739868	766.655457	2.630661
298.435608	727.497986	1988.563843	769.404602	3.323111
298.806122	726.977844	1931.573608	765.243713	3.176657
299.176575	730.692871	1875.029175	755.138489	2.136227
299.547028	733.962219	1836.837524	752.092224	1.643885
299.917450	734.928223	1825.692261	746.296570	1.042237
300.287872	726.160461	1823.165894	750.606140	2.228401
300.658234	728.240967	1817.295898	749.417236	1.944463
301.028564	732.847717	1812.317749	751.869324	1.762125
301.398865	737.825989	1815.586914	759.893982	2.047578
301.769135	729.504089	1809.791382	756.253113	2.476103
302.139374	722.148132	1811.500366	752.983704	2.830634
302.509583	712.488770	1810.088501	751.274719	3.533706
302.879791	711.076965	1809.940063	758.705078	4.334309
303.249939	707.733398	1799.983398	760.859863	4.863947
303.620087	717.838562	1789.209595	761.900085	4.112629
303.990173	721.330811	1775.760742	753.132385	3.015997
304.360260	720.290527	1785.123047	748.822937	2.679521
304.730286	722.668274	1782.819702	742.730042	1.892349
305.100281	722.519592	1798.125977	749.045715	2.466155
305.470276	735.968445	1800.875000	750.011719	1.318733
305.840179	731.361633	1820.119507	749.937439	1.706147
306.210144	726.829285	1836.540405	750.680481	2.149316
306.579987	720.290588	1852.663940	756.476074	3.195544
306.949890	712.934631	1870.868164	760.562683	4.113194
307.319702	725.491760	1886.323120	762.123047	3.155608
307.689484	729.652771	1911.660278	767.992859	3.243641
308.059265	737.825989	1935.288696	768.884521	2.593695
308.429016	727.349365	1967.907593	770.667786	3.491849
308.798737	723.411316	2000.526489	774.160095	3.973704
309.168396	723.634277	2049.046143	781.070251	4.333444
309.538055	726.011902	2088.575195	781.144531	4.046244
309.907684	725.863281	2122.308594	771.782410	3.288287
310.277313	723.039795	2149.428955	764.649353	2.917125
310.646851	727.275085	2172.017334	766.061096	2.684632
311.016388	728.686829	2186.134766	767.770020	2.681618
311.385895	724.525879	2176.549561	771.633789	3.244293
311.755371	727.646484	2178.778809	771.113586	2.995392
312.124817	731.584534	2176.772461	776.612061	3.115686
312.494232	733.144958	2178.852783	776.314758	2.986067
312.863617	733.813660	2163.398193	773.268494	2.759881
313.232971	732.104675	2149.800781	774.011414	2.955975
313.602295	741.095398	2141.627441	770.965027	2.132735
313.971619	738.271790	2153.441406	769.256104	2.189442
314.340820	737.677429	2161.763428	758.705078	1.476572
314.710083	722.742615	2190.369873	756.773254	2.318752
315.079285	716.649719	2216.450195	761.751465	3.007183
315.448486	716.278259	2255.013428	763.832031	3.090446
315.817596	725.268860	2255.756348	768.513000	2.825514
316.186707	730.544373	2227.892822	774.011475	2.902938
316.555786	729.652649	2188.066650	776.909241	3.240273
316.924866	726.309082	2146.605469	781.961853	3.918391
317.293884	714.717834	2128.772949	770.965027	3.977723
317.662872	712.488770	2122.754395	769.999023	4.077973
318.031830	715.609558	2140.735596	762.122986	3.263812
318.400757	726.309082	2149.280518	765.095032	2.725701
318.769684	727.720764	2160.277344	766.804016	2.728217
319.138550	721.999512	2182.791016	759.299500	2.553409
319.507416	717.764343	2212.511963	761.677185	2.937810
319.876190	715.163635	2229.675781	752.463623	2.462838
320.244995	722.891113	2222.022949	759.745300	2.458369
320.613770	725.640320	2197.800293	756.327393	2.084493
320.982483	736.042786	2178.630127	759.299500	1.612153
321.351166	735.745544	2161.391846	746.965271	0.786992
321.719818	732.847717	2159.682861	750.680420	1.249808
322.088440	725.491760	2157.082275	753.949707	1.987855
322.457062	721.479492	2179.893066	771.262207	3.413484
322.825623	721.256531	2214.740967	768.438721	3.159202
323.194183	714.569336	2254.790283	770.519226	3.632589
323.562653	712.340271	2298.183105	761.900085	3.125140
323.931183	710.705566	2351.978271	760.339661	3.024122
324.299591	715.981018	2422.343018	755.510071	2.316569
324.668060	720.662109	2479.556396	759.225281	2.192467
325.036407	725.268799	2521.908936	757.739197	1.807284
325.404755	725.640381	2539.889893	762.048767	2.006802
325.773102	725.863281	2553.264404	759.150879	1.821581
326.141388	720.885010	2552.967285	762.271667	2.258996
326.509674	722.816895	2558.837158	761.082764	2.084175
326.877899	728.240967	2567.902100	769.404602	2.237566
327.246124	731.807434	2588.632568	771.336487	2.128852
327.614288	728.463867	2586.849121	777.577942	2.642836
327.982422	717.764343	2577.858643	775.720398	3.115759
328.350525	716.278259	2549.846436	778.098083	3.371559
328.718628	712.637390	2538.106445	778.915344	3.630736
329.086700	712.191589	2529.264648	775.051697	3.459416
329.454712	713.528992	2548.211914	767.547119	2.944276
329.822693	719.101746	2563.741211	762.940369	2.376542
330.190674	724.080017	2591.381836	762.643127	2.065178
330.558563	724.674500	2599.332031	765.318054	2.168052
330.926483	722.593933	2622.291504	762.568787	2.104275
331.294312	718.432922	2634.700195	763.906250	2.373016
331.662231	716.278259	2673.634766	772.153809	2.854644
332.029999	717.169861	2723.417725	773.788513	2.822117
332.397766	720.736511	2773.126221	776.909180	2.736940
332.765503	718.061523	2805.001953	771.113586	2.542098
333.133240	723.559875	2839.701416	765.912415	2.001404
333.500916	721.999512	2883.391357	764.649231	1.973253
333.868561	733.219238	2942.610596	766.432617	1.503282
334.236176	722.148132	2982.288330	765.986816	1.939644
334.603790	723.336975	2993.433594	768.290100	1.980229
334.971344	723.708496	2979.241943	767.249939	1.930428
335.338867	734.110901	2963.712646	769.404602	1.582960
335.706360	736.117004	2971.365967	761.528564	1.136856
336.073853	731.213074	2979.613281	759.522400	1.259088
336.441284	728.092285	2987.266602	760.711243	1.443844
336.808655	728.018066	2971.365967	764.203430	1.613007
337.176086	723.188416	2945.805664	764.203430	1.845348
337.543396	729.355469	2874.995361	768.215820	1.811131
337.910706	728.983948	2816.072998	764.575012	1.705297
338.277954	732.476257	2820.234131	769.999023	1.797276
338.645264	724.377258	2892.158936	762.866028	1.775491
339.012421	723.634216	3011.489258	769.256042	1.994087
339.379669	721.776672	3126.732666	765.986816	1.838293
339.746796	720.439209	3225.481201	770.593567	2.002136
340.113953	716.352539	3306.842529	766.283997	1.927491
340.481018	719.770508	3336.117920	763.088928	1.655683
340.848114	721.776672	3343.102295	767.175598	1.731907
341.215118	726.903564	3346.966064	764.277832	1.426465
341.582153	719.696106	3355.436523	771.113586	1.950779
341.949066	718.358704	3377.578857	766.581116	1.813404
342.316010	717.244141	3386.123779	773.268372	2.099167
342.682922	723.708496	3404.699219	766.358337	1.590824
343.049835	724.525879	3420.080078	770.667786	1.711778
343.416656	728.686768	3457.379883	766.283997	1.377847
343.783478	721.256531	3500.698486	765.318054	1.585265
344.150269	722.073914	3609.552002	763.311829	1.428164
344.516998	718.358704	3731.631592	765.020813	1.548552
344.883728	729.281250	3851.407227	768.364441	1.251813
345.250427	738.717712	3922.812256	772.302490	1.054767
345.617065	740.872375	3941.610596	777.577942	1.146784
345.983704	738.643311	3939.530273	773.491272	1.088697
346.350281	727.646484	3937.449951	774.605774	1.462996
346.716827	728.909668	3887.444092	772.153809	1.369120
347.083405	727.423645	3852.298828	775.794739	1.547937
347.449860	733.962341	3795.531494	770.519226	1.194057
347.816376	729.578430	3767.965088	765.615234	1.186051
348.182770	722.668274	3733.711670	763.534851	1.357223
348.549194	717.912903	3712.164063	765.615234	1.593131
348.915558	722.742615	3739.210205	769.627625	1.554302
349.281921	730.618652	3753.550537	772.228210	1.376464
349.648193	732.550476	3783.717041	770.147766	1.232227
350.014526	732.179016	3803.259033	768.364441	1.178264
350.380737	729.578430	3861.809570	767.324219	1.205077
350.746948	726.680664	3925.115479	766.581116	1.247499
351.113159	726.457703	3991.616455	769.256042	1.310758
351.479309	730.767273	4037.089844	780.550049	1.505684
351.845428	728.240967	4057.002686	781.887512	1.611607
352.211517	723.188293	4083.157471	773.862854	1.508185
352.577576	718.061523	4118.896973	765.540833	1.396107
352.943604	724.005676	4179.453613	776.091858	1.507364
353.309601	723.262695	4231.763184	776.612061	1.520575
353.675537	723.262695	4310.672363	776.091980	1.472630
354.041473	723.336975	4401.916504	771.930969	1.320999
354.407379	716.872742	4500.516113	779.064026	1.643688
354.773254	715.609558	4598.001465	775.274597	1.536811
355.139038	715.312317	4684.267090	767.695740	1.319829
355.504913	726.160461	4782.420410	765.392334	0.967193
355.870636	728.240967	4876.265137	765.020813	0.886683
356.236389	725.417480	4985.786621	767.621399	0.990617
356.602081	725.863281	5117.376953	779.361328	1.218214
356.967804	726.754883	5250.527344	779.509949	1.166174
357.333405	727.349365	5384.792480	775.571777	1.035384
357.699036	728.909729	5531.316895	772.451111	0.906657
358.064606	726.234863	5683.787109	772.302490	0.929241
358.430176	723.634216	5804.603027	771.039368	0.932994
358.795654	717.764343	5856.614746	768.067200	0.978874
359.161163	715.535217	5840.193848	765.689514	0.978686
359.526581	720.884949	5804.008301	772.302490	1.011534
359.892029	727.720886	5803.414063	772.822571	0.888582
360.257416	733.219238	5889.605469	785.156921	1.007250
360.622772	731.807434	6079.820313	785.008301	0.994778
360.988098	722.668274	6338.839844	784.116516	1.094131
361.353394	720.290527	6620.446777	776.760681	0.957096
361.718658	711.597168	6894.475098	775.348877	1.031101
362.083893	714.643616	7115.971191	776.909241	0.972699
362.449097	715.460938	7268.068848	779.658447	0.979725
362.814209	725.268860	7276.465332	769.330383	0.672572
363.179382	725.566101	7095.909668	765.986816	0.634514
363.544434	734.259460	6775.665527	775.125977	0.676440
363.909546	728.761169	6403.333984	784.859619	0.988593
364.274536	724.674500	6121.800781	783.002014	1.080714
364.639587	713.826233	5915.239746	775.794678	1.191377
365.004517	717.615723	5774.436035	768.661621	1.009447
365.369507	720.736389	5684.529297	776.537659	1.124166
365.734344	721.256531	5624.715332	778.395325	1.165275
366.099274	728.092468	5604.505371	784.042297	1.147356
366.464081	726.309082	5567.057129	778.989746	1.088275
366.828918	724.674500	5567.948730	769.256042	0.920484
367.193665	716.426819	5580.505859	767.249939	1.044866
367.558411	723.411316	5617.136719	762.940369	0.807750
367.923126	730.618652	5612.158691	763.609070	0.675820
368.287781	738.866211	5594.103027	764.649231	0.531035
368.652435	734.556702	5552.791016	772.228210	0.781853
369.017059	728.686707	5532.357910	775.571777	0.976026
369.381653	723.857117	5509.101074	784.488098	1.267040
369.746185	719.919128	5503.899902	786.865784	1.399392
370.110687	725.120300	5533.323730	788.426208	1.316623
370.475220	730.544373	5573.595703	789.317810	1.213562
370.839661	740.649597	5630.957520	784.413879	0.894919
371.204041	740.500977	5676.505371	784.785400	0.897171
371.568451	737.677429	5732.900879	776.686462	0.780927
371.932770	729.132629	5774.658691	779.435608	0.996982
372.297150	724.154297	5816.193848	783.596497	1.167355
372.661377	720.439209	5835.958496	791.026794	1.379871
373.025696	719.176086	5876.378906	791.398254	1.400414
373.389862	722.593994	5860.181641	786.122803	1.236549
373.754059	719.770508	5865.828125	779.732727	1.165207
374.118225	719.919128	5878.162598	776.314880	1.093313
374.482361	721.033630	5939.907715	779.286926	1.116204
374.846436	720.662109	6013.096191	785.008240	1.215814
375.210510	722.593933	6109.244141	783.373596	1.128339
375.574524	717.987122	6210.592285	781.293152	1.152568
375.938538	721.627991	6352.362793	773.862854	0.927674
376.302460	717.392761	6478.230957	779.584167	1.079555
376.666412	722.073914	6648.681641	783.967957	1.044342
377.030304	722.668274	6786.364746	788.426086	1.084451
377.394196	726.754944	6937.942871	788.277527	0.990512
377.757996	720.959290	7061.730469	789.466492	1.080424
378.121796	720.290588	7141.828125	787.311707	1.043693
378.485565	722.371094	7159.140625	782.556335	0.935022
378.849304	730.395752	7070.349609	781.070251	0.799288
379.212982	728.612488	6937.496094	787.088684	0.941815
379.576630	735.968445	6773.361816	789.912292	0.893496
379.940277	730.470032	6665.325684	791.621277	1.030375
380.303864	734.705383	6576.979980	788.946289	0.928421
380.667450	733.888000	6537.896484	787.757507	0.928143
381.030945	732.550598	6508.026855	789.986511	0.994479
381.394501	727.052185	6539.382813	788.277588	1.053371
381.757935	728.315247	6543.840332	787.014404	1.009353
382.121399	727.869446	6563.531250	788.426208	1.037702
382.484741	731.361633	6589.462402	792.141296	1.037532
382.848145	721.553711	6658.489746	798.159851	1.290331
383.211487	725.045959	6727.071777	795.039063	1.166158
383.574768	724.600098	6844.767090	788.500488	1.044096
383.938019	724.005676	6923.007324	790.580994	1.073968
384.301270	716.501160	7033.792969	787.757507	1.127957
384.664459	713.380432	7077.928223	799.125793	1.347234
385.027649	714.940735	7137.296387	802.172180	1.358247
385.390778	719.696106	7208.478516	813.243347	1.441676
385.753876	723.039795	7248.007813	825.503235	1.570329
386.116943	721.999512	7306.410156	835.088318	1.717524
386.479980	721.479431	7310.793457	838.729187	1.779392
386.842987	716.501160	7368.898438	838.654846	1.836236
387.205994	723.336975	7425.962402	840.735352	1.751528
387.568909	726.606262	7489.862793	849.948914	1.823717
387.931793	727.943665	7537.861816	863.397644	1.989069
388.294678	725.788879	7566.914551	871.273682	2.126621
388.657471	722.296692	7585.861816	893.044434	2.487741
389.020294	722.519714	7569.664063	902.926758	2.634778
389.383057	721.776611	7583.112793	920.833679	2.901142
389.745819	721.405090	7589.502441	924.028625	2.950214
390.108521	722.445313	7611.496094	927.669434	2.978990
390.471191	715.238037	7672.424316	950.406067	3.380217
390.833801	717.987122	7791.383301	984.436829	3.766928
391.196442	722.296692	7989.103027	1026.343506	4.184050
391.558960	727.126404	8180.878906	1054.875854	4.397107
391.921509	728.463867	8367.081055	1087.940308	4.706041
392.284027	728.686768	8540.131836	1126.949341	5.098449
392.646484	731.584656	8648.019531	1169.970703	5.537670
393.008911	728.018066	8656.267578	1201.326294	5.969896
393.371307	722.816895	8610.200195	1246.353882	6.637651
393.733673	719.547546	8532.702148	1291.604126	7.321711
394.096008	721.999573	8510.708008	1352.681030	8.097382
394.458344	723.039795	8518.806641	1400.754883	8.693374
394.820587	730.024231	8555.661133	1457.893555	9.301087
395.182831	728.166687	8570.966797	1515.255371	10.035811
395.545013	727.052185	8521.629883	1575.217773	10.881482
395.907196	720.142029	8410.399414	1634.511230	11.889969
396.269287	723.782776	8284.753906	1689.198120	12.768404
396.631409	731.287354	8156.209473	1750.943481	13.732887
396.993469	737.305847	8051.145996	1813.952271	14.720673
397.355530	738.569092	7976.768066	1887.883423	15.878457
397.717499	730.915955	7951.654297	1965.455444	17.097137
398.079468	731.287415	7959.679199	2051.052246	18.258072
398.441376	725.863281	7957.152344	2138.357910	19.533096
398.803284	727.274963	7981.300781	2235.991943	20.798342
399.165131	717.169861	7995.121094	2338.752441	22.280756
399.526978	723.114014	8004.707031	2428.435791	23.419626
399.888763	727.423584	8000.992188	2518.193604	24.620241
400.250519	734.036621	8007.381348	2602.527344	25.689566
400.612244	726.309082	8056.198730	2716.210449	27.147766
400.973938	722.445313	8037.474121	2816.147461	28.621925
401.335602	719.027405	8049.584473	2926.561279	30.114136
401.697205	715.609558	8082.724121	3034.894531	31.481590
402.058807	708.550781	8181.621094	3154.224609	32.726494
402.420349	706.544617	8292.406250	3289.604248	34.050972
402.781860	713.306152	8402.969727	3428.624756	35.311279
403.143341	719.844727	8519.921875	3596.994873	36.886177
403.504822	727.943787	8640.218750	3762.021484	38.346462
403.866241	731.881775	8803.683594	3944.805908	39.804298
404.227631	728.092285	8986.839844	4113.992676	40.997746
404.588959	719.473206	9200.682617	4294.622559	42.153770
404.950287	716.724060	9346.910156	4453.705078	43.301277
405.311554	721.182129	9442.092773	4588.787598	44.348644
405.672821	724.525818	9454.352539	4707.448730	45.624302
406.034027	727.646545	9436.520508	4795.497559	46.709267
406.395203	728.983948	9363.925781	4865.193359	47.900841
406.756348	727.497986	9300.842773	4918.097168	48.879395
407.117493	726.680664	9232.113281	4994.108887	50.172970
407.478516	725.268860	9209.004883	5078.888184	51.317238
407.839600	721.405090	9192.731445	5147.470215	52.247604
408.200592	715.015137	9192.211914	5222.218262	53.168552
408.561554	715.981018	9167.617188	5286.118652	54.074001
408.922485	720.439209	9178.764648	5385.833008	55.157413
409.283417	727.943848	9198.973633	5465.263184	55.923775
409.644257	728.018066	9322.836914	5574.933594	56.393459
410.005096	731.510254	9466.910156	5714.696777	57.045887
410.365906	722.371094	9609.347656	5853.270996	57.735046
410.726715	722.148132	9694.202148	6007.375000	58.907661
411.087433	717.541321	9767.910156	6114.445313	59.631863
411.448120	719.770508	9826.163086	6208.289551	60.271057
411.808807	716.872742	9848.231445	6246.332031	60.554623
412.169434	717.838562	9769.991211	6271.224121	61.348789
412.530029	715.683777	9723.402344	6317.365723	62.187576
412.890564	712.860352	9693.086914	6373.910156	63.039055
413.251099	712.340149	9710.845703	6431.123047	63.552582
413.611572	717.912903	9743.242188	6493.537598	63.993507
413.972076	720.959290	9800.008789	6570.738281	64.431618
414.332489	730.544250	9864.799805	6648.087402	64.784073
414.692871	734.408020	10000.477539	6742.229004	64.836777
415.053223	733.145020	10131.250000	6862.376465	65.217735
415.413574	722.593994	10338.257813	7031.192871	65.607521
415.773834	719.770447	10481.215820	7199.116699	66.376915
416.134094	725.491699	10626.403320	7341.480469	66.822014
416.494263	733.219238	10754.278320	7475.448730	67.280609
416.854462	734.482422	11017.235352	7640.548828	67.161652
417.214630	731.881836	11325.518555	7861.896484	67.304695
417.574738	733.070618	11663.668945	8102.265625	67.418037
417.934784	730.024231	11917.487305	8338.770508	68.011360
418.294861	723.411316	12244.198242	8588.130859	68.265472
418.654846	715.015076	12632.726563	8856.140625	68.311142
419.014832	717.169861	13107.817383	9180.545898	68.304550
419.374756	729.727051	13603.343750	9536.307617	68.407967
419.734680	735.671204	14113.208008	9912.206055	68.596596
420.094543	724.302917	14608.213867	10265.515625	68.721359
420.454376	715.015076	15033.967773	10585.166016	68.930679
420.814148	708.773682	15492.860352	10938.475586	69.194008
421.173920	717.392761	15957.327148	11289.257813	69.369492
421.533691	719.547546	16436.951172	11659.359375	69.603172
421.893341	727.572266	16781.642578	11899.656250	69.590355
422.253021	723.114075	17021.416016	12091.801758	69.753815
422.612640	729.652771	17087.841797	12148.495117	69.805054
422.972260	718.655945	17047.792969	12165.288086	70.099434
423.331757	719.250305	16936.562500	12128.284180	70.350952
423.691315	715.237976	16925.789063	12137.200195	70.460045
424.050781	720.364929	17077.587891	12218.710938	70.295219
424.410248	725.268860	17235.111328	12324.592773	70.257027
424.769653	725.640381	17394.267578	12440.429688	70.280472
425.128998	723.782898	17379.037109	12487.984375	70.633575
425.488373	720.885071	17286.751953	12418.807617	70.614609
425.847656	717.392822	17063.396484	12276.815430	70.717117
426.206940	726.011902	16859.660156	12128.877930	70.677544
426.566193	726.754883	16520.837891	11935.617188	70.968742
426.925385	728.315247	16211.515625	11746.516602	71.162300
427.284576	729.578369	15750.317383	11432.811523	71.256371
427.643677	737.454529	15409.194336	11162.795898	71.057297
428.002777	738.271790	15044.293945	10883.713867	70.917282
428.361847	727.200745	14703.023438	10657.758789	71.055267
428.720856	724.377258	14409.081055	10454.616211	71.103027
429.079865	721.553711	14161.208008	10309.874023	71.343506
429.438812	726.754883	14009.703125	10187.571289	71.225273
429.797760	713.900574	13914.075195	10127.906250	71.317284
430.156616	716.798340	13761.606445	10034.061523	71.425072
430.515503	717.467041	13677.793945	10001.294922	71.632668
430.874268	726.977844	13600.890625	9963.475586	71.745850
431.233093	724.674377	13647.254883	9972.390625	71.562454
431.591827	720.736328	13680.245117	10011.920898	71.693954
431.950562	722.296692	13704.468750	10036.737305	71.747940
432.309204	726.680664	13747.859375	10085.776367	71.875946
432.667877	726.457703	13885.320313	10153.616211	71.641136
433.026459	725.343079	14029.171875	10274.802734	71.779785
433.385010	718.284424	14180.600586	10378.603516	71.758224
433.743561	715.089355	14333.515625	10494.144531	71.807526
434.102051	715.089417	14486.281250	10600.694336	71.784668
434.460510	722.891113	14657.104492	10719.430664	71.740967
434.818939	728.761047	14704.583008	10770.104492	71.847961
435.177338	724.897278	14737.796875	10814.759766	72.004105
435.535675	728.612549	14642.838867	10794.030273	72.339043
435.894012	733.813660	14586.441406	10752.420898	72.322792
436.252289	735.374023	14605.983398	10736.000977	72.099403
436.610535	726.160461	14626.120117	10720.321289	71.900650
436.968719	726.606262	14759.195313	10819.739258	71.926376
437.326935	727.423645	14846.351563	10921.608398	72.202255
437.685028	726.829285	14988.864258	11040.343750	72.314468
438.043152	726.606262	15096.231445	11124.678711	72.361473
438.401215	721.107910	15333.778320	11257.085938	72.101669
438.759277	727.720886	15545.987305	11422.928711	72.175835
439.117249	721.776611	15909.549805	11689.824219	72.216301
439.475250	724.971680	16198.586914	11911.320313	72.293053
439.833130	715.386536	16624.341797	12183.416992	72.085381
440.191071	718.210144	16917.242188	12377.049805	71.972450
440.548889	721.702332	17181.761719	12626.929688	72.327980
440.906708	731.361633	17513.521484	12842.854492	72.168854
441.264496	728.835388	17729.447266	13020.437500	72.300941
441.622223	727.646484	17908.962891	13123.941406	72.149857
441.979950	722.445313	17892.244141	13184.721680	72.582542
442.337616	722.668213	17867.203125	13175.953125	72.637054
442.695251	722.222412	17743.712891	13062.715820	72.499489
443.052887	724.377197	17573.113281	12912.104492	72.336151
443.410461	718.210144	17427.330078	12795.002930	72.276657
443.768005	713.008972	17256.804688	12727.015625	72.619415
444.125458	707.882019	17167.791016	12639.487305	72.488892
444.482941	713.380371	17198.478516	12665.567383	72.502983
444.840393	712.117249	17360.236328	12708.737305	72.059914
445.197754	711.820068	17633.447266	12923.770508	72.167709
445.555084	709.813904	17877.679688	13144.226563	72.428421
445.912415	719.473206	18255.806641	13456.817383	72.634018
446.269714	722.296692	18555.916016	13676.678711	72.640228
446.626953	724.971619	18898.970703	13919.425781	72.600716
446.984161	723.485535	19195.513672	14128.661133	72.570137
447.341309	719.770447	19413.666016	14325.118164	72.779625
447.698456	717.690002	19567.326172	14436.870117	72.782196
448.055542	710.705566	19634.123047	14519.717773	72.973137
448.412598	721.776611	19591.103516	14475.432617	72.888962
448.769653	724.674377	19456.466797	14371.334961	72.852928
449.126617	732.476257	19163.265625	14148.649414	72.792175
449.483582	727.200684	18906.476563	13975.078125	72.873512
449.840515	724.525879	18551.382813	13720.145508	72.899101
450.197388	723.634216	18293.849609	13520.866211	72.834808
450.554230	724.748718	18093.457031	13355.839844	72.723259
450.911041	733.219238	17917.285156	13274.627930	72.982773
451.267822	735.151184	17796.394531	13199.135742	73.054367
451.624573	736.191406	17627.207031	13089.315430	73.134285
451.981262	731.807434	17557.880859	12972.065430	72.745773
452.337921	728.166687	17414.253906	12863.434570	72.726860
452.694580	723.485596	17306.439453	12813.875000	72.908546
453.051147	719.621826	17285.117188	12842.854492	73.183640
453.407715	722.668274	17201.005859	12798.198242	73.281242
453.764221	735.002502	17218.095703	12788.835938	73.128464
454.120728	743.472961	16996.003906	12615.859375	73.049461
454.477142	737.974670	16925.119141	12552.627930	72.987877
454.833557	732.996399	16739.882813	12455.440430	73.233757
455.189911	733.293640	16607.623047	12320.208008	72.991516
455.546265	735.745544	16415.328125	12190.921875	73.057915
455.902557	730.098572	16301.868164	12049.151367	72.689575
456.258820	726.680664	16279.725586	12100.570313	73.129662
456.615051	723.188416	16375.500977	12185.051758	73.227921
456.971252	727.795166	16333.743164	12218.042969	73.627365
457.327393	719.547546	16536.515625	12317.088867	73.323418
457.683502	724.377258	16755.041016	12443.476563	73.104271
458.039612	715.906738	17206.802734	12745.815430	72.948784
458.395630	718.358704	17605.880859	13082.183594	73.212784
458.751648	715.758057	18088.476563	13453.399414	73.319794
459.107605	727.126404	18768.494141	13950.335938	73.293839
459.463562	735.151062	19462.111328	14394.370117	72.938789
459.819458	742.284180	20081.796875	14874.958008	73.076683
460.175323	731.881836	20584.306641	15240.528320	73.082489
460.531158	725.863281	21093.875000	15625.117188	73.150261
460.886932	721.702332	21369.460938	15803.519531	73.043365
461.242676	728.092346	21472.521484	15920.323242	73.235229
461.598419	729.355469	21226.726563	15788.956055	73.470886
461.954102	731.287415	20816.351563	15487.807617	73.470116
462.309723	723.559875	20163.751953	15028.097656	73.582291
462.665344	726.383362	19467.904297	14552.932617	73.774956
463.020905	725.789063	18905.138672	14182.828125	74.023766
463.376373	735.076904	18504.275391	13845.495117	73.781708
463.731873	736.711487	18188.859375	13604.160156	73.729881
464.087341	737.231628	17929.544922	13382.067383	73.549362
464.442749	731.287415	17784.431641	13297.289063	73.687302
464.798126	726.977844	17661.458984	13232.125000	73.844292
465.153503	725.343079	17741.931641	13329.760742	74.071358
465.508820	723.262695	17792.751953	13390.167969	74.207878
465.864105	720.141907	17995.376953	13469.002930	73.798485
466.219330	723.114075	18263.310547	13668.284180	73.802872
466.574524	726.903503	18498.255859	13809.682617	73.617241
466.929657	728.761047	18660.830078	13975.450195	73.871506
467.284790	726.903503	18791.306641	14091.957031	73.985588
467.639893	724.971680	18899.490234	14184.538086	74.057343
467.994934	726.309082	19064.740234	14288.041992	73.952522
468.349945	721.405090	19088.814453	14302.976563	73.943855
468.704926	728.166687	19063.552734	14268.945313	73.850517
469.059875	728.092346	18834.328125	14126.803711	74.000534
469.414764	727.052063	18603.248047	13948.700195	73.962318
469.769653	720.959290	18386.283203	13815.996094	74.128487
470.124451	727.646545	18328.474609	13749.570313	73.984726
470.479248	732.773438	18199.335938	13662.562500	74.025948
470.834015	738.643311	18134.841797	13614.338867	74.014420
471.188721	726.903503	18144.800781	13660.184570	74.252831
471.543365	724.377258	18238.273438	13717.546875	74.187775
471.898010	718.730225	18403.669922	13834.424805	74.163071
472.252625	725.417480	18593.882813	13934.881836	73.926132
472.607178	728.983948	18892.951172	14155.782227	73.919968
472.961700	730.841614	19100.478516	14313.007813	73.938133
473.316193	732.922058	19355.412109	14511.247070	73.987556
473.670654	727.423645	19476.228516	14596.324219	73.972183
474.025055	723.782776	19685.390625	14741.511719	73.926903
474.379456	716.649719	19837.265625	14897.622070	74.165878
474.733795	717.987122	20004.894531	15030.624023	74.209076
475.088104	723.411316	20110.404297	15139.922852	74.361778
475.442383	721.999512	20130.242188	15141.780273	74.297203
475.796570	722.073792	20215.541016	15218.459961	74.365356
476.150787	719.621826	20424.404297	15346.929688	74.232269
476.504944	723.559875	20676.441406	15515.968750	74.136711
476.859070	726.011902	20990.443359	15716.809570	73.975914
477.213135	733.962219	21237.500000	15904.276367	73.988770
477.567200	732.624817	21680.419922	16230.315430	73.982445
477.921173	727.720764	22041.455078	16492.083984	73.963402
478.275146	722.222412	22530.740234	16853.714844	73.968773
478.629089	725.566101	22828.693359	17070.603516	73.948982
478.983002	731.584656	23268.791016	17430.005859	74.092682
479.336823	732.922058	23616.156250	17699.279297	74.143181
479.690643	728.538086	24051.421875	18021.679688	74.146667
480.044403	725.194519	24514.474609	18349.875000	74.086647
480.398163	722.816895	25201.923828	18858.623047	74.086876
480.751862	725.417480	26082.632813	19543.025391	74.210075
481.105499	724.674500	27200.740234	20403.376953	74.326385
481.459137	724.525818	28618.583984	21451.269531	74.305229
481.812744	718.581726	30452.226563	22739.083984	74.059212
482.166290	719.176086	32665.482422	24388.455078	74.090813
482.519806	720.810730	35371.066406	26450.505859	74.255432
482.873291	723.708496	38503.222656	28897.591797	74.574493
483.226715	732.847717	42079.785156	31658.679688	74.795944
483.580139	731.287415	45594.375000	34431.656250	75.118256
483.933502	730.693054	48887.843750	37242.230469	75.817482
484.286804	726.754883	51570.917969	39751.656250	76.753944
484.640106	727.646545	53594.550781	41940.316406	77.955521
484.993347	735.151123	54710.730469	43274.871094	78.812904
485.346558	735.894104	54907.035156	43656.191406	79.230927
485.699738	723.411316	54248.488281	42945.113281	78.882095
486.052887	717.095520	52953.468750	41575.343750	78.218002
486.405975	705.429993	51405.519531	39894.019531	77.294914
486.759064	715.015137	49808.609375	38340.277344	76.639862
487.112061	722.668274	48518.566406	37091.769531	76.092514
487.464996	733.442139	47738.386719	36371.703125	75.818108
487.817963	737.528809	47610.285156	36188.324219	75.631981
488.170868	730.990173	47694.839844	36233.128906	75.594612
488.523743	730.098572	47794.480469	36324.296875	75.628738
488.876587	725.268860	47515.769531	36154.066406	75.717926
489.229401	728.315247	47021.363281	35783.074219	75.723595
489.582153	731.287354	46169.480469	35162.500000	75.775925
489.934845	728.835388	45181.253906	34346.800781	75.626854
490.287537	722.445313	44102.605469	33524.199219	75.614647
490.640198	716.649719	43260.828125	32773.441406	75.349419
490.992798	709.219482	42644.265625	32281.931641	75.289558
491.345337	710.482605	42541.355469	32158.367188	75.178650
491.697876	711.299988	42677.328125	32253.103516	75.160324
492.050354	721.999573	43103.007813	32592.294922	75.199471
492.402832	716.501160	43317.148438	32789.789063	75.288261
492.755219	715.460938	43127.082031	32735.994141	75.499435
493.107605	715.758118	42369.269531	32192.470703	75.567970
493.459930	726.754883	41144.910156	31266.958984	75.560608
493.812225	731.807434	39428.964844	29969.556641	75.555290
494.164490	734.556641	37456.523438	28456.603516	75.491722
494.516724	733.144958	35399.824219	26902.337891	75.488029
494.868896	726.829285	33572.417969	25473.648438	75.342896
495.221039	728.315247	32195.218750	24375.531250	75.149483
495.573120	722.296692	31157.287109	23512.353516	74.881104
495.925201	731.213074	30565.687500	23020.171875	74.708733
496.277222	732.476257	30169.953125	22741.757813	74.766197
496.629211	740.723816	30031.005859	22618.861328	74.694183
496.981140	736.191345	29952.390625	22592.634766	74.809334
497.333069	736.637207	30074.843750	22631.419922	74.628906
497.684967	738.940613	30129.009766	22771.033203	74.964409
498.036804	738.346130	30205.837891	22849.720703	75.036499
498.388580	732.179016	30068.302734	22830.031250	75.326424
498.740326	728.612488	29900.453125	22727.046875	75.409828
499.092072	727.646484	29606.587891	22508.078125	75.419769
499.443756	728.761047	29316.134766	22318.531250	75.522049
499.795410	724.451477	28996.337891	22028.974609	75.355858
500.147003	726.160461	28609.000000	21743.427734	75.377068
500.498566	718.804504	28222.255859	21388.707031	75.153847
500.850098	719.993347	27850.742188	21110.294922	75.155693
501.201599	717.987122	27556.576172	20864.947266	75.067139
501.553009	721.776672	27215.156250	20632.007813	75.151726
501.904449	716.352539	26933.771484	20460.443359	75.309059
502.255859	714.271973	26741.031250	20304.259766	75.268639
502.607178	714.717834	26646.070313	20248.607422	75.329231
502.958405	716.501160	26598.072266	20155.654297	75.108086
503.309692	717.244141	26527.556641	20147.406250	75.280617
503.660919	722.593994	26559.138672	20168.507813	75.265152
504.012115	732.401917	26577.117188	20219.107422	75.399185
504.363251	733.219238	26680.843750	20269.263672	75.290298
504.714294	729.578430	26748.537109	20307.826172	75.246086
505.065369	717.764343	26828.853516	20324.396484	75.089294
505.416443	720.810730	26849.140625	20343.490234	75.101166
505.767395	720.364807	26849.361328	20335.392578	75.069962
506.118317	735.596924	26804.556641	20343.935547	75.217186
506.469238	736.340027	26791.630859	20391.564453	75.436600
506.820160	734.110840	26781.375000	20419.056641	75.573944
507.170929	728.761169	26819.712891	20441.792969	75.555054
507.521729	722.296814	26880.718750	20413.929688	75.278366
507.872498	721.702332	26961.708984	20477.162109	75.287552
508.223236	716.724060	27156.380859	20577.693359	75.118103
508.573883	720.439209	27344.515625	20754.533203	75.248032
508.924500	722.742493	27516.673828	20888.648438	75.262962
509.275116	724.154297	27689.726563	21022.244141	75.274094
509.625702	721.405090	27900.078125	21186.900391	75.299835
509.976196	724.600098	28182.873047	21405.945313	75.319176
510.326660	723.188416	28427.404297	21619.343750	75.425903
510.677124	727.646545	28704.406250	21834.820313	75.445381
511.027557	726.754883	28919.064453	21966.335938	75.338219
511.377869	731.881836	29165.228516	22172.078125	75.405106
511.728180	730.618652	29296.818359	22240.216797	75.297371
512.078430	729.206848	29403.962891	22329.007813	75.326889
512.428650	725.714661	29437.697266	22374.109375	75.398468
512.778931	731.658875	29540.830078	22493.291016	75.537170
513.129028	735.002502	29604.134766	22552.140625	75.572548
513.479126	737.603027	29655.406250	22581.416016	75.537598
513.829285	726.977844	29606.662109	22535.345703	75.514565
514.179382	714.197754	29554.501953	22495.593750	75.524155
514.529297	711.225647	29508.734375	22474.195313	75.572403
514.879272	718.210144	29544.398438	22488.164063	75.521446
515.229187	728.240906	29500.115234	22437.044922	75.451477
515.579163	729.801270	29490.677734	22436.599609	75.473358
515.928955	726.383362	29474.328125	22441.205078	75.535217
516.278748	726.383362	29672.791016	22615.224609	75.618507
516.628540	724.228577	29966.431641	22847.343750	75.654747
516.978333	723.931396	30431.867188	23181.929688	75.595955
517.327942	726.011902	30947.083984	23607.755859	75.714531
517.677612	730.915833	31584.673828	24020.656250	75.484291
518.027222	737.380188	32163.789063	24465.728516	75.504486
518.376831	738.197510	32894.925781	24998.037109	75.442497
518.726379	733.070618	33538.019531	25510.130859	75.528419
519.075867	732.699158	34102.050781	25914.781250	75.464706
519.425293	735.745544	34466.656250	26190.296875	75.463577
519.774658	738.271790	34599.285156	26355.322266	75.653534
520.124084	735.225403	34616.152344	26466.851563	75.947235
520.473389	731.138855	34338.187500	26277.007813	76.013428
520.822693	732.476257	34022.996094	26008.552734	75.925751
521.171997	730.172852	33578.218750	25619.056641	75.769753
521.521240	730.172852	33130.394531	25252.447266	75.685509
521.870361	724.897278	32700.851563	24918.458984	75.661736
522.219482	730.247131	32342.861328	24645.841797	75.652061
522.568604	724.674500	32123.224609	24459.640625	75.592552
522.917664	730.395813	32003.224609	24339.341797	75.493477
523.266724	730.544373	32046.171875	24400.865234	75.586288
523.615662	732.179016	32312.025391	24635.068359	75.690331
523.964600	726.086182	32748.630859	24983.546875	75.751198
524.313538	716.203918	33350.332031	25395.630859	75.624596
524.662354	714.049133	34048.332031	25892.568359	75.533409
525.011169	713.306152	34883.566406	26511.210938	75.498116
525.359985	715.906738	35910.875000	27266.943359	75.439865
525.708740	715.906738	37138.875000	28220.765625	75.515152
526.057434	719.547607	38507.605469	29271.630859	75.558487
526.406067	720.216309	40075.914063	30482.392578	75.623550
526.754700	723.114075	41785.250000	31828.240234	75.751358
527.103333	725.417480	43710.437500	33367.121094	75.937393
527.451782	721.850891	45821.449219	35100.531250	76.228348
527.800293	724.674500	47939.000000	36916.488281	76.654305
528.148743	724.228577	50049.269531	38797.312500	77.188141
528.497131	723.188477	51871.917969	40575.453125	77.914474
528.845642	727.646667	53445.949219	42190.941406	78.650665
529.193909	725.640381	54641.847656	43644.898438	79.603630
529.542175	732.476257	55430.644531	44677.261719	80.340508
529.890503	727.349304	55683.125000	45185.125000	80.897369
530.238770	730.767273	55412.589844	44889.843750	80.756409
530.586914	722.445374	54653.511719	43985.203125	80.218620
530.934998	724.600159	53440.519531	42510.519531	79.266228
531.283142	721.256531	51910.699219	40917.246094	78.523987
531.631226	729.727051	50089.542969	39126.105469	77.788742
531.979248	727.720886	48230.488281	37440.921875	77.286446
532.327148	728.315247	46617.605469	35937.550781	76.726479
532.675110	727.349304	45429.652344	34952.890625	76.563263
533.023071	724.525818	44913.621094	34470.964844	76.368248
533.370850	730.395752	44747.324219	34325.332031	76.322762
533.718689	728.686768	45005.683594	34510.566406	76.296684
534.066467	732.401855	45214.468750	34717.128906	76.400963
534.414246	724.600098	45308.984375	34838.683594	76.515762
534.761963	725.714661	45100.714844	34678.937500	76.514305
535.109619	723.336975	44760.406250	34381.128906	76.430588
535.457153	722.593933	44113.375000	33884.714844	76.426651
535.804749	718.581543	43341.746094	33243.406250	76.307861
536.152344	722.668213	42452.117188	32529.876953	76.222450
536.499817	722.222473	41557.066406	31812.486328	76.136604
536.847229	726.160461	40605.769531	31116.046875	76.204071
537.194641	721.850891	39757.824219	30489.900391	76.257996
537.542114	723.188416	39137.996094	30048.837891	76.339439
537.889404	723.114075	38667.953125	29674.724609	76.299202
538.236694	722.891174	38248.511719	29345.634766	76.275208
538.583984	725.714661	37890.078125	29049.318359	76.211731
538.931213	719.101746	37629.574219	28881.468750	76.299126
539.278381	718.655945	37458.531250	28783.015625	76.386650
539.625488	714.049133	37448.421875	28757.828125	76.342072
539.972595	717.467102	37776.691406	28947.521484	76.175514
540.319641	715.163757	38449.355469	29412.656250	76.051697
540.666687	714.197754	39466.484375	30124.773438	75.893784
541.013611	713.900574	40733.941406	31106.240234	75.942802
541.360596	710.854187	42116.714844	32181.177734	76.004517
541.707458	710.185364	43577.652344	33351.296875	76.144249
542.054260	715.312317	44794.656250	34343.160156	76.289360
542.401062	718.284424	45790.316406	35140.507813	76.371582
542.747864	719.919128	46294.531250	35594.199219	76.521286
543.094666	718.358704	46236.875000	35589.074219	76.607758
543.441284	721.702332	45567.855469	35143.253906	76.754745
543.787903	724.823059	44523.894531	34343.089844	76.755661
544.134460	723.411316	43236.828125	33300.843750	76.628586
544.481079	725.937500	41834.214844	32209.117188	76.585983
544.827637	730.618652	40256.914063	30994.490234	76.566422
545.174072	728.389587	38614.605469	29804.755859	76.746559
545.520508	726.977783	37213.769531	28674.685547	76.596779
545.866943	724.154297	36077.386719	27764.474609	76.486130
546.213318	733.665100	35291.859375	27070.412109	76.209839
546.559631	730.024231	34611.988281	26546.208984	76.194473
546.905823	729.949951	33986.140625	26097.343750	76.278709
547.252136	718.135803	33530.144531	25737.201172	76.249718
547.598389	715.460876	33034.695313	25350.751953	76.224861
547.944458	712.711731	32626.474609	25037.119141	76.219177
548.290588	720.810730	32093.869141	24601.406250	76.118164
548.636658	728.018066	31547.005859	24194.974609	76.144478
548.982727	734.185242	30856.134766	23680.054688	76.176575
549.328735	730.172852	30136.439453	23182.451172	76.352020
549.674622	730.767273	29358.416016	22628.001953	76.489815
550.020569	724.154297	28655.365234	22059.068359	76.383781
550.366455	728.315247	27916.500000	21490.277344	76.363914
550.712280	727.275085	27246.658203	20962.208984	76.302429
551.058044	735.374023	26740.062500	20566.099609	76.258278
551.403748	736.711487	26361.193359	20265.619141	76.211914
551.749512	735.225403	26134.642578	20069.015625	76.119034
552.095154	728.241028	25939.228516	19890.837891	76.008911
552.440735	727.869446	25869.384766	19845.587891	76.040436
552.786316	727.274963	25883.578125	19829.687500	75.934898
553.131897	726.160461	25906.015625	19864.312500	76.005806
553.477417	725.937561	25949.630859	19849.154297	75.814499
553.822815	726.977844	25916.640625	19845.289063	75.897446
554.168213	726.829285	25882.978516	19814.976563	75.878654
554.513672	718.953125	25730.140625	19744.015625	76.066208
554.859009	718.507324	25531.232422	19611.460938	76.142197
555.204285	722.668274	25322.812500	19464.935547	76.187630
555.549500	723.039734	25089.056641	19297.755859	76.232056
555.894714	728.389587	24840.068359	19129.607422	76.316620
556.239990	730.470032	24527.031250	18902.539063	76.364265
556.585022	732.699219	24260.732422	18699.171875	76.361984
556.930115	732.104675	23995.099609	18487.630859	76.325195
557.275146	719.621826	23735.705078	18304.699219	76.403435
557.620178	723.931396	23518.818359	18140.564453	76.405876
557.965149	718.507324	23363.150391	18001.173828	76.321213
558.310059	720.662109	23167.884766	17860.740234	76.357231
558.654968	719.919006	23029.458984	17767.490234	76.413818
558.999756	721.256531	22900.099609	17689.621094	76.506989
559.344604	725.640381	22914.662109	17647.863281	76.263947
559.689331	721.256531	22872.976563	17585.968750	76.132744
560.033997	722.148132	22811.380859	17511.070313	76.005005
560.378723	722.742615	22757.958984	17501.486328	76.145126
560.723389	725.417480	22759.072266	17485.585938	76.066223
561.067932	728.018066	22819.927734	17507.207031	75.951736
561.412476	729.355530	22824.312500	17476.892578	75.798004
561.757019	727.943665	22821.562500	17496.730469	75.898781
562.101501	724.897278	22823.492188	17496.431641	75.894119
562.445862	725.714600	22784.781250	17521.845703	76.141624
562.790222	732.476257	22750.007813	17520.060547	76.246445
563.134644	729.429871	22750.156250	17506.167969	76.186127
563.478943	727.869446	22769.771484	17498.068359	76.083267
563.823181	722.816895	22799.716797	17466.935547	75.844521
564.167358	723.931396	22826.833984	17471.541016	75.771088
564.511536	722.148193	22886.873047	17499.775391	75.695175
564.855774	727.052063	22899.281250	17559.144531	75.915199
565.199768	717.764343	22967.193359	17671.564453	76.198807
565.543823	718.878845	23097.818359	17790.226563	76.283096
565.887817	717.838623	23335.958984	17946.335938	76.171219
566.231812	732.922058	23515.400391	18093.009766	76.199295
566.575745	734.185059	23690.976563	18229.652344	76.210419
566.919617	734.779602	23871.755859	18393.193359	76.321182
567.263428	734.036560	23994.798828	18483.990234	76.308563
567.607239	732.699158	24116.435547	18567.656250	76.270775
567.950989	727.349304	24109.599609	18546.107422	76.206345
568.294678	725.640320	24143.037109	18518.318359	75.980598
568.638367	729.132568	24070.591797	18445.798828	75.902138
568.981995	734.110840	23934.171875	18348.759766	75.925011
569.325623	727.795166	23731.916016	18227.201172	76.070747
569.669128	719.770508	23530.705078	18093.083984	76.162216
570.012573	715.832458	23415.240234	17995.673828	76.124634
570.356140	721.107910	23377.419922	17963.351563	76.103485
570.699524	733.367859	23365.234375	17938.533203	76.021858
571.042908	737.677429	23427.351563	18016.402344	76.152374
571.386230	740.649597	23567.931641	18096.427734	76.030853
571.729492	735.299744	23761.564453	18212.337891	75.900452
572.072815	731.138733	23945.240234	18329.144531	75.807396
572.416016	727.720886	24047.630859	18425.589844	75.891670
572.759094	726.234863	24193.412109	18548.708984	75.946388
573.102234	731.138733	24291.343750	18579.767578	75.757530
573.445374	731.213074	24358.662109	18618.775391	75.706703
573.788391	727.200745	24302.638672	18599.384766	75.808495
574.131409	718.433044	24271.056641	18615.656250	75.988235
574.474365	726.977844	24189.474609	18602.207031	76.186386
574.817261	734.036621	24067.693359	18540.164063	76.310913
575.160156	739.386292	23866.333984	18404.263672	76.382225
575.502930	734.408020	23672.328125	18212.787109	76.198624
575.845703	731.584656	23463.017578	18028.812500	76.093872
576.188477	732.104675	23221.830078	17826.337891	76.009079
576.531250	724.302917	22959.689453	17657.595703	76.154701
576.873901	723.039795	22722.218750	17475.107422	76.148605
577.216431	716.129578	22494.181641	17294.775391	76.125473
577.559082	720.290527	22228.697266	17069.785156	76.014435
577.901611	725.937500	21924.130859	16871.025391	76.162567
578.244080	733.293457	21578.103516	16615.576172	76.192986
578.586487	730.172852	21255.480469	16408.343750	76.384583
578.928955	730.470032	20886.419922	16117.449219	76.339645
579.271301	725.417480	20567.291016	15899.965820	76.477402
579.613647	725.268860	20181.660156	15634.629883	76.629639
579.955872	719.324646	19897.005859	15401.097656	76.556557
580.298157	719.844727	19590.134766	15148.319336	76.461334
580.640320	724.302917	19373.171875	14955.131836	76.309341
580.982483	725.937561	19147.587891	14811.058594	76.459602
581.324524	725.789001	18981.373047	14676.868164	76.420883
581.666626	719.250305	18819.021484	14549.440430	76.410858
582.008728	714.717957	18724.138672	14439.247070	76.207504
582.350647	716.055359	18583.705078	14349.936523	76.304832
582.692566	729.727051	18511.927734	14289.825195	76.256577
583.034424	733.145020	18392.894531	14206.011719	76.291382
583.376343	729.206848	18326.171875	14164.401367	76.349495
583.718201	720.587830	18208.402344	14100.797852	76.511620
584.059937	722.371094	18155.869141	14062.682617	76.521141
584.401611	725.937561	18055.115234	13991.127930	76.548294
584.743347	727.126404	18001.841797	13952.342773	76.558235
585.085022	721.182129	17908.664063	13882.497070	76.574997
585.426514	723.559875	17852.640625	13808.343750	76.389297
585.768127	725.194580	17770.388672	13737.458008	76.339783
586.109619	737.825989	17702.474609	13696.073242	76.383820
586.451172	736.042786	17631.812500	13681.879883	76.621765
586.792542	730.470032	17595.404297	13656.096680	76.642029
587.133850	728.612488	17556.396484	13603.565430	76.510094
587.475220	731.881775	17571.404297	13564.629883	76.206123
587.816589	733.739441	17579.355469	13542.041992	76.033455
588.157776	729.058289	17593.623047	13600.890625	76.324722
588.498962	730.693054	17647.490234	13657.956055	76.416725
588.840210	733.293640	17694.970703	13697.781250	76.433990
589.181335	735.671204	17787.476563	13735.675781	76.238297
589.522400	735.299744	17794.833984	13793.184570	76.543030
589.863403	731.658875	17860.294922	13814.807617	76.381729
590.204407	728.984070	17823.365234	13807.823242	76.509583
590.545410	721.776672	17896.849609	13817.260742	76.247040
590.886353	720.439209	17892.244141	13848.541992	76.451500
591.227112	722.816895	17916.986328	13839.625000	76.286369
591.567932	725.194580	17817.716797	13761.459961	76.268829
591.908752	723.262695	17680.333984	13688.866211	76.461342
592.249512	718.730286	17621.039063	13668.581055	76.615868
592.590149	719.696106	17530.908203	13608.989258	76.670807
592.930786	719.844788	17491.455078	13527.702148	76.366302
593.271423	713.231873	17390.181641	13476.359375	76.531548
593.612000	714.643616	17334.974609	13428.656250	76.496750
593.952576	723.782898	17339.580078	13416.395508	76.388824
594.292969	734.705322	17396.869141	13404.284180	76.038017
594.633484	732.922058	17472.210938	13461.944336	76.042793
594.973877	728.538147	17554.017578	13565.893555	76.297119
595.314209	728.612488	17673.867188	13674.301758	76.397141
595.654480	730.321472	17859.847656	13823.129883	76.434158
595.994812	732.401917	18048.207031	13962.151367	76.402740
596.335022	729.652771	18266.433594	14119.523438	76.353073
596.675171	724.897461	18480.126953	14248.883789	76.169029
597.015320	725.640442	18680.595703	14389.464844	76.100578
597.355408	729.727051	18764.781250	14444.968750	76.047691
597.695496	734.482361	18812.410156	14520.312500	76.257797
598.035461	733.739258	18756.681641	14492.820313	76.342041
598.375366	733.590637	18722.726563	14454.925781	76.275673
598.715271	739.014832	18600.794922	14358.628906	76.250046
599.055176	733.070618	18403.298828	14213.218750	76.287346
599.395081	723.262695	18152.080078	14046.854492	76.445763
599.734802	717.615723	17838.150391	13784.268555	76.321518
600.074524	722.816833	17512.333984	13540.409180	76.342827
600.414246	727.423645	17154.195313	13270.614258	76.358223
600.753906	725.343201	16839.820313	13049.340820	76.477798
601.093506	721.850891	16567.203125	12813.281250	76.309006
601.433044	721.850891	16377.805664	12651.747070	76.200378
601.772583	720.736389	16235.812500	12564.292969	76.335793
602.112122	720.885010	16212.409180	12564.664063	76.453285
602.451538	716.724060	16236.036133	12581.159180	76.449493
602.790894	715.535156	16373.050781	12661.480469	76.295280
603.130310	714.420715	16585.183594	12786.531250	76.065094
603.469604	718.061523	16796.576172	12967.086914	76.182571
603.808838	722.668274	17097.130859	13163.915039	75.979576
604.148010	724.005676	17350.501953	13373.671875	76.081367
604.487305	725.789001	17637.013672	13563.589844	75.912895
604.826416	728.092346	17829.533203	13736.789063	76.067833
605.165527	730.692932	18013.505859	13873.507813	76.045578
605.504456	734.928223	18116.193359	13982.286133	76.216301
605.843445	732.401917	18167.908203	14008.886719	76.146255
606.182434	733.590759	18141.826172	14011.041992	76.271088
606.521423	734.928223	18049.765625	13930.125000	76.207458
606.860229	740.798157	17829.458984	13787.093750	76.344757
607.199036	742.061279	17573.335938	13591.973633	76.345444
607.537903	738.569092	17310.158203	13418.402344	76.515488
607.876648	739.237793	17063.619141	13216.223633	76.431602
608.215271	730.544373	16787.585938	13025.563477	76.570885
608.553955	727.423584	16582.138672	12842.928711	76.415787
608.892578	725.343079	16391.105469	12713.640625	76.525467
609.231140	737.528809	16308.704102	12610.137695	76.247353
609.569641	736.860046	16245.027344	12551.735352	76.184860
609.908081	738.717590	16226.377930	12550.398438	76.265106
610.246521	729.726990	16228.606445	12564.218750	76.357079
610.584961	729.504089	16221.325195	12542.968750	76.256142
610.923340	721.405090	16199.034180	12509.903320	76.164757
611.261597	724.080017	16119.825195	12442.213867	76.112808
611.599854	731.658875	15975.233398	12377.272461	76.396866
611.938110	734.482422	15838.590820	12279.639648	76.437195
612.276245	737.231628	15604.092773	12147.528320	76.749870
612.614319	726.606384	15321.816406	11943.196289	76.851173
612.952393	724.377258	15012.715820	11687.743164	76.729469
613.290466	715.609558	14761.127930	11443.882813	76.382179
613.628479	717.689941	14519.569336	11222.906250	76.114395
613.966370	713.677673	14280.983398	11069.247070	76.327385
614.304260	714.272034	14041.875977	10913.658203	76.528282
614.642151	714.940735	13858.793945	10761.188477	76.433052
614.979980	713.826172	13678.312500	10602.329102	76.273773
615.317749	719.844727	13534.834961	10473.860352	76.114105
615.655396	720.885010	13434.601563	10432.918945	76.390205
615.993164	724.674377	13392.843750	10388.411133	76.283607
616.330811	728.018066	13366.911133	10363.743164	76.238678
616.668396	731.658875	13316.459961	10326.815430	76.244003
617.005859	732.327637	13290.750000	10333.131836	76.449135
617.343445	732.922058	13268.682617	10333.205078	76.583176
617.680908	737.157288	13259.468750	10336.176758	76.655334
618.018311	738.866211	13260.657227	10351.112305	76.764145
618.355652	735.448242	13260.211914	10365.527344	76.888313
618.692993	725.937561	13270.614258	10358.988281	76.789948
619.030273	720.141907	13264.522461	10325.180664	76.568459
619.367554	721.553711	13262.738281	10313.441406	76.483109
619.704712	724.154297	13239.555664	10284.833008	76.391304
620.041870	729.504150	13205.301758	10259.793945	76.390228
620.379028	721.405090	13150.540039	10210.159180	76.342834
620.716064	719.473145	13099.346680	10147.448242	76.155663
621.053040	721.330750	13032.473633	10116.687500	76.315880
621.389954	728.092285	12975.484375	10061.332031	76.205940
621.726929	726.903503	12925.032227	10051.821289	76.445480
622.063843	725.194580	12878.964844	10008.947266	76.385788
622.400635	721.776611	12857.863281	9987.325195	76.347084
622.737427	719.770508	12837.429688	9958.868164	76.244904
623.074219	721.033630	12793.887695	9911.463867	76.124756
623.410889	721.479492	12724.117188	9885.234375	76.347839
623.747559	720.810730	12689.790039	9870.745117	76.447075
624.084167	716.798401	12672.700195	9853.432617	76.419449
624.420715	719.398926	12682.062500	9843.699219	76.273148
624.757324	724.228699	12696.922852	9832.924805	76.078918
625.093750	724.451599	12750.272461	9862.422852	75.986259
625.430176	721.999573	12816.179688	9906.113281	75.938293
625.766602	726.457703	12880.153320	9976.774414	76.111145
626.102905	726.011902	12951.038086	10040.674805	76.193398
626.439209	717.838623	13025.192383	10103.313477	76.259079
626.775452	713.157532	13134.566406	10169.145508	76.126534
627.111694	716.946960	13228.114258	10237.578125	76.097061
627.447876	719.398926	13311.333008	10302.518555	76.105225
627.783997	723.782776	13360.668945	10339.744141	76.094391
628.120056	715.089355	13387.269531	10368.499023	76.177979
628.456055	717.912903	13362.971680	10351.706055	76.186226
628.792053	711.597168	13309.622070	10328.078125	76.333237
629.128052	713.826233	13251.890625	10272.796875	76.239601
629.463928	710.631165	13180.335938	10239.508789	76.416222
629.799744	716.203918	13071.854492	10139.870117	76.270096
630.135559	717.838562	12923.843750	10018.235352	76.195251
630.471375	721.776672	12784.079102	9880.849609	75.931381
630.807068	714.940857	12631.387695	9781.209961	76.081985
631.142700	724.451477	12506.113281	9712.702148	76.290176
631.478333	730.321472	12359.959961	9619.675781	76.437065
631.813965	730.024231	12251.179688	9534.227539	76.417709
632.149475	723.485596	12123.750977	9424.037109	76.318848
632.484924	725.343201	12025.375000	9342.007813	76.253456
632.820435	734.408020	11942.156250	9246.156250	75.945213
633.155884	733.219238	11866.961914	9195.630859	76.006897
633.491150	731.287354	11833.303711	9148.448242	75.816505
633.826477	725.789001	11749.934570	9140.497070	76.329796
634.161804	722.445313	11711.520508	9136.262695	76.565292
634.497009	718.804504	11634.171875	9111.890625	76.892380
634.832153	719.176086	11583.645508	9036.696289	76.557076
635.167297	728.463867	11513.058594	8960.461914	76.331085
635.502380	721.776672	11432.067383	8899.533203	76.354195
635.837463	716.575500	11361.257813	8833.626953	76.254517
636.172424	713.008972	11286.434570	8761.405273	76.119102
636.507324	715.237976	11198.534180	8674.916992	75.927261
636.842224	725.045898	11104.020508	8619.487305	76.061859
637.177124	721.925293	10982.833008	8515.388672	75.952957
637.511963	729.281250	10859.194336	8442.646484	76.144440
637.846741	727.349304	10721.882813	8364.553711	76.413818
638.181396	733.665039	10616.149414	8292.852539	76.490761
638.516113	737.380188	10530.627930	8208.742188	76.290947
638.850769	735.745544	10445.253906	8162.302734	76.487465
639.185303	729.281250	10352.671875	8099.219238	76.583588
639.519836	724.525818	10274.729492	8041.857910	76.619637
639.854370	719.473206	10183.632813	7944.149902	76.337227
640.188843	723.782776	10073.739258	7877.722656	76.513084
640.523254	724.748718	10016.674805	7817.166016	76.328819
640.857605	730.618652	9938.583008	7747.990234	76.209801
641.191895	721.107910	9876.168945	7692.783691	76.151062
641.526184	717.838623	9783.885742	7642.109375	76.375854
641.860413	716.426941	9749.780273	7631.632813	76.551926
642.194580	727.052185	9710.102539	7611.496582	76.638153
642.528748	727.869446	9662.697266	7564.240234	76.513733
642.862793	735.819824	9586.760742	7493.726563	76.352409
643.196838	735.002502	9535.788086	7417.343750	75.928925
643.530823	735.225403	9493.139648	7363.919434	75.688042
643.864746	734.705261	9440.829102	7325.728027	75.705597
644.198669	732.104675	9396.099609	7334.496094	76.204933
644.532532	728.240967	9358.427734	7317.629395	76.352798
644.866333	721.776611	9334.354492	7290.954590	76.274231
645.200073	725.417480	9308.125000	7258.335449	76.117218
645.533813	730.321472	9277.958008	7253.208496	76.312172
645.867554	725.045898	9263.915039	7238.942871	76.285240
646.201172	712.637390	9265.028320	7233.369629	76.244560
646.534729	711.671387	9262.725586	7211.599121	76.013168
646.868225	715.980957	9269.933594	7202.385254	75.829315
647.201782	725.863281	9253.883789	7198.075684	75.893494
647.535217	728.612488	9249.277344	7220.664063	76.191841
647.868591	727.720886	9248.682617	7236.639160	76.387131
648.201965	731.064514	9250.317383	7218.286621	76.147781
648.535278	721.405090	9235.977539	7198.447754	76.070084
648.868591	721.479431	9213.983398	7196.070313	76.238892
649.201782	726.754883	9183.742188	7172.962402	76.223450
649.534912	730.321472	9155.432617	7160.627441	76.323097
649.868103	729.355469	9130.615234	7142.645996	76.337250
650.201172	727.274963	9086.182617	7144.132324	76.766701
650.534180	734.779602	9049.179688	7129.346191	76.909531
650.867188	746.445129	9014.703125	7087.439453	76.690811
651.200134	741.912598	9017.229492	7055.711426	76.296768
651.533020	738.643311	8993.081055	7028.294434	76.197212
651.865845	728.240967	8933.788086	7004.071777	76.482788
652.198608	722.668274	8878.877930	6968.629395	76.579208
652.531433	725.417480	8860.748047	6930.810059	76.277077
652.864136	729.801453	8864.389648	6911.193359	75.988998
653.196777	857.899231	8997.911133	7034.089844	75.874466
653.529358	857.453369	8948.946289	7005.929688	75.986923
653.861938	855.001404	8893.516602	6972.270996	76.099495
654.194519	730.024231	8685.245117	6792.085938	76.202301
654.526978	727.720886	8635.165039	6768.458496	76.393051
654.859375	730.767273	8580.551758	6719.195313	76.287804
655.191833	726.754883	8525.123047	6685.609863	76.411560
655.524170	726.680603	8469.247070	6632.335449	76.275162
655.856445	718.804504	8409.062500	6604.396973	76.533096
656.188660	722.593933	8394.871094	6573.710449	76.263100
656.520874	715.758057	8361.062500	6536.113281	76.129807
656.853088	721.256531	8370.202148	6537.153809	76.035278
657.185181	716.649719	8356.232422	6542.205566	76.254898
657.517212	719.027405	8383.948242	6579.729004	76.461342
657.849243	714.346375	8417.086914	6581.884277	76.174683
658.181274	725.417480	8455.500977	6622.081543	76.282021
658.513123	723.931458	8504.465820	6651.059082	76.178925
658.844971	732.327637	8595.116211	6721.423828	76.170128
659.176819	722.073792	8692.080078	6784.210449	76.061882
659.508667	726.829285	8806.061523	6847.962402	75.763794
659.840393	723.485596	8876.203125	6898.933594	75.747108
660.172058	720.885010	8927.917969	6936.530762	75.735596
660.503662	723.559875	8941.515625	6972.567871	76.040901
660.835266	720.885010	8955.410156	7008.455566	76.356194
661.166931	720.513489	8917.664063	6982.598145	76.393433
661.498413	715.089355	8868.624023	6957.855469	76.565147
661.829773	712.860352	8761.034180	6866.834473	76.464233
662.161194	723.782898	8642.446289	6776.111328	76.431190
662.492615	723.782776	8509.073242	6651.356934	76.138123
662.823975	722.965515	8341.297852	6537.599121	76.324234
663.155212	721.999512	8213.571289	6433.203613	76.235062
663.486450	727.275085	8067.121094	6326.134277	76.280334
663.817627	732.773438	7960.347656	6223.967285	75.975616
664.148743	739.089172	7827.568848	6122.099121	75.940262
664.479858	739.980774	7729.935059	6062.210449	76.141121
664.810913	742.284180	7637.279297	5991.994629	76.137985
665.141907	733.962219	7585.416016	5942.880371	76.026466
665.472778	731.956116	7508.066895	5875.264160	75.903542
665.803711	723.485657	7470.395996	5864.862793	76.203430
666.134583	721.033630	7415.411621	5835.437988	76.398499
666.465454	719.844788	7396.390625	5820.355469	76.394455
666.796143	719.027527	7337.617188	5789.445313	76.608734
667.126831	722.593933	7331.821777	5783.054688	76.566597
667.457458	724.154297	7300.464844	5767.674316	76.692245
667.788147	722.371094	7296.081543	5747.092285	76.436607
668.118774	717.244141	7248.453125	5720.863770	76.610924
668.449219	716.798340	7240.279785	5706.077637	76.481850
668.779663	719.398926	7239.834473	5696.789551	76.335251
669.110107	721.182190	7235.302246	5681.111816	76.141205
669.440552	718.432922	7229.877441	5669.669434	76.038986
669.770874	722.519714	7202.014160	5647.898438	76.014862
670.101135	722.073792	7183.289551	5647.006348	76.223000
670.431396	725.194580	7157.135254	5615.947754	76.038528
670.761597	725.863281	7111.959473	5582.066406	76.043373
671.091797	724.080017	7069.606934	5549.521484	76.044769
671.421875	723.559875	7003.551270	5526.265137	76.476303
671.751892	722.668274	6973.533203	5526.859375	76.856422
672.081909	727.646545	6932.889160	5494.760254	76.823967
672.411865	728.018066	6904.877441	5448.246582	76.417938
672.741821	728.018066	6862.673340	5385.238770	75.916580
673.071716	734.631042	6814.599121	5350.316406	75.916275
673.401550	731.807556	6768.828613	5345.709473	76.426796
673.731262	733.739319	6746.538574	5331.517090	76.466507
674.060974	732.030457	6720.755371	5298.304199	76.247849
674.390625	729.058350	6699.356934	5268.285645	76.030159
674.720276	730.692932	6650.911621	5241.313965	76.190109
675.049927	721.999573	6617.846191	5220.211914	76.294594
675.379395	732.104736	6587.679688	5183.729004	76.023682
675.708923	720.662109	6539.828613	5160.397949	76.295044
676.038330	718.730225	6487.445313	5135.357910	76.561729
676.367737	712.711731	6442.491699	5109.575684	76.737045
676.697083	719.324646	6426.888184	5087.136230	76.526726
677.026428	723.559875	6402.442871	5060.684082	76.372841
677.355652	717.689941	6383.792969	5042.033691	76.319542
677.684875	721.033508	6388.101563	5028.808105	76.014168
678.013977	719.176025	6390.330566	5037.947266	76.153305
678.343079	725.863281	6408.609863	5051.767578	76.123474
678.672180	723.262695	6409.501465	5051.173828	76.112022
679.001221	723.188416	6473.550781	5063.656250	75.481644
679.330139	719.473206	6499.630859	5090.553223	75.622162
679.659058	725.417480	6541.685547	5116.708496	75.500145
679.987976	729.058289	6555.729004	5141.451172	75.727516
680.316772	730.247131	6605.066406	5160.026855	75.402824
680.645630	723.708496	6635.084473	5198.218262	75.693199
680.974304	721.702332	6674.390625	5227.418945	75.692131
681.302979	722.148193	6706.267090	5258.775391	75.811104
681.631653	725.045959	6755.157715	5286.267578	75.640747
681.960266	721.999512	6774.699219	5305.363281	75.724289
682.288757	723.262695	6773.138672	5311.158691	75.834549
682.617249	721.851013	6737.845215	5313.536621	76.324638
682.945679	724.823059	6715.851563	5292.285645	76.238373
683.274109	722.519592	6682.489746	5258.701172	76.110809
683.602478	725.045959	6630.105469	5192.942871	75.662186
683.930725	722.445313	6549.710449	5145.463379	75.902122
684.259033	726.011902	6450.367676	5102.367676	76.451500
684.587280	726.011902	6365.439941	5036.758301	76.439423
684.915344	734.779602	6301.836426	4960.301270	75.902252
685.243469	738.346191	6244.549316	4901.304688	75.604881
685.571533	737.157410	6189.713379	4858.877930	75.592445
685.899536	729.727051	6131.980469	4839.113281	76.068001
686.227539	729.206970	6087.101563	4786.804199	75.731186
686.555420	728.463867	6055.448730	4785.392090	76.158058
686.883301	730.321472	6039.250488	4790.147461	76.471657
687.211121	725.194519	6040.588379	4793.268066	76.533806
687.538940	719.398926	6055.597656	4787.546875	76.236816
687.866638	713.974854	6056.191895	4760.724121	75.750374
688.194336	720.736389	6044.377441	4759.684082	75.868141
688.521973	721.330811	6028.476563	4754.333984	75.991943
688.849609	727.869446	6025.355957	4752.253418	75.967804
689.177063	726.531982	5999.572754	4718.742676	75.709839
689.504578	728.166687	5932.403809	4673.715332	75.814156
689.832031	728.018066	5852.751465	4630.991699	76.159546
690.159485	722.148193	5780.380371	4581.208496	76.292664
690.486816	733.144958	5720.121094	4543.908691	76.414314
690.814087	734.482422	5644.777832	4483.797852	76.356209
691.141296	737.603088	5562.599121	4444.640137	76.829849
691.468506	731.510254	5482.946777	4379.253418	76.771378
691.795715	728.240967	5401.956543	4316.839355	76.782555
692.122803	729.875671	5345.857910	4254.871094	76.365005
692.449829	724.451477	5302.316406	4199.515625	75.910156
692.776855	724.897278	5254.613770	4142.079590	75.439217
693.103821	719.993347	5185.512207	4103.665527	75.773323
693.430664	722.891113	5121.612793	4064.433594	75.966217
693.757568	723.188293	5070.417969	4051.281982	76.556664
694.084351	725.045898	5030.962891	4017.919922	76.473236
694.411133	718.730225	4988.758789	3992.879639	76.677467
694.737854	726.383362	4961.415527	3959.889404	76.351395
695.064575	724.971680	4940.090820	3932.100342	76.086311
695.391174	734.036621	4920.549316	3900.521484	75.635384
695.717773	727.572205	4905.242676	3895.692139	75.834602
696.044250	723.262695	4912.970215	3883.506592	75.428749
696.370789	720.810730	4919.509277	3892.868408	75.548592
696.697205	716.872620	4939.273438	3891.828125	75.193138
697.023621	724.748718	4967.136719	3937.895752	75.739105
697.349915	720.959290	5023.458008	3973.783936	75.603157
697.676208	723.485596	5101.699219	4041.473633	75.784058
698.002380	715.535217	5191.382324	4097.869629	75.568588
698.328674	718.358704	5299.567383	4184.877930	75.668228
698.654724	712.934570	5407.604004	4249.149902	75.324051
698.980896	716.946960	5507.392090	4320.703125	75.227997
699.306946	709.367981	5573.373047	4371.526367	75.291008
699.632935	712.488770	5629.248535	4406.894531	75.139030
699.958862	716.129578	5641.730957	4426.063965	75.319412
700.284729	718.804504	5646.561035	4429.779297	75.307594
700.610596	721.776672	5595.068848	4417.296875	75.832115
700.936340	721.033630	5517.423340	4367.885254	76.033264
701.262146	736.785828	5412.656250	4277.904785	75.731758
701.587830	734.556641	5290.650879	4179.082520	75.602600
701.913513	734.630920	5156.683105	4076.618408	75.575485
702.239075	729.801270	5021.229492	3983.294189	75.813759
702.564697	731.064453	4890.976563	3888.112549	75.892181
702.890137	732.922058	4776.030273	3786.243896	75.519173
703.215698	728.538269	4666.730957	3716.844971	75.880157
703.541016	723.782898	4564.490234	3646.480225	76.097893
703.866455	722.668274	4484.392090	3597.886475	76.433525
704.191711	720.142029	4405.334473	3532.277100	76.309044
704.517029	730.247131	4360.900879	3481.082764	75.766953
704.842163	733.367859	4303.093262	3433.677490	75.644745
705.167419	735.671204	4267.428223	3398.235107	75.389214
705.492493	730.767273	4229.533691	3372.005859	75.490562
705.817566	724.897278	4203.081543	3357.739990	75.695892
706.142578	726.309082	4180.270996	3340.130127	75.676025
706.467590	731.956116	4158.945801	3323.857666	75.632019
706.792480	728.538147	4144.011230	3303.870361	75.401917
707.117371	728.463867	4132.865723	3298.149170	75.481255
707.442200	723.188416	4142.376465	3304.761963	75.502533
707.766907	725.863281	4149.881348	3302.681641	75.257149
708.091675	717.764343	4159.689453	3315.015869	75.459267
708.416321	713.454773	4148.395020	3306.694092	75.495911
708.741028	717.541321	4147.131836	3322.297607	75.949486
709.065552	720.736328	4169.794434	3325.789795	75.529419
709.390137	720.959290	4177.150879	3340.278564	75.786285
709.714600	715.832458	4204.643066	3357.219482	75.710243
710.039063	710.854187	4228.047852	3382.036865	75.946419
710.363403	716.649719	4266.982422	3412.649414	75.936539
710.687744	717.987244	4309.260254	3441.999268	75.850876
711.012085	725.120300	4353.693359	3467.633789	75.581047
711.336304	722.668274	4392.851074	3489.552979	75.388199
711.660461	730.693054	4418.262207	3518.605469	75.602989
711.984619	732.327637	4435.426270	3536.883789	75.735390
712.308716	736.265625	4452.144531	3558.654297	75.954811
712.632751	731.138855	4451.847656	3557.465576	75.962051
712.956726	735.894104	4416.405273	3540.970459	76.214317
713.280701	731.213074	4382.820313	3505.008057	75.960938
713.604553	734.482422	4335.860840	3462.952393	75.761826
713.928467	728.538147	4287.712402	3426.172607	75.793831
714.252258	727.572266	4221.731934	3376.835938	75.819763
714.575989	719.027405	4162.513184	3341.393311	76.154396
714.899719	720.885010	4115.182129	3293.765625	75.800102
715.223267	721.330811	4087.690186	3277.196045	75.923721
715.546936	724.897278	4077.436279	3250.521484	75.334671
715.870422	725.640381	4053.956299	3236.849609	75.449844
716.193970	729.727051	4034.117920	3218.868408	75.328300
716.517395	730.172852	4006.699951	3193.753906	75.188789
716.840820	734.779602	3978.167725	3179.264893	75.368263
717.164124	733.442139	3936.557861	3145.085205	75.290535
717.487488	727.795166	3893.165283	3120.119873	75.578041
717.810730	727.052063	3860.249268	3088.318359	75.362839
718.133972	730.990173	3808.534424	3061.792236	75.735779
718.457092	739.534973	3754.739502	3022.634521	75.719559
718.780212	738.197571	3693.365234	2982.734131	75.952934
719.103210	728.538147	3653.018799	2932.728271	75.370308
719.426208	717.467102	3607.025391	2897.880127	75.458351
719.749207	707.510559	3586.740967	2858.946045	74.722588
720.072083	717.764343	3550.927002	2830.041992	74.555466
720.394958	725.491882	3506.196533	2798.017578	74.532394
720.717773	728.835449	3441.033203	2760.048828	74.891785
721.040527	722.816895	3397.863281	2733.968750	75.181946
721.363281	723.857117	3369.925537	2711.380615	75.112328
721.685913	727.423645	3346.000000	2697.040283	75.217079
722.008545	728.018066	3314.124023	2686.414795	75.727631
722.331055	726.903503	3286.929443	2661.894775	75.584831
722.653503	724.971680	3257.951172	2635.146240	75.412163
722.976013	725.566101	3249.852539	2612.334961	74.744644
723.298401	728.241028	3238.929688	2608.322754	74.883110
723.620789	726.086182	3230.162109	2606.836670	75.107567
723.943115	719.844727	3206.236328	2592.496094	75.316025
724.265381	724.154297	3182.831299	2585.660400	75.711700
724.587585	721.479431	3189.889893	2579.418945	75.268661
724.909790	733.665039	3196.874756	2575.555420	74.776031
725.231873	733.367859	3202.670654	2576.892578	74.657700
725.553894	737.008728	3195.834717	2590.713135	75.389816
725.875916	768.661682	3217.902344	2633.660156	76.145988
726.197937	761.974426	3239.227295	2634.625977	75.593880
726.519775	765.020813	3243.387939	2630.390869	75.266090
726.841675	722.222412	3225.852539	2619.542480	75.782761
727.163513	720.290527	3227.710205	2631.133789	76.207558
727.485291	716.724060	3247.697998	2655.133545	76.587494
727.806946	718.061462	3280.390869	2666.575928	76.044647
728.128662	721.033630	3307.065674	2690.353027	76.152168
728.450256	724.748718	3330.470703	2698.451904	75.744965
728.771790	729.727051	3334.186279	2704.693115	75.830177
729.093323	723.559875	3326.830078	2698.600342	75.867668
729.414795	721.107910	3316.130615	2694.216553	76.034348
729.736145	715.683777	3311.078125	2693.250732	76.195236
730.057495	720.439209	3317.468018	2684.557373	75.629433
730.378845	719.250427	3323.114990	2683.739990	75.445152
730.700134	714.272156	3319.102539	2678.761719	75.417175
731.021301	719.176086	3317.393555	2685.077393	75.663460
731.342468	724.674500	3314.644531	2686.043213	75.729401
731.663574	737.603088	3332.402588	2677.869873	74.775208
731.984680	731.881775	3347.188721	2692.582031	74.970177
732.305664	730.544250	3357.888672	2698.600586	74.906677
732.626648	729.949890	3357.443115	2713.163818	75.479317
732.947571	736.042786	3363.758545	2704.767578	74.921532
733.268433	735.745605	3353.207764	2700.160889	75.050377
733.589233	735.819824	3335.151611	2688.866943	75.136505
733.909973	734.779602	3319.994141	2682.031006	75.322624
734.230713	736.860107	3308.923096	2669.399658	75.135780
734.551331	726.754944	3278.607422	2645.845703	75.203827
734.871948	717.467102	3233.877686	2599.778076	74.801422
735.192505	713.751953	3176.813232	2566.638916	75.226997
735.513062	720.885010	3146.051514	2550.366455	75.437355
735.833435	731.213135	3088.987061	2535.951904	76.544182
736.153931	738.420471	3058.002930	2496.645752	75.799217
736.474304	736.637207	3001.681641	2455.481934	75.885696
736.794617	728.389587	2982.436768	2427.766846	75.392265
737.114807	722.073792	2954.127686	2428.287109	76.441406
737.434998	728.092346	2942.684814	2415.729980	76.205338
737.755188	729.578430	2935.552002	2415.952881	76.445816
738.075256	725.714661	2941.347656	2414.912842	76.239983
738.395325	720.810730	2971.811768	2418.776367	75.431580
738.715271	721.553711	2992.022217	2431.482178	75.311699
739.035278	724.897400	3010.597656	2430.590576	74.624535
739.355164	719.844727	3020.702881	2446.714111	75.053276
739.675049	723.188416	3026.052734	2442.701904	74.668465
739.994873	721.627991	3021.297119	2441.587158	74.791595
740.314636	719.621887	3006.510742	2433.711182	74.952888
740.634277	719.993408	2990.535889	2426.355225	75.152161
740.953979	721.330872	2961.334961	2420.856934	75.871559
741.273499	731.064453	2925.000977	2400.869385	76.109993
741.593140	720.736389	2894.759766	2377.315430	76.198769
741.912598	717.318420	2862.809570	2342.244629	75.736794
742.232117	719.547546	2828.035889	2318.541992	75.836060
742.551453	727.275085	2777.584229	2288.597900	76.150604
742.870850	733.293640	2745.708252	2265.044189	76.115059
743.190063	729.950012	2716.284424	2232.202393	75.629379
743.509338	730.470032	2693.250732	2216.004395	75.685196
743.828552	726.829163	2677.646973	2192.822021	75.147606
744.147705	724.897278	2661.226074	2174.320557	74.854195
744.466797	722.296692	2632.099609	2145.937012	74.543839
744.785828	724.080017	2606.836670	2138.283936	75.113472
745.104858	723.262634	2580.533447	2139.546875	76.256203
745.423706	725.863281	2572.583252	2137.837891	76.458511
745.742615	728.538147	2561.363525	2134.197266	76.693565
746.061401	732.476257	2561.735107	2115.324219	75.596077
746.380249	730.915833	2546.205811	2094.593750	75.121765
746.698975	723.708496	2533.574219	2077.875488	74.821404
747.017639	719.324646	2514.032471	2069.330811	75.221497
747.336304	711.745789	2510.986084	2068.810547	75.424316
747.654907	709.739563	2503.184326	2058.556885	75.208191
747.973389	716.426819	2502.812744	2055.213135	74.943848
748.291931	729.578430	2508.088135	2052.612549	74.390045
748.610352	737.157410	2516.484375	2055.213135	74.076080
748.928711	735.968445	2526.738281	2059.522705	73.909790
749.247070	725.937561	2524.360596	2062.049072	74.293503
749.565308	714.717834	2517.673584	2070.073975	75.174126
749.883545	712.191589	2506.379639	2058.705566	75.048653
750.201782	715.312317	2501.772705	2051.423828	74.790993
750.519836	722.891174	2502.590088	2042.953247	74.173332
750.837952	724.748779	2494.119629	2037.231934	74.177956
751.155884	727.200684	2471.457275	2028.761597	74.619804
751.473877	730.247131	2457.116943	2016.204468	74.467529
751.791809	724.600098	2443.147705	2005.727905	74.547127
752.109619	727.497986	2432.299561	2004.093140	74.882339
752.427490	722.296692	2413.129639	1987.820801	74.846191
752.745300	728.835388	2405.550537	1994.730835	75.498543
753.062988	729.801270	2411.791992	1997.851563	75.389847
753.380615	733.293518	2413.426514	2001.789551	75.499741
753.698303	727.572205	2415.581299	2001.195313	75.451195
754.015808	725.491699	2410.157471	1994.285034	75.314247
754.333374	724.748718	2403.693115	1991.609985	75.455826
754.650757	722.519714	2401.835449	1985.368652	75.200211
754.968262	722.371094	2401.760986	1973.108765	74.475716
755.285583	721.033691	2393.588135	1969.170776	74.624603
755.602905	726.160461	2377.835938	1956.910767	74.515259
755.920105	722.222473	2359.928711	1953.046997	75.155388
756.237305	722.593994	2361.935059	1946.879883	74.681587
756.554443	724.377197	2355.247803	1947.994507	75.028473
756.871582	725.417480	2360.968994	1953.790039	75.104485
757.188599	725.937561	2356.510742	1952.081055	75.197083
757.505615	722.593994	2360.894531	1942.644531	74.470497
757.822510	721.628113	2371.222656	1938.112183	73.744438
758.139465	719.101746	2379.544678	1956.836426	74.542442
758.456238	724.451477	2395.445313	1976.378052	74.921074
758.773010	732.327637	2400.943604	1988.192017	75.263832
759.089783	731.658936	2425.166504	1987.597656	74.161980
759.406433	724.748718	2453.550293	1999.783569	73.752533
759.723145	723.039795	2465.512939	2010.334473	73.877449
760.039673	732.550537	2470.788574	2010.408569	73.514557
760.356201	730.544373	2453.476074	2010.928711	74.314285
760.672668	732.476257	2455.333496	2012.266235	74.283005
760.989136	726.457703	2451.097900	2018.359253	74.908478
761.305481	723.262695	2456.076416	2014.421265	74.512253
761.621826	719.844727	2453.550049	2013.455078	74.615356
761.938049	725.491699	2462.540771	2022.965820	74.694153
762.254333	734.185242	2485.723389	2047.782837	74.996811
762.570496	732.030457	2531.419678	2082.927979	75.075333
762.886597	735.522644	2611.146240	2138.060791	74.777161
763.202637	741.095276	2735.008789	2215.929932	73.966835
763.518677	742.284180	2876.630127	2313.935303	73.636192
763.834656	739.906494	3025.755615	2426.281006	73.774536
764.150574	736.785828	3140.181641	2506.230713	73.622696
764.466370	741.689758	3206.533936	2571.691650	74.244125
764.782288	735.894226	3229.196045	2595.096924	74.567894
765.097961	732.624817	3205.642334	2599.183838	75.476982
765.413696	730.990234	3156.602539	2543.159424	74.709763
765.729309	731.956116	3058.597412	2463.283691	74.413170
766.044861	725.937561	2940.901611	2382.367920	74.783623
766.360474	721.850891	2814.364258	2299.074707	75.374611
766.675903	724.897278	2689.906982	2214.666748	75.814865
766.991394	735.374023	2575.183838	2110.791748	74.758690
767.306763	737.751648	2483.048096	2043.250610	74.800995
767.622131	730.544373	2411.346191	1977.641235	74.196548
767.937378	726.383362	2353.761719	1939.375366	74.536560
768.252625	728.909668	2307.694092	1897.097168	73.992844
768.567810	732.476257	2260.065674	1866.930176	74.264320
768.882996	734.853943	2213.849609	1834.979980	74.383316
769.197998	733.367859	2180.636475	1805.184570	74.057899
769.513062	735.002502	2154.853271	1786.311646	74.043633
769.828064	729.875671	2131.076172	1761.717407	73.639839
770.142944	731.213135	2107.522217	1737.271851	73.098312
770.457825	726.977844	2073.491699	1722.485718	73.932236
770.772705	722.296692	2054.990234	1716.541504	74.604156
771.087402	719.176025	2016.278687	1714.683960	76.748581
771.402100	725.714661	1992.798950	1689.792480	76.086327
771.716736	732.030457	1962.037598	1670.176636	76.271606
772.031372	731.807434	1963.969360	1652.715454	74.739204
772.345947	727.126465	1956.687866	1635.551636	73.882050
772.660461	727.275085	1953.492798	1616.975708	72.556496
772.974854	729.206848	1926.892578	1601.372192	72.820885
773.289246	733.070618	1915.226929	1595.799438	72.979256
773.603638	730.990173	1890.186890	1584.802734	73.655533
773.917908	724.600098	1884.317017	1577.669556	73.558418
774.232178	721.182129	1864.552612	1572.022583	74.415115
774.546265	727.646545	1863.512329	1581.310547	75.155365
774.860474	725.120300	1844.936523	1571.428223	75.575615
775.174561	728.389587	1838.174927	1559.688477	74.906273
775.488586	729.132568	1832.602173	1535.094116	73.038857
775.802551	729.578369	1808.973999	1530.710327	74.220421
776.116516	725.714661	1789.209473	1516.147095	74.324051
776.430359	715.386536	1762.906372	1512.952026	76.138466
776.744202	717.615662	1764.095215	1500.246216	74.786995
777.057922	714.940735	1762.980591	1495.119263	74.441689
777.371704	718.433044	1755.550415	1486.574585	74.065048
777.685303	717.690002	1749.903320	1481.150391	73.963425
777.998962	721.330811	1741.655884	1483.156616	74.665009
778.312500	720.587830	1745.073730	1484.716919	74.586594
778.626038	728.463867	1741.655884	1489.918091	75.153992
778.939453	732.327637	1741.730103	1479.664429	74.037544
779.252869	732.773438	1738.535034	1469.113281	73.212166
779.566223	726.903503	1740.244141	1457.001953	72.048668
779.879578	719.027405	1734.968750	1459.602661	72.895477
780.192749	723.262695	1721.519897	1457.893677	73.591354
780.505920	719.101746	1713.272095	1459.974121	74.521675
780.819031	719.473206	1701.234985	1459.974121	75.425720
781.132141	724.302979	1712.528931	1460.271362	74.473694
781.445190	732.253357	1708.368164	1463.317871	74.895340
781.758118	735.151184	1701.755249	1454.550171	74.425407
782.071045	729.727051	1679.538696	1449.274536	75.756859
782.383911	728.686768	1666.535645	1424.531738	74.195854
782.696838	726.754944	1669.359253	1413.237671	72.828300
783.009583	725.045959	1666.089844	1396.890991	71.393593
783.322266	719.621826	1659.848633	1389.832397	71.281799
783.634888	717.318420	1638.375000	1389.832397	73.015488
783.947510	714.717834	1625.223511	1390.426880	74.212502
784.260132	715.237976	1621.508423	1388.049194	74.239563
784.572571	712.265869	1609.619751	1382.625000	74.703987
784.885010	715.312256	1605.533203	1376.532227	74.275940
785.197449	721.776611	1585.991577	1379.281372	76.081161
785.509766	733.962219	1583.093750	1376.532227	75.673790
785.822083	728.909668	1575.515015	1379.578613	76.856232
786.134277	726.977783	1572.839966	1372.222656	76.282509
786.446533	720.884949	1571.056641	1357.139160	74.838318
786.758606	724.971680	1561.397461	1353.275391	75.117691
787.070740	726.606262	1571.056763	1353.275513	74.210297
787.382690	726.011902	1574.846313	1366.872925	75.498947
787.694641	722.371033	1590.746948	1369.027710	74.467369
788.006653	717.467102	1608.059570	1382.922241	74.720497
788.318481	721.107910	1639.712524	1406.624878	74.625900
788.630310	720.216309	1681.396362	1426.537964	73.484840
788.942017	715.906738	1709.259766	1446.153809	73.513351
789.253784	715.089355	1716.095703	1454.847290	73.901421
789.565430	724.971680	1701.978149	1456.779175	74.903038
789.877014	735.374023	1678.944336	1444.073364	75.108269
790.188538	738.271790	1664.306641	1427.875366	74.468430
790.500061	737.974609	1644.541992	1408.630859	73.977539
790.811462	738.940613	1629.384277	1392.209961	73.364479
791.122925	743.324402	1600.926392	1368.284546	72.872986
791.434204	740.129395	1587.031860	1356.470337	72.775909
791.745483	735.671204	1567.341675	1342.278564	72.938431
792.056702	728.463867	1560.877319	1341.609863	73.658829
792.367920	725.863281	1532.419312	1313.820801	72.897293
792.678955	721.330811	1520.010742	1300.223267	72.481155
792.990112	722.296692	1512.654785	1283.356567	70.988060
793.301086	724.228577	1512.506226	1300.669067	73.126579
793.612122	730.544250	1498.834473	1295.765137	73.568672
793.922974	722.222412	1485.311401	1289.672363	74.362228
794.233826	720.216309	1477.583984	1271.096680	72.736191
794.544556	719.770508	1471.639648	1268.421753	72.971642
794.855286	722.371094	1468.890503	1275.406250	74.081818
795.166016	717.467041	1471.713989	1282.465088	74.908897
795.476624	717.689941	1483.528198	1293.090332	75.133408
795.787292	726.829163	1494.970703	1291.604370	73.524887
796.097778	728.686768	1515.255371	1307.802124	73.625534
796.408264	721.033630	1543.044556	1321.696777	73.072403
796.718689	719.770508	1557.087769	1333.436646	73.289558
797.029053	727.126465	1567.490234	1332.470581	72.033585
797.339355	735.596985	1553.744141	1328.904175	72.518394
797.649658	734.928223	1546.388306	1331.133179	73.473106
797.959839	731.807556	1526.995239	1333.213745	75.630722
798.270020	731.584656	1510.351563	1329.721436	76.805626
798.580078	727.869446	1499.726196	1321.919556	76.963776
798.890137	730.098572	1487.912109	1310.402710	76.576111
799.200195	724.674500	1478.921387	1300.297607	76.317596
799.510071	724.228577	1459.676880	1293.759033	77.439903
799.820007	717.987122	1450.611938	1285.511353	77.464508
800.129883	719.324646	1439.169312	1284.322388	78.488838
800.439575	719.696106	1444.296265	1272.062500	76.230507
800.749329	722.965515	1443.701782	1271.616699	76.123711
801.058960	727.349365	1444.593628	1265.821167	75.075096
801.368591	727.274963	1441.621460	1260.768677	74.682762
801.678162	728.315247	1434.488281	1250.440552	73.937302
801.987671	726.977783	1432.779297	1247.319824	73.723564
802.297119	721.107910	1423.045532	1243.530396	74.425774
802.606506	717.838562	1413.609253	1234.019531	74.188377
802.915894	713.528992	1397.559937	1214.998047	73.310875
803.225159	728.166687	1391.467163	1206.527588	72.118279
803.534424	736.562927	1390.426758	1205.635864	71.738625
803.843628	745.479248	1389.906738	1209.945435	72.074234
804.152771	735.448303	1380.618774	1210.911499	73.695747
804.461792	721.850891	1370.216431	1212.843384	75.727730
804.770874	717.541321	1375.714844	1211.431641	75.039528
805.079773	719.398926	1393.399048	1218.713257	74.082230
805.388733	727.943665	1412.271973	1219.159058	71.780663
805.697571	727.795105	1425.423462	1224.583130	71.210983
806.006470	728.761047	1423.565918	1227.035156	71.714249
806.315125	728.983948	1425.349121	1234.019531	72.524529
806.623901	726.606262	1414.352173	1244.124634	75.248482
806.932495	724.822998	1407.516479	1245.239258	76.229858
807.241150	727.052185	1401.275024	1234.390991	75.247940
807.549622	728.612488	1404.024292	1222.131104	73.069290
807.858154	728.983948	1397.188354	1209.796875	71.955963
808.166565	727.943787	1393.770386	1206.899048	71.933929
808.474915	728.538269	1378.984009	1198.725830	72.286980
808.783264	736.414246	1376.829468	1202.143677	72.723045
809.091492	732.550537	1361.003052	1201.549316	74.627563
809.399719	733.739319	1353.052612	1192.558594	74.085167
809.707825	730.692932	1347.702759	1180.447266	72.892570
810.015930	725.491699	1346.365234	1168.113159	71.290115
810.323975	721.999512	1341.015503	1168.336060	72.104202
810.632080	713.751953	1334.625488	1164.026367	72.522728
810.939880	721.182190	1329.201416	1162.986206	72.662834
811.247864	732.624817	1326.600708	1163.209106	72.491882
811.555664	733.070740	1324.817505	1166.924316	73.317436
811.863464	727.646545	1315.826782	1165.140991	74.381020
812.171143	718.210144	1307.653687	1163.952148	75.620811
812.478882	721.999512	1293.090210	1154.144165	75.670059
812.786438	722.965515	1290.266846	1152.806763	75.769478
813.094055	721.702332	1294.279175	1151.469360	75.058403
813.401489	712.711731	1294.502075	1157.116333	76.385696
813.708984	714.123474	1297.176880	1157.116211	75.978073
814.016357	718.061523	1283.653809	1153.549805	76.996857
814.323730	725.789001	1287.220337	1153.921265	76.257278
814.630981	725.194580	1274.737427	1142.478638	75.932945
814.938232	722.742615	1281.276245	1129.698608	72.861504
815.245361	722.445374	1267.753052	1115.135254	72.012535
815.552490	718.433044	1281.201782	1116.769897	70.781624
815.859619	718.655945	1281.424683	1126.429199	72.458405
816.166565	727.497986	1293.164551	1128.955566	70.970711
816.473572	731.584534	1281.870605	1140.398071	74.291092
816.780457	726.829285	1286.774414	1138.986450	73.606705
817.087341	718.953125	1286.625854	1140.695435	74.293213
817.394043	724.080078	1297.474121	1137.871948	72.165359
817.700806	723.485657	1305.052979	1143.667603	72.249924
818.007507	726.532043	1316.495605	1153.401123	72.355164
818.314209	723.782898	1326.006226	1156.670532	71.881577
818.620667	726.903503	1326.526367	1155.333008	71.449829
818.927246	727.126465	1334.328247	1166.701294	72.393532
819.233704	726.754944	1346.216675	1181.710449	73.443680
819.540161	731.138855	1382.401978	1212.100220	73.850548
819.846497	729.429871	1421.633911	1236.917480	73.314743
820.152832	728.835449	1480.110352	1276.966553	72.960121
820.458984	728.240967	1535.391602	1309.288208	71.987457
820.765259	722.593933	1597.211304	1358.848145	72.746582
821.071350	720.364807	1687.191895	1425.794922	72.963417
821.377502	713.454773	1844.639282	1554.115723	74.316872
821.683472	716.946960	2144.673584	1768.553345	73.656013
821.989441	714.197754	2659.443115	2129.218750	72.742546
822.295349	717.467102	3376.315674	2629.052979	71.895256
822.601196	724.748718	4171.652344	3187.958252	71.461517
822.907043	733.813660	4845.949219	3676.647217	71.564598
823.212769	733.145020	5235.815430	3967.542236	71.832863
823.518494	724.674500	5296.446777	4031.591064	72.333359
823.824097	720.216309	5065.736816	3893.685303	73.028511
824.129700	719.993347	4701.355957	3656.436768	73.754738
824.435242	727.720886	4320.183105	3379.436279	73.813316
824.740723	734.333801	3988.792969	3122.572021	73.383568
825.046082	738.494690	3683.854736	2889.929932	73.044899
825.351501	726.457764	3363.461670	2668.953857	73.662994
825.656799	723.634277	3038.906982	2441.810303	74.210526
825.962036	716.649841	2743.776611	2228.784424	74.594971
826.267212	727.423645	2531.567871	2064.129639	74.090858
826.572449	730.098572	2424.497559	1976.600952	73.566055
826.877502	725.194580	2434.751465	1970.285156	72.831184
827.182495	717.095520	2540.707275	2041.169922	72.607254
827.487488	707.287598	2679.876221	2135.757568	72.416008
827.792419	720.439209	2798.612061	2227.967041	72.541023
828.097290	717.021301	2824.766602	2252.561279	72.852257
828.402100	720.662109	2752.247070	2222.543213	73.926575
828.706848	724.377197	2608.917236	2119.262207	74.017265
829.011597	730.470032	2442.850586	2006.099121	74.494484
829.316223	734.556641	2290.009766	1888.626587	74.195099
829.620789	724.451477	2150.172119	1785.048462	74.390228
829.925354	725.789001	2013.380859	1679.167114	74.043503
830.229797	720.736328	1890.112671	1581.384766	73.598930
830.534302	721.850891	1746.931274	1486.500366	74.594101
830.838562	722.371094	1629.087280	1391.244141	73.768730
831.142944	720.216309	1526.103516	1318.278931	74.211700
831.447144	722.073792	1458.265137	1257.499268	72.729118
831.751404	721.925232	1405.658813	1221.388062	73.049332
832.055542	726.309082	1370.959473	1186.243042	71.346260
832.359619	720.439148	1357.659302	1179.258423	72.003258
832.663635	714.792175	1369.919312	1192.707275	72.949974
832.967651	720.587830	1399.268921	1216.632813	73.089554
833.271545	730.395752	1466.512695	1268.198853	73.059464
833.575439	735.819824	1558.871094	1335.665894	72.880768
833.879211	725.045959	1690.684082	1427.949707	72.791634
834.183044	718.210144	1810.014282	1513.397827	72.832443
834.486694	707.956360	1907.870972	1582.499390	72.883774
834.790344	715.237976	1942.347290	1626.337891	74.247650
835.093933	714.346375	1931.796265	1617.718750	74.202011
835.397522	717.021301	1888.849487	1591.267090	74.605293
835.700928	721.256531	1820.416626	1528.332642	73.426613
836.004395	727.423645	1760.900269	1470.822388	71.931847
836.307739	736.340027	1673.668945	1409.076782	71.771683
836.611023	727.200684	1602.635376	1374.005981	73.883904
836.914307	725.343201	1516.295776	1324.668823	75.772636
837.217529	720.736389	1456.407593	1282.019165	76.295334
837.520691	724.377258	1389.089478	1224.806030	75.285027
837.823730	723.262695	1330.761841	1181.487671	75.428085
838.126831	726.086243	1281.424805	1138.020386	74.177116
838.429749	727.720886	1242.936035	1104.435669	73.117958
838.732727	725.937561	1211.505859	1075.308960	71.951035
839.035522	730.470032	1186.242920	1060.225586	72.350845
839.338379	734.779602	1169.896240	1053.166870	73.172852
839.641113	738.420410	1177.623779	1060.151245	73.253273
839.943848	741.318298	1200.583374	1070.999512	71.784515
840.246460	731.658936	1226.886597	1087.048828	71.762932
840.549072	723.782898	1253.709839	1108.299438	72.560295
840.851563	713.751953	1267.455811	1115.283813	72.517441
841.154053	720.885071	1279.195679	1119.593384	71.413353
841.456482	724.377258	1262.923340	1110.008301	71.605949
841.758850	728.984070	1241.747070	1102.578125	72.859009
842.061157	724.005676	1219.084839	1090.020874	73.930641
842.363403	725.640381	1197.834106	1067.209961	72.336746
842.665588	719.027527	1173.685913	1046.479492	72.021538
842.967712	721.107910	1154.144165	1030.430176	71.431030
843.269775	723.559875	1130.738647	1023.222839	73.594940
843.571777	726.829285	1108.670776	1004.795715	72.796288
843.873840	728.240967	1080.435913	989.192200	74.092842
844.175659	725.789001	1064.163574	983.099304	76.043037
844.477600	727.720886	1046.999756	979.681396	78.915497
844.779297	730.692932	1034.442505	969.947693	78.767113
845.081116	728.612488	1020.919434	952.560852	76.614113
845.382751	726.234802	1013.191895	947.805481	77.213867
845.684387	718.878845	1015.198059	932.870667	72.216652
845.985962	719.027405	1005.984558	920.462097	70.196785
846.287537	724.748718	1000.560364	905.973083	65.705841
846.588989	725.714661	990.381042	908.276428	68.978073
846.890381	733.442139	995.284973	920.684998	71.509636
847.191711	725.045898	998.257141	918.158691	70.682594
847.493042	729.801270	985.922852	913.106140	71.569473
847.794250	724.525879	976.263489	907.087646	72.520660
848.095459	727.572266	967.198486	910.877136	76.496162
848.396606	725.937561	965.341003	911.545837	77.529495
848.697693	725.640442	962.888977	907.607727	76.699013
848.998657	729.504089	959.099426	903.521179	75.792953
849.299622	731.064453	958.133606	906.270264	77.159668
849.600464	736.117126	958.282227	906.716064	76.789261
849.901367	732.104736	957.985046	906.641785	77.269707
850.202087	725.566101	955.978760	902.109314	76.620445
850.502808	716.129578	953.675476	899.285828	77.103523
850.803467	715.386658	951.743591	897.205383	76.925491
851.104065	718.804504	956.721863	890.146667	72.017509
851.404663	727.720886	953.303894	882.790710	68.741798
851.705139	728.761047	958.430847	883.756531	67.486229
852.005615	732.773438	952.709473	884.202332	68.851334
852.306030	733.665039	957.241943	893.193054	71.352638
852.606384	734.556641	957.019043	893.787415	71.576485
852.906616	730.024231	959.025208	895.942200	72.452950
853.206909	729.504089	956.498962	888.066101	69.852684
853.506958	730.767273	944.833435	883.087830	71.155830
853.807129	726.234863	944.981995	880.561523	70.550255
854.107178	721.182190	943.718933	884.945496	73.589333
854.407166	722.668274	943.347351	886.059998	74.040421
854.707092	733.665039	942.232910	888.289001	74.136040
855.007019	725.491699	931.607605	887.025879	78.370552
855.306763	728.240967	941.564148	888.214661	74.991241
855.606567	722.445313	937.848938	882.344910	74.232544
855.906250	726.977844	943.124512	876.846497	69.336555
856.205933	726.829285	934.282410	879.669922	73.674782
856.505493	729.578430	936.585754	877.292236	71.356804
856.805054	727.869446	939.632263	870.976501	67.578934
857.104492	728.983948	945.799316	870.382080	65.215919
857.403931	727.943787	944.981995	876.251953	68.332748
857.703308	742.804260	939.037781	876.400574	68.080269
858.002563	737.008728	933.836609	868.895996	67.006393
858.301819	735.745605	935.991394	871.719543	67.903519
858.601013	728.686768	939.929443	875.211731	69.363335
858.900208	727.497986	943.124329	877.366516	69.503815
859.199219	728.389465	943.644531	869.341797	65.481537
859.498291	727.126465	949.291565	866.964172	62.943150
859.797302	729.281250	955.087219	863.323303	59.361607
860.096191	726.680664	945.130615	865.552429	63.571434
860.395020	723.114075	938.369080	874.245850	70.210571
860.693787	723.708496	927.297913	870.010559	71.861328
860.992554	724.228699	930.864502	872.908386	71.952530
861.291260	728.018066	925.143127	865.180847	69.581604
861.589844	715.237976	923.731384	870.976501	74.697098
861.888428	712.711731	921.502380	872.536804	76.548004
862.186890	718.655945	923.062683	878.258118	78.080681
862.485413	729.652649	919.719055	883.310730	80.844421
862.783813	735.671204	919.496155	882.864929	80.072769
863.082153	726.829163	926.480652	881.081604	77.260849
863.380371	728.538147	932.499207	877.143555	72.859695
863.678589	718.358704	933.242188	873.428467	72.164581
863.976746	714.569275	927.372314	870.679260	73.358910
864.274902	712.414551	933.093506	868.153015	70.572411
864.572937	718.953125	929.378418	870.233398	71.892632
864.870911	716.203918	934.356689	874.171570	72.411484
865.168884	718.061523	935.099792	869.787598	69.907524
865.466736	714.717834	946.839600	871.719543	67.637650
865.764587	724.674500	941.935608	865.478088	64.808464
866.062317	724.080017	935.396973	873.428528	70.675117
866.360107	728.835449	934.876770	875.954773	71.402824
866.657715	729.281250	936.883057	884.350891	74.695709
866.955322	726.309082	939.780823	883.756531	73.755638
867.252808	724.600098	937.105957	883.459290	74.755203
867.550293	720.364929	938.369080	874.691650	70.790726
867.847717	729.281250	935.471252	874.097168	70.234207
868.145081	731.213074	930.270020	871.570984	70.511436
868.442383	732.996338	935.174011	876.326233	70.893036
868.739624	723.485596	937.848938	873.205566	69.844017
869.036804	722.668213	941.935547	872.611145	68.383614
869.333984	723.708496	936.511475	872.759766	70.041908
869.631042	725.120300	940.226563	872.239746	68.393845
869.928101	718.507324	945.799316	877.663757	70.022896
870.224976	722.668274	949.663086	884.945374	71.489342
870.521851	725.045898	942.307068	894.456238	77.975433
870.818726	732.253357	936.362854	889.849426	77.211533
871.115479	727.052063	936.288574	885.762756	75.852295
871.412231	732.699158	943.941833	878.035339	68.800575
871.708862	730.470032	941.712708	881.156006	71.333115
872.005493	731.138855	943.050110	885.911316	73.036453
872.302063	724.748779	942.455627	888.437561	75.187706
872.598572	726.531982	943.198730	885.539795	73.388191
872.895020	730.692932	944.090332	883.236389	71.483276
873.191406	734.259460	940.672546	886.505798	73.758087
873.487671	732.179016	944.833313	883.682312	71.243935
873.783997	735.151184	942.678650	877.366516	68.528442
874.080200	736.414307	945.725037	876.103333	66.737633
874.376343	734.408142	954.344177	884.276672	68.141869
874.672424	730.024231	953.155273	891.186829	72.227783
874.968445	720.141907	958.728027	892.895752	72.407333
875.264465	721.999512	960.065430	886.282776	69.007469
875.560364	722.742615	967.049988	881.824707	65.115555
875.856201	732.401917	964.375061	878.703918	63.068508
876.152039	735.671204	949.143066	889.403503	72.015251
876.447754	733.888000	950.777649	891.335449	72.593346
876.743469	731.956116	952.932434	894.679016	73.638161
877.039063	734.482422	962.888977	882.790588	64.931656
877.334595	731.956238	954.344055	885.019714	68.827278
877.630127	727.052063	945.427795	886.951599	73.222206
877.925537	721.702332	946.393738	894.976257	77.116402
878.221008	721.999512	959.916809	899.062927	74.422256
878.516296	721.256531	974.108643	908.722229	74.140450
878.811646	718.655945	981.984802	913.551941	74.012398
879.106812	719.919006	981.613281	922.171082	77.285629
879.401978	722.371033	991.718445	922.691223	74.372421
879.697083	727.795105	1010.665527	934.579651	73.102219
879.992126	727.572266	1044.176147	954.121277	71.555977
880.287109	729.132568	1081.699097	985.105469	72.602722
880.582031	727.497864	1141.141235	1031.693237	73.540489
880.876892	726.829285	1255.641602	1115.135254	73.429825
881.171753	726.457703	1465.695679	1255.641602	71.585052
881.466492	733.293640	1784.157227	1481.373413	71.187149
881.761230	736.711487	2160.574707	1749.234741	71.110985
882.055786	731.807556	2526.812744	2022.743042	71.918213
882.350403	717.318420	2775.057861	2208.648438	72.474190
882.644958	717.689941	2875.738281	2283.694092	72.565758
882.939453	729.504089	2826.475342	2245.205322	72.280495
883.233826	735.299744	2706.847900	2161.094727	72.318542
883.528137	733.145020	2567.381836	2076.612305	73.243942
883.822449	730.024231	2455.630615	2008.699707	74.100067
884.116577	725.714661	2333.699707	1929.418823	74.857910
884.410828	727.497986	2222.468506	1840.552734	74.453293
884.704956	718.804504	2075.720703	1726.126587	74.236130
884.999023	721.107910	1916.044312	1588.220703	72.565605
885.292969	721.553711	1722.411499	1443.033081	72.086105
885.586914	722.965515	1553.001099	1314.786621	71.300690
885.880798	722.593994	1423.491333	1232.607910	72.765854
886.174622	718.655945	1331.133179	1168.633179	73.468399
886.468384	715.386536	1251.034912	1129.772827	77.361626
886.762085	718.135803	1192.187134	1095.593628	79.623833
887.055664	712.711670	1156.521851	1063.420532	79.022263
887.349304	712.563171	1128.138184	1028.944092	76.130882
887.642822	714.717834	1108.447998	1001.526428	72.843948
887.936340	717.318420	1080.881714	986.442932	74.024117
888.229736	720.364929	1057.550659	972.548340	74.790657
888.523071	716.203918	1037.711792	958.653748	75.410233
888.816284	714.494934	1023.742920	940.375244	73.041801
889.109619	719.844788	1019.359070	937.923279	72.810715
889.402710	726.309082	1012.448914	928.858215	70.786766
889.695862	732.550598	998.479980	930.047058	74.266502
889.988892	735.968445	989.860840	917.415588	71.466156
890.281921	743.175720	986.145691	906.790344	67.339439
>>>>>End Processed Spectral Data<<<<<
