Jaz Data File
++++++++++++++++++++++++++++++++++++
Date: Fri Jun 04 16:18:17 2021
User: jaz
Dark Spectrum Present: Yes
Reference Spectrum Present: Yes
Processed Spectrum Present: Yes
Spectrometers: JAZA3586
Integration Time (usec): 40000 (JAZA3586)
Spectra Averaged: 10 (JAZA3586)
Boxcar Smoothing: 1 (JAZA3586)
Correct for Electrical Dark: No (JAZA3586)
Strobe/Lamp Enabled: Yes (JAZA3586)
Correct for Detector Non-linearity: No (JAZA3586)
Correct for Stray Light: No (JAZA3586)
Number of Pixels in Processed Spectrum: 2048
>>>>>Begin Processed Spectral Data<<<<<
W	D	R	S	P
191.335022	0.000000	0.000000	0.000000	0.000000
191.713211	302.709259	311.922791	297.508087	-56.451447
192.091385	614.260559	623.697021	608.242126	-63.778484
192.469528	925.737549	936.511475	921.725281	-37.240540
192.847641	941.043945	939.334961	939.557861	86.957146
193.225739	943.644531	952.486572	942.678528	-10.925118
193.603790	944.016113	964.152100	944.536133	2.582538
193.981842	948.622864	970.021973	943.941833	-21.874884
194.359863	958.876648	966.455505	951.892090	-92.158455
194.737854	973.662903	971.953857	956.127258	1026.049072
195.115829	975.297607	974.554504	966.826904	1139.909668
195.493774	979.532715	978.195313	967.644348	888.914734
195.871704	981.613220	970.690735	972.622620	82.312775
196.249603	985.922791	974.554504	967.049988	166.012741
196.627457	980.721680	972.399658	965.861145	178.568802
197.005310	977.675293	975.000305	963.483398	530.540527
197.383133	973.142761	974.108704	960.659912	-1292.297485
197.760910	981.613220	970.913757	971.730957	92.362236
198.138687	975.669006	967.867249	963.260559	159.046814
198.516449	972.771179	966.158203	963.632019	138.200409
198.894180	962.220215	971.582336	950.257507	-127.777740
199.271866	966.083984	966.381104	958.728027	-2475.760010
199.649536	964.152161	962.591736	964.152100	0.003911
200.027191	959.545410	962.071594	965.415222	232.358841
200.404816	956.053040	967.272888	969.576172	120.528648
200.782410	950.777649	981.687683	973.439941	73.316940
201.159988	955.755920	997.811279	984.511047	68.374466
201.537537	953.303955	1012.523193	990.306641	62.484230
201.915070	964.523621	1007.321960	984.511047	46.701408
202.292557	958.282227	998.182678	981.910461	59.217964
202.670029	960.659912	993.501648	979.012695	55.882500
203.047485	948.771484	991.049622	983.099304	81.195206
203.424911	953.303955	989.563660	988.151855	96.106407
203.802292	955.904541	989.340637	990.306641	102.889107
204.179688	961.254333	992.015625	991.198303	97.343018
204.557037	959.768250	994.764832	983.545166	67.940681
204.934357	958.653748	996.176575	981.093079	59.801815
205.311661	961.848694	999.074402	977.377930	41.716427
205.688934	962.294617	996.993958	974.851746	36.188377
206.066177	960.362732	998.405701	974.182922	36.327843
206.443390	955.681641	1001.600647	975.446106	43.042015
206.820587	951.743591	1001.600647	982.356262	61.400879
207.197769	950.331848	991.272644	979.235535	70.598740
207.574921	950.480286	994.319031	972.994141	51.356068
207.952042	943.793152	992.387024	966.975586	47.706497
208.329147	939.112061	993.353027	963.632019	45.205608
208.706223	954.492676	992.535706	978.789734	63.867306
209.083267	968.535889	993.724609	976.412048	31.268597
209.460297	972.102356	994.021790	977.675110	25.423805
209.837280	954.715576	986.740051	972.771179	56.380638
210.214264	943.644531	987.334473	978.343933	79.421944
210.591217	945.204895	989.563660	980.721619	80.066978
210.968124	945.873596	985.402649	977.972412	81.203102
211.345016	956.870422	987.260254	979.235535	73.594063
211.721893	954.938660	991.495605	973.811523	51.625931
212.098724	953.824036	997.439758	976.783630	52.640636
212.475555	952.560852	995.210632	973.068542	48.083931
212.852356	950.480408	987.928955	984.213867	90.079491
213.229126	952.858093	983.990906	981.539001	92.124374
213.605865	942.678528	983.247864	980.350098	92.857254
213.982590	943.124451	986.219971	968.164368	58.103294
214.359283	946.319519	983.247864	969.278992	62.173035
214.735931	942.381409	982.727783	970.170593	68.876534
215.112579	937.700378	985.105469	977.972412	84.952972
215.489197	934.876770	988.895020	968.981750	63.136036
215.865799	950.108887	995.507813	969.947754	43.698978
216.242355	955.755859	994.913391	966.752686	28.083553
216.618896	955.012878	990.455261	971.805237	47.379314
216.995407	939.557922	978.715393	971.433777	81.404274
217.371902	937.105957	977.898132	968.461670	76.866982
217.748367	939.409363	982.579163	974.405945	81.067276
218.124802	948.622864	984.511047	968.684570	55.900589
218.501236	951.966492	989.637939	968.833191	44.773163
218.877609	951.297852	990.009460	966.009705	38.003723
219.253983	951.817932	995.804993	974.331604	51.182487
219.630295	947.285339	992.387146	977.303711	66.556915
220.006592	949.068604	994.839111	974.851746	56.331345
220.382889	951.743591	992.164246	968.312988	40.992401
220.759140	955.087158	987.706116	968.684570	41.685612
221.135391	945.427795	989.712219	975.594666	68.120728
221.511581	942.158447	992.015625	981.613220	79.135590
221.887772	938.889160	997.216797	979.384094	69.426666
222.263931	945.873718	998.108459	973.217041	52.347004
222.640060	939.780823	1005.538757	966.232605	40.225994
223.016159	939.037842	1010.888489	970.913635	44.363960
223.392212	940.895447	1009.328125	971.210754	44.299461
223.768265	952.858093	1001.303467	974.777405	45.245419
224.144302	959.916809	992.758728	964.746521	14.705937
224.520294	958.802246	991.569824	965.192383	19.501400
224.896286	952.635193	994.467590	970.096375	41.740810
225.272217	952.040710	993.724609	974.926025	54.902050
225.648148	951.372009	997.439758	981.538879	65.483711
226.024048	950.926208	997.291199	973.588562	48.878159
226.399902	953.824036	999.817383	975.891907	47.980572
226.775772	953.303894	991.123962	967.718567	38.113819
227.151581	948.399902	991.346863	969.873352	49.999928
227.527374	942.158447	984.213806	965.563782	55.653633
227.903137	933.019226	987.185852	966.529785	61.865692
228.278870	942.530029	990.529541	972.845459	63.157787
228.654572	943.718811	999.074402	972.994141	52.885948
229.030273	953.972595	997.737000	976.709229	51.952343
229.405930	950.406067	990.232422	978.789734	71.268555
229.781555	946.542419	990.604004	986.145691	89.881630
230.157181	940.598145	997.142578	982.876404	74.769974
230.532761	937.328857	994.541992	979.086914	72.986839
230.908325	939.483643	988.895020	976.040527	73.984749
231.283859	943.124451	983.545166	979.755676	90.624886
231.659332	947.582581	991.495422	972.102478	55.837646
232.034821	944.387512	996.102234	975.743347	60.632320
232.410263	942.307129	995.656433	974.554443	60.445614
232.785690	948.028503	986.517151	982.653503	89.961594
233.161087	957.464844	984.213806	976.412048	70.833420
233.536469	955.978821	984.065247	968.907410	46.031448
233.911804	957.019104	987.111633	964.226379	23.950380
234.287140	958.579407	999.148682	968.610352	24.725471
234.662430	965.861084	1005.687256	977.601013	29.477926
235.037704	955.384338	1002.566650	978.641174	49.291428
235.412933	951.074768	990.901123	977.823914	67.164436
235.788162	940.449524	984.956848	976.263489	80.467575
236.163345	944.090393	994.096130	975.297546	62.407146
236.538513	943.495911	1003.978333	977.377991	56.019714
236.913635	949.737488	1009.551086	983.842285	57.018467
237.288742	943.718933	1006.281738	982.281982	61.638939
237.663834	935.396973	1004.869934	980.350098	64.705933
238.038879	934.728271	1003.532532	973.737122	56.695400
238.413910	935.025452	1013.266174	975.817627	52.136757
238.788910	941.861328	1008.956543	970.319275	42.414272
239.163879	935.248352	1011.185730	971.062256	47.162418
239.538834	939.260681	999.445862	971.433777	53.456841
239.913757	935.917053	1003.978333	982.876282	68.995514
240.288651	949.663086	1002.640930	984.436707	65.638046
240.663528	954.864258	1010.442688	987.185974	58.155144
241.038361	959.991150	1009.551086	982.727783	45.877045
241.413177	955.161438	1004.795715	978.864075	47.754574
241.787979	953.452454	1000.709167	975.891907	47.484158
242.162735	954.789856	996.845398	977.749512	54.593651
242.537476	952.932373	1002.417969	980.498718	55.705795
242.912170	953.601074	1010.888489	984.882568	54.604477
243.286865	954.195557	1017.352783	978.789734	38.941193
243.661514	955.755859	1018.393066	980.201477	39.027309
244.036148	951.594910	1016.758484	979.458496	42.759449
244.410751	952.560852	1018.838928	986.963074	51.905884
244.785339	947.805481	1021.885315	982.281921	46.539577
245.159882	951.669250	1014.529297	986.294250	55.082684
245.534378	944.684875	1009.179504	986.665833	65.092178
245.908890	950.183167	1006.058838	993.427429	77.393723
246.283356	946.913879	1007.842102	996.548157	81.463524
246.657791	945.650696	1010.591309	988.894958	66.590477
247.032196	938.740540	1018.170105	987.706055	61.646461
247.406586	931.013123	1030.132935	981.613220	51.049427
247.780960	936.139954	1043.581665	982.727783	43.361027
248.155289	939.929382	1048.634277	977.972351	34.996555
248.529602	944.090332	1046.405151	978.789734	33.914345
248.903870	940.895325	1037.711792	976.263367	36.531017
249.278122	938.146179	1027.755249	975.966248	42.205624
249.652344	946.096497	1018.467468	969.650574	32.546307
250.026550	953.675476	1008.882385	970.393555	30.282583
250.400711	960.139709	1010.591309	970.839355	21.207745
250.774857	949.068665	1017.947266	976.337708	39.590008
251.148987	933.465088	1023.371399	981.539001	53.471123
251.523071	925.737610	1020.919434	977.675293	54.566807
251.897125	937.626038	1020.845032	974.628723	44.464230
252.271164	945.650696	1019.284668	971.656738	35.317993
252.645187	950.703308	1023.222839	976.040466	34.938393
253.019165	939.632263	1026.120605	971.730957	37.113319
253.393112	942.678650	1034.814087	973.291321	33.225731
253.767044	951.223450	1036.968750	968.461731	20.104053
254.140930	957.093445	1030.950317	980.572998	31.790613
254.514801	951.297791	1028.646851	987.631775	46.974049
254.888657	942.158508	1032.510620	990.232361	53.207226
255.262466	941.564148	1041.129761	979.309875	37.910404
255.636276	942.009827	1040.832520	970.690735	29.022593
256.010010	945.204895	1040.758179	968.090149	23.950254
256.383759	944.238953	1037.043091	966.752625	24.259340
256.757446	952.337891	1043.730347	967.198486	16.260199
257.131134	948.325623	1045.142090	976.783630	29.393768
257.504791	948.399902	1056.436035	986.740051	35.488266
257.878418	945.130615	1054.652832	992.832947	43.554935
258.252014	952.040710	1057.253418	990.455261	36.511322
258.625580	957.687805	1056.956177	987.260254	29.790403
258.999115	954.344177	1066.244141	983.470764	26.029129
259.372650	953.303894	1078.132446	981.687500	22.738071
259.746124	949.514465	1091.729858	983.693665	24.033403
260.119598	957.093323	1097.896973	976.634949	13.878636
260.493042	952.115051	1107.407715	976.486328	15.693772
260.866425	953.006653	1109.711182	975.669006	14.461837
261.239838	949.811707	1114.020752	984.436768	21.085964
261.613159	944.610535	1108.299438	987.037354	25.919178
261.986511	936.808777	1103.023926	987.408875	30.442532
262.359802	935.248352	1095.593628	985.774170	31.510637
262.733063	943.867493	1088.311890	990.975342	32.613136
263.106293	951.520691	1089.203613	993.798889	30.706930
263.479523	948.919983	1095.370605	994.764832	31.303963
263.852692	940.523743	1094.776245	993.055847	34.055916
264.225861	938.220398	1090.466797	983.470703	29.721758
264.598969	947.731140	1081.773438	988.597717	30.487822
264.972076	949.811707	1083.630981	979.607117	22.265409
265.345154	948.771484	1081.104614	977.080750	21.392426
265.718201	944.164734	1089.277954	970.542175	18.177145
266.091217	949.143005	1100.348999	979.681396	20.196548
266.464203	948.399963	1106.739136	983.842346	22.383837
266.837158	945.502136	1116.695557	979.309875	19.748270
267.210114	938.666260	1120.113525	977.006592	21.130289
267.583038	943.793152	1134.676758	980.647400	19.307184
267.955902	948.622803	1136.757324	988.449158	21.169085
268.328766	956.647461	1131.779053	986.071472	16.801086
268.701569	952.263611	1130.292969	982.653503	17.070158
269.074371	947.879700	1143.964722	979.309875	16.028851
269.447144	949.440186	1153.698364	982.133362	16.005810
269.819885	950.554749	1159.494019	989.935120	18.847759
270.192596	948.177063	1156.893433	986.740051	18.476265
270.565277	940.449524	1168.410278	987.111633	20.469360
270.937927	942.307129	1185.128418	980.350098	15.667065
271.310577	942.604309	1205.561646	986.294250	16.614840
271.683136	948.548523	1221.165161	988.003235	14.472599
272.055725	949.960266	1232.161987	996.250793	16.403347
272.428284	952.263672	1236.917480	996.102295	15.400681
272.800812	951.817871	1244.273315	991.495605	13.567104
273.173279	947.582703	1239.740845	986.294373	13.250245
273.545776	953.675476	1235.802856	985.699951	11.351069
273.918152	952.189453	1229.338501	989.266418	13.377988
274.290558	944.684814	1225.028931	987.631836	15.319395
274.662964	938.666321	1226.812134	986.294434	16.529171
275.035278	939.112122	1221.759644	987.260254	17.034691
275.407593	940.821045	1228.149658	986.591553	15.929673
275.779907	948.697205	1232.607910	983.619385	12.300409
276.152161	947.434021	1244.942017	978.715515	10.514505
276.524384	959.248108	1255.270142	970.690735	3.865465
276.896606	948.177063	1259.431152	977.823730	9.524909
277.268799	948.994324	1266.861450	976.783508	8.742391
277.640930	946.690918	1262.254517	988.449036	13.232869
278.013031	942.827148	1269.313354	988.523438	13.996392
278.385162	942.752869	1267.752930	984.733948	12.917253
278.757233	945.799316	1281.870483	990.678162	13.353971
279.129272	952.040771	1280.607300	992.535645	12.324711
279.501282	953.452454	1287.889038	1002.195007	14.574528
279.873230	943.644531	1300.297729	1000.114563	15.833317
280.245178	944.981995	1317.164429	997.365417	14.074663
280.617126	941.489746	1335.071289	992.089905	12.856335
280.988983	945.576416	1340.049683	986.963074	10.491626
281.360870	949.365906	1364.792358	988.820618	9.497400
281.732697	946.616699	1386.340210	988.820618	9.597831
282.104492	947.582703	1414.203735	987.260254	8.503164
282.476288	945.947937	1431.070435	983.024963	7.642817
282.848053	946.542297	1431.962036	987.408752	8.418787
283.219757	947.582520	1432.853638	988.300476	8.390764
283.591461	944.238953	1426.835083	988.374695	9.145482
283.963135	951.372009	1433.596680	986.591492	7.303542
284.334747	951.669189	1433.893921	983.768005	6.656402
284.706360	948.028381	1443.553223	979.384094	6.327778
285.077942	947.359680	1460.717163	982.059082	6.759306
285.449524	943.273132	1486.203125	987.111633	8.074430
285.821014	947.434021	1500.171875	993.724609	8.374782
286.192535	944.238953	1528.555664	985.328369	7.032045
286.563995	944.907715	1542.004395	985.551270	6.806863
286.935425	949.960266	1561.694702	981.241699	5.113564
287.306824	950.703308	1560.654297	984.585388	5.554886
287.678223	949.365906	1551.515015	988.077637	6.428928
288.049561	940.523865	1535.465820	998.479980	9.741474
288.420898	934.059570	1525.880737	996.102356	10.483367
288.792145	936.214294	1527.812500	994.021790	9.771412
289.163452	940.077942	1538.512207	985.997131	7.673222
289.534668	941.861267	1550.549194	994.096130	8.581551
289.905914	935.471252	1582.127808	996.696716	9.468003
290.277039	933.910889	1609.248413	1002.120789	10.100120
290.648193	939.780823	1636.294434	993.798828	7.755485
291.019318	945.873718	1641.569946	985.031067	5.628512
291.390381	950.108887	1657.990845	980.201477	4.251075
291.761475	951.743591	1652.864136	983.916565	4.588793
292.132507	954.418457	1653.458496	979.161194	3.539531
292.503510	957.390564	1632.876587	979.012634	3.200965
292.874481	956.721863	1629.161499	983.396484	3.966843
293.245422	957.687805	1626.560913	992.164246	5.154407
293.616364	952.189453	1642.907593	993.278809	5.948788
293.987213	954.567078	1657.025024	982.059082	3.913687
294.358093	941.935608	1692.690308	979.904297	5.057403
294.728943	944.684814	1731.104858	975.297546	3.892669
295.099731	941.043945	1775.017700	981.093079	4.802206
295.470490	947.433899	1808.602539	977.675110	3.511648
295.841248	939.780762	1822.497070	981.464600	4.722224
296.211975	939.855164	1834.905640	987.334473	5.304652
296.582642	943.198730	1861.654785	999.148682	6.091740
296.953308	946.839600	1899.697754	1002.863770	5.879592
297.323883	950.703369	1949.629272	1006.504700	5.586133
297.694519	953.601135	1959.585571	1007.247620	5.332735
298.065063	954.195557	1963.598022	1015.346619	6.058145
298.435608	946.988098	1941.455688	1011.334290	6.470416
298.806122	939.483582	1913.815063	1007.396240	6.970180
299.176575	938.369080	1872.205688	998.034119	6.389237
299.547028	936.288574	1846.274048	993.798889	6.319916
299.917450	940.821045	1821.456909	994.244690	6.066485
300.287872	943.495911	1814.100952	996.102295	6.042509
300.658234	949.440186	1806.819214	993.204407	5.104419
301.028564	955.904541	1813.432129	991.198242	4.115751
301.398865	950.703308	1820.639648	988.746338	4.373082
301.769135	945.502136	1812.466309	991.495422	5.305097
302.139374	942.901550	1813.580933	992.758606	5.726224
302.509583	942.307129	1814.249512	996.102234	6.169571
302.879791	951.743469	1815.661255	994.096130	4.902395
303.249939	952.189392	1817.147339	994.319031	4.870715
303.620087	951.817871	1814.843750	987.631836	4.149814
303.990173	943.570313	1811.500366	991.198242	5.487531
304.360260	938.517761	1808.676758	988.077637	5.695497
304.730286	946.022278	1810.608765	994.690613	5.629088
305.100281	949.960266	1819.599121	997.662659	5.485311
305.470276	947.433899	1824.503296	998.925781	5.870902
305.840179	944.981934	1834.682617	996.473816	5.787551
306.210144	935.768372	1849.171753	999.891785	7.020273
306.579987	937.774597	1861.060181	1000.857666	6.832455
306.949890	943.347351	1866.855835	1005.613037	6.742297
307.319702	951.149231	1870.125122	1001.897888	5.522305
307.689484	954.864441	1895.759766	1000.931946	4.896135
308.059265	950.851990	1914.261108	1002.120850	5.321609
308.429016	948.622803	1952.898438	998.925781	5.008882
308.798737	941.712646	1978.087036	999.966003	5.620880
309.168396	942.009949	2013.306519	994.839172	4.931335
309.538055	936.808777	2036.563477	1003.383972	6.053641
309.907684	941.638367	2059.820068	1006.430359	5.794407
310.277313	935.619812	2080.922119	1007.916504	6.312455
310.646851	946.765320	2104.996094	997.662598	4.394399
311.016388	944.610535	2121.194092	992.090027	4.035369
311.385895	946.988220	2124.834961	998.331360	4.359068
311.755371	943.495911	2118.816406	1002.863770	5.051206
312.124817	941.638367	2125.503418	1005.613037	5.403883
312.494232	946.839539	2122.085449	1001.229187	4.627938
312.863617	943.198730	2120.896729	1005.613098	5.299692
313.232971	947.359680	2105.293213	1003.458252	4.844714
313.602295	947.136719	2111.757568	999.520203	4.497900
313.971619	957.167664	2120.822510	1001.452087	3.805632
314.340820	957.241943	2122.383057	1010.665710	4.585176
314.710083	951.297791	2133.454346	1018.467468	5.681962
315.079285	946.319397	2145.937012	1013.043274	5.562095
315.448486	945.576416	2182.270752	1015.346680	5.641674
315.817596	948.474182	2189.180908	1015.569641	5.407842
316.186707	943.941711	2180.710205	1015.941162	5.821579
316.555786	950.257507	2142.741943	1006.801941	4.741734
316.924866	949.960266	2113.243896	996.919617	4.036793
317.293884	952.337952	2093.702148	1000.188965	4.192440
317.662872	943.198730	2086.494873	998.851501	4.867748
318.031830	938.517578	2089.095459	1006.950500	5.947700
318.400757	938.889160	2103.064453	1010.591309	6.159051
318.769684	944.016113	2119.039307	1017.872986	6.285567
319.138550	945.799316	2142.593018	1018.467468	6.071903
319.507416	944.833435	2152.921143	1016.684143	5.947475
319.876190	942.901550	2158.419922	1021.662415	6.479611
320.244995	947.136780	2165.032959	1031.544678	6.930631
320.613770	954.567078	2154.853271	1034.219604	6.636128
320.982483	956.721863	2146.754150	1034.516724	6.537206
321.351166	954.418457	2119.410889	1030.727417	6.550168
321.719818	949.068604	2111.237549	1035.631348	7.448379
322.088440	949.142883	2119.262451	1035.557007	7.385067
322.457062	948.102722	2138.729736	1039.420776	7.669745
322.825623	949.068665	2164.884033	1043.433228	7.761422
323.194183	948.474304	2192.450439	1050.491821	8.200923
323.562653	948.399963	2229.676025	1056.213257	8.414524
323.931183	944.759094	2267.793213	1061.265747	8.806020
324.299591	943.570251	2310.517334	1067.655884	9.077575
324.668060	950.108826	2355.990723	1071.519531	8.635911
325.036407	949.068665	2393.885010	1075.828979	8.773455
325.404755	949.514465	2418.033447	1081.327393	8.975908
325.773102	945.650818	2418.702148	1085.859863	9.518273
326.141388	943.793213	2432.893799	1092.472900	9.984529
326.509674	948.325684	2451.395508	1100.646240	10.133965
326.877899	954.715637	2471.085693	1110.454102	10.270478
327.246124	958.282227	2471.159912	1119.890625	10.682185
327.614288	948.325623	2467.964844	1127.098022	11.764134
327.982422	935.916992	2456.968018	1129.178589	12.705793
328.350525	941.861267	2445.079834	1140.323853	13.202511
328.718628	951.372070	2432.151123	1147.531128	13.247017
329.086700	960.734131	2433.488525	1163.877808	13.793452
329.454712	961.848694	2449.983643	1167.518677	13.820654
329.822693	954.046936	2467.741943	1184.608276	15.231690
330.190674	956.498962	2483.642822	1192.484375	15.452730
330.558563	955.681641	2485.500244	1202.886719	16.159111
330.926483	958.802307	2488.249268	1209.574097	16.396238
331.294312	952.783875	2499.840576	1229.412842	17.880985
331.662231	948.102722	2542.936279	1247.765503	18.789597
332.029999	951.000488	2581.202148	1266.044067	19.325436
332.397766	947.805481	2624.074951	1288.409180	20.319149
332.765503	943.495911	2658.328369	1308.619629	21.292091
333.133240	936.882996	2701.795654	1322.514160	21.849873
333.500916	939.186340	2737.386719	1337.003296	22.123060
333.868561	947.656921	2759.008789	1359.814087	22.754120
334.236176	951.892151	2761.535156	1383.219360	23.834932
334.603790	943.421692	2767.850830	1393.250122	24.655846
334.971344	937.923279	2775.949951	1413.832153	25.892382
335.338867	937.700378	2785.311768	1424.754761	26.361301
335.706360	949.514465	2788.878174	1454.624390	27.461123
336.073853	957.539124	2792.444580	1468.741821	27.859892
336.441284	959.025208	2797.274414	1494.747925	29.143095
336.808655	954.195496	2797.943115	1510.351440	30.164431
337.176086	950.406067	2765.250000	1524.171753	31.615152
337.543396	946.393738	2725.498291	1529.447266	32.772305
337.910706	944.907715	2670.217041	1542.524536	34.638241
338.277954	945.130615	2679.356201	1562.809204	35.616970
338.645264	942.827209	2740.804688	1601.743774	36.647652
339.012421	943.793213	2856.791016	1636.145996	36.192032
339.379669	941.266907	2965.124268	1681.842163	36.592266
339.746796	948.994385	3041.878906	1723.228638	36.993645
340.113953	955.681641	3098.572021	1759.711304	37.520802
340.481018	954.269836	3119.079346	1786.534546	38.445171
340.848114	954.344177	3121.011475	1811.203125	39.547325
341.215118	947.285400	3117.147705	1840.924194	41.184124
341.582153	950.554688	3129.705078	1870.868164	42.232674
341.949066	953.452454	3151.326904	1906.756470	43.373905
342.316010	952.783752	3168.342041	1952.452515	45.120399
342.682922	946.170837	3174.434814	1988.043579	46.757156
343.049835	938.443359	3194.348389	2027.275391	48.265862
343.416656	942.975830	3227.412842	2061.529053	48.964066
343.783478	951.149170	3273.703857	2131.447998	50.818989
344.150269	946.245178	3347.486328	2217.787842	52.953560
344.516998	947.879883	3430.259033	2302.269775	54.560154
344.883728	944.239014	3518.233643	2385.414307	55.989834
345.250427	956.201660	3579.979492	2439.581055	56.536015
345.617065	949.885986	3607.100342	2488.843994	57.916218
345.983704	951.966492	3631.619873	2517.747803	58.432232
346.350281	944.907715	3630.579346	2528.595947	58.968052
346.716827	950.108887	3612.672607	2539.666992	59.700283
347.083405	950.331848	3569.428467	2536.174805	60.549236
347.449860	961.031311	3534.357422	2556.756592	62.010223
347.816376	968.164368	3512.141357	2561.437500	62.629227
348.182770	961.923035	3484.128906	2567.901855	63.673580
348.549194	959.322449	3458.494385	2583.802734	65.000740
348.915558	950.777527	3444.525635	2624.298096	67.108643
349.281921	958.133606	3457.305908	2675.269531	68.708183
349.648193	953.526855	3492.227783	2723.269287	69.710548
350.014526	947.805603	3540.970703	2769.410889	70.246407
350.380737	946.839600	3586.518311	2830.859375	71.373070
350.746948	942.827209	3636.300781	2896.245850	72.524147
351.113159	950.628967	3664.684326	2949.818115	73.660591
351.479309	952.040771	3710.306396	2988.455322	73.829529
351.845428	950.108887	3742.553711	3026.275391	74.349419
352.211517	954.344177	3781.414063	3088.318359	75.483604
352.577576	946.839600	3805.859619	3156.082764	77.272743
352.943604	952.189392	3835.506592	3232.093994	79.072281
353.309601	944.238953	3893.759766	3306.916992	80.103790
353.675537	941.564026	3969.622803	3400.538330	81.206291
354.041473	937.477356	4057.745850	3513.626953	82.561790
354.407379	931.310303	4133.534668	3611.707031	83.704216
354.773254	932.276184	4219.130859	3703.470703	84.311440
355.139038	924.177246	4282.140137	3789.215820	85.320732
355.504913	930.641541	4361.421387	3895.840576	86.429298
355.870636	927.595032	4415.885254	4020.966064	88.678719
356.236389	929.081238	4489.593262	4119.640137	89.609550
356.602081	926.034729	4584.774902	4252.938965	90.930321
356.967804	935.768494	4699.572754	4381.631836	91.552673
357.333405	946.393738	4820.388672	4564.267578	93.388710
357.699036	945.576355	4950.641113	4717.851563	94.187622
358.064606	946.542419	5091.371094	4861.255371	94.448128
358.430176	943.793152	5201.190430	4955.396973	94.226669
358.795654	955.012878	5261.301270	5008.375000	94.126579
359.161163	958.133545	5258.329590	5038.690430	94.892342
359.526581	961.774414	5234.105957	5068.262695	96.118202
359.892029	954.864258	5239.010254	5154.602539	98.029762
360.257416	952.783875	5312.867676	5283.369141	99.323441
360.622772	943.793152	5459.615234	5479.528809	100.440971
360.988098	943.941833	5642.623535	5729.779785	101.854912
361.353394	940.003723	5837.742188	5997.121582	103.254143
361.718658	950.034668	6058.570313	6249.378906	103.735092
362.083893	952.337891	6243.212402	6458.169922	104.062798
362.449097	958.505066	6395.830078	6571.853027	103.237305
362.814209	951.074768	6419.011719	6548.595703	102.369888
363.179382	952.486572	6309.415527	6334.604004	100.470207
363.544434	952.635071	6061.912598	6030.111816	99.377586
363.909546	956.201660	5772.058594	5707.563965	98.660789
364.274536	951.372070	5514.451172	5469.571777	99.016464
364.639587	949.514465	5350.687500	5308.632324	99.044456
365.004517	953.229553	5254.688477	5209.810059	98.956673
365.369507	959.173828	5193.239746	5129.117188	98.485558
365.734344	948.771484	5130.825684	5092.263184	99.077904
366.099274	946.765320	5087.804688	5081.860840	99.856468
366.464081	938.740540	5070.492188	5090.999512	100.496338
366.828918	939.037781	5086.020996	5095.978027	100.240105
367.193665	936.957275	5094.194336	5097.390137	100.076859
367.558411	944.461914	5116.856934	5116.411133	99.989319
367.923126	939.186340	5109.946777	5116.262207	100.151421
368.287781	934.059570	5110.466797	5084.906738	99.387993
368.652435	934.802551	5068.411621	5038.764648	99.282784
369.017059	951.149109	5059.346191	5022.417969	99.101105
369.381653	963.260498	5061.798340	5023.310059	99.060921
369.746185	962.443115	5071.978027	5030.368652	98.987488
370.110687	952.486572	5070.046387	5044.114258	99.370209
370.475220	948.399902	5083.271973	5102.813965	100.472610
370.839661	946.913879	5150.144531	5163.815918	100.325256
371.204041	948.622864	5206.391113	5228.533691	100.520050
371.568451	947.508362	5248.298340	5261.523926	100.307518
371.932770	949.514465	5290.651367	5291.617188	100.022247
372.297150	955.756042	5339.096191	5299.196289	99.089737
372.661377	959.545410	5383.975098	5327.356934	98.720329
373.025696	955.235840	5397.869629	5346.972168	98.854340
373.389862	950.406067	5389.250977	5358.712402	99.312012
373.754059	949.217285	5388.062012	5348.606934	99.111137
374.118225	953.006653	5400.841309	5361.609863	99.117966
374.482361	955.161438	5432.494141	5386.873047	98.981064
374.846436	951.669250	5499.367188	5456.123535	99.049110
375.210510	946.690979	5579.094238	5552.419434	99.424171
375.574524	949.663086	5670.337891	5667.514160	99.940186
375.938538	944.981995	5769.755371	5800.664551	100.640633
376.302460	947.582520	5873.332520	5936.341309	101.279175
376.666412	943.941711	6041.628906	6092.674316	101.001343
377.030304	954.121277	6178.048340	6215.942871	100.725403
377.394196	951.669250	6318.777832	6325.910645	100.132896
377.757996	952.040771	6432.238281	6402.293457	99.453590
378.121796	944.016052	6495.767090	6421.018066	98.653595
378.485565	941.712646	6507.506348	6367.371094	97.482193
378.849304	937.997498	6431.420410	6257.181152	96.828224
379.212982	940.895325	6341.514160	6117.789063	95.857414
379.576630	945.725037	6188.896484	5966.210938	95.752846
379.940277	947.954102	6082.718262	5865.457031	95.768814
380.303864	951.892273	6000.613281	5775.179199	95.534828
380.667450	953.229675	6006.334473	5754.002441	95.006393
381.030945	953.452576	5999.053223	5730.523438	94.677940
381.394501	946.839600	6022.904297	5776.145020	95.138779
381.757935	943.570251	6040.959473	5806.163574	95.393799
382.121399	939.334961	6043.857910	5843.908691	96.082901
382.484741	943.198730	6083.238281	5906.843262	96.568214
382.848145	945.947998	6108.724121	5986.718262	97.636818
383.211487	952.560852	6170.989746	6093.194824	98.509224
383.574768	946.542297	6239.050781	6191.349121	99.098694
383.938019	943.198730	6301.762207	6286.753418	99.719910
384.301270	943.941833	6397.092285	6392.708984	99.919617
384.664459	947.062500	6466.342285	6471.692871	100.096947
385.027649	945.427917	6535.369629	6528.683105	99.880386
385.390778	943.198730	6597.709473	6578.613770	99.662292
385.753876	953.080994	6623.195313	6634.787109	100.204437
386.116943	954.715637	6684.718750	6715.107910	100.530350
386.479980	955.755859	6687.839355	6769.869629	101.431076
386.842987	946.170837	6740.371094	6845.212402	101.809418
387.205994	954.715637	6789.039551	6918.846191	102.224876
387.568909	947.434021	6841.125488	7009.495605	102.856789
387.931793	947.136780	6881.397949	7079.191406	103.333076
388.294678	946.913879	6906.883301	7130.088379	103.745071
388.657471	955.384460	6945.744141	7135.958984	103.175346
389.020294	957.167664	6928.877441	7134.250000	103.439095
389.383057	949.737366	6937.125000	7157.580566	103.681999
389.745819	948.251282	6941.880371	7218.657715	104.617859
390.108521	945.799316	6984.604004	7290.805176	105.070557
390.471191	941.266907	7024.653809	7413.850098	106.397690
390.833801	939.186462	7132.467285	7600.722656	107.560699
391.196442	945.353516	7272.898926	7828.162598	108.775337
391.558960	947.434021	7422.693359	8036.804688	109.483963
391.921509	950.628967	7554.580078	8200.493164	109.780708
392.284027	952.189270	7704.894531	8345.606445	109.488228
392.646484	959.471008	7816.720215	8406.535156	108.601334
393.008911	953.526855	7850.306152	8396.653320	107.921776
393.371307	952.783875	7819.767090	8341.372070	107.595840
393.733673	953.898376	7763.593750	8281.632813	107.607376
394.096008	964.597900	7730.975098	8270.709961	107.976723
394.458344	954.789978	7739.892090	8288.171875	108.080643
394.820587	943.273010	7779.792480	8326.437500	107.995956
395.182831	937.105957	7847.704590	8331.415039	106.999542
395.545013	937.105957	7832.844238	8255.998047	106.136452
395.907196	936.734375	7763.297363	8142.463379	105.554276
396.269287	933.762390	7642.703613	8000.099609	105.327156
396.631409	942.530029	7538.902344	7888.125000	105.294159
396.993469	946.913879	7441.565918	7776.002441	105.149414
397.355530	948.920105	7355.968750	7727.779785	105.803154
397.717499	945.947937	7345.566895	7720.795410	105.863297
398.079468	947.731201	7328.402344	7741.525879	106.474617
398.441376	947.062439	7329.740234	7741.972168	106.458603
398.803284	944.164612	7314.433594	7754.900391	106.914413
399.165131	943.198792	7358.271973	7793.240723	106.780418
399.526978	943.793213	7392.525879	7811.593750	106.498459
399.888763	944.016113	7431.757813	7841.611816	106.317360
400.250519	943.273010	7435.770996	7862.268066	106.569077
400.612244	942.901550	7463.634277	7902.911621	106.736626
400.973938	948.177063	7456.872559	7897.412598	106.768486
401.335602	944.164734	7489.787598	7914.949219	106.495361
401.697205	949.588806	7527.459473	7963.617188	106.630684
402.058807	943.867493	7578.876953	8064.520020	107.319405
402.420349	946.616699	7651.991699	8202.648438	108.212166
402.781860	949.960266	7717.675781	8335.577148	109.130135
403.143341	951.223450	7818.429688	8480.243164	109.637306
403.504822	953.749756	7945.264160	8607.969727	109.478706
403.866241	945.873718	8114.302246	8798.854492	109.549545
404.227631	939.186462	8274.796875	8962.989258	109.381531
404.588959	942.307129	8437.965820	9170.887695	109.777946
404.950287	938.220398	8552.466797	9285.165039	109.622719
405.311554	946.765320	8614.434570	9359.914063	109.722366
405.672821	942.009949	8642.819336	9350.700195	109.192291
406.034027	944.684753	8643.487305	9281.004883	108.280739
406.395203	943.272949	8616.960938	9182.181641	107.365692
406.756348	947.285339	8549.567383	9070.058594	106.846512
407.117493	945.725037	8518.659180	9021.540039	106.640503
407.478516	946.690918	8511.897461	8985.948242	106.266197
407.839600	943.941833	8520.961914	8967.818359	105.897522
408.200592	948.994385	8495.178711	8947.979492	106.000397
408.561554	951.297791	8477.569336	8956.896484	106.368721
408.922485	954.864258	8491.686523	8989.069336	106.599373
409.283417	953.006653	8536.491211	9042.121094	106.667511
409.644257	950.183289	8635.239258	9141.241211	106.584236
410.005096	947.359680	8742.085938	9272.979492	106.810936
410.365906	951.817871	8844.030273	9395.727539	106.990410
410.726715	950.628967	8932.672852	9484.444336	106.912659
411.087433	946.616699	8998.059570	9533.038086	106.644508
411.448120	940.746765	9077.712891	9589.806641	106.293419
411.808807	946.245117	9085.663086	9599.614258	106.314346
412.169434	947.805481	9037.069336	9530.661133	106.101814
412.530029	951.446350	8993.006836	9478.575195	106.038239
412.890564	942.232849	8954.370117	9436.148438	106.013115
413.251099	947.285461	8978.443359	9468.172852	106.097878
413.611572	946.616699	8986.989258	9501.980469	106.405060
413.972076	955.384460	9047.025391	9594.338867	106.763931
414.332489	949.663086	9100.002930	9698.660156	107.345184
414.692871	946.988220	9206.181641	9855.215820	107.858322
415.053223	950.851868	9312.954102	9989.925781	108.095711
415.413574	950.926208	9491.579102	10187.051758	108.143082
415.773834	949.663086	9645.087891	10340.040039	107.992157
416.134094	940.523865	9788.491211	10503.952148	108.086159
416.494263	940.746765	9908.788086	10643.493164	108.192482
416.854462	945.799316	10135.633789	10887.578125	108.182358
417.214630	948.845764	10373.032227	11170.968750	108.466904
417.574738	950.034485	10659.914063	11509.713867	108.751907
417.934784	947.136719	10893.077148	11818.218750	109.301704
418.294861	948.102722	11212.281250	12204.742188	109.669174
418.654846	948.845764	11562.915039	12610.731445	109.871956
419.014832	947.508301	11937.473633	13091.469727	110.500450
419.374756	945.056335	12356.765625	13607.502930	110.960121
419.734680	951.520691	12767.065430	14146.567383	111.675316
420.094543	954.567078	13224.622070	14669.437500	111.775131
420.454376	956.647522	13616.866211	15101.210938	111.724480
420.814148	953.452454	14035.338867	15541.305664	111.511848
421.173920	951.000488	14444.598633	15971.742188	111.317551
421.533691	947.656921	14868.418945	16411.539063	111.085030
421.893341	945.947937	15194.163086	16710.384766	110.641487
422.253021	946.022278	15399.238281	16861.812500	110.119370
422.612640	941.935608	15485.058594	16908.029297	109.784492
422.972260	944.090393	15473.690430	16845.615234	109.442276
423.331757	945.056335	15398.199219	16784.537109	109.591949
423.691315	947.656921	15374.496094	16768.859375	109.665062
424.050781	936.585754	15464.179688	16933.886719	110.116661
424.410248	933.687988	15586.481445	17045.564453	109.957718
424.769653	934.728271	15726.691406	17130.046875	109.487282
425.128998	934.059570	15811.916992	17080.560547	108.527061
425.488373	932.350586	15787.840820	16920.289063	107.623093
425.847656	925.811829	15621.403320	16668.701172	107.126610
426.206940	931.979004	15389.875977	16415.849609	107.096291
426.566193	939.483582	15095.637695	16105.709961	107.135216
426.925385	950.257507	14787.875000	15805.377930	107.353165
427.284576	954.418457	14389.390625	15358.965820	107.216797
427.643677	950.703308	14092.625000	15022.895508	107.078651
428.002777	947.656921	13811.539063	14661.116211	106.604362
428.361847	946.393738	13493.671875	14317.688477	106.567291
428.720856	953.081055	13221.796875	14037.270508	106.646774
429.079865	951.372070	13022.741211	13835.316406	106.731422
429.438812	948.325623	12915.668945	13719.254883	106.714821
429.797760	943.347351	12826.135742	13623.776367	106.712570
430.156616	946.765320	12676.786133	13482.452148	106.868408
430.515503	953.378235	12606.645508	13383.183594	106.663696
430.874268	948.622864	12566.448242	13346.627930	106.715370
431.233093	946.393738	12602.484375	13371.518555	106.597702
431.591827	945.576355	12668.984375	13415.950195	106.371574
431.950562	944.164612	12680.799805	13410.453125	106.216888
432.309204	942.009949	12741.281250	13466.997070	106.150513
432.667877	936.808655	12810.977539	13604.828125	106.685524
433.026459	942.009827	12943.608398	13746.895508	106.693169
433.385010	939.929382	13067.620117	13888.442383	106.768166
433.743561	944.387512	13212.213867	14012.824219	106.526100
434.102051	939.334961	13384.372070	14159.051758	106.224808
434.460510	944.759094	13551.702148	14278.308594	105.763542
434.818939	940.598145	13626.078125	14305.207031	105.353592
435.177338	941.564148	13665.383789	14298.073242	104.972481
435.535675	933.539368	13593.756836	14242.418945	105.123627
435.894012	937.254578	13530.674805	14184.092773	105.188568
436.252289	940.375244	13512.618164	14244.128906	105.818459
436.610535	949.960266	13513.807617	14249.405273	105.854874
436.968719	954.492737	13642.872070	14409.824219	106.044525
437.326935	957.019043	13723.936523	14494.008789	106.031776
437.685028	958.059326	13881.829102	14672.856445	106.120720
438.043152	948.251282	13963.859375	14791.592773	106.359543
438.401215	948.994324	14159.573242	15009.596680	106.434418
438.759277	944.164612	14377.726563	15220.393555	106.272850
439.117249	949.142883	14734.081055	15603.942383	106.310226
439.475250	944.907715	14993.100586	15928.497070	106.658485
439.833130	943.495911	15298.856445	16340.059570	107.253059
440.191071	935.991394	15519.385742	16629.097656	107.609421
440.548889	939.632141	15789.625000	16936.041016	107.719978
440.906708	946.096497	16079.332031	17233.697266	107.628014
441.264496	950.331848	16271.403320	17423.392578	107.518990
441.622223	944.313293	16439.550781	17506.017578	106.882553
441.979950	946.616699	16507.685547	17508.396484	106.430862
442.337616	955.384338	16551.748047	17464.927734	105.855080
442.695251	962.517395	16432.267578	17328.880859	105.795914
443.052887	957.910706	16267.168945	17085.390625	105.344620
443.410461	950.183289	16080.000977	16928.166016	105.605919
443.768005	940.300964	15958.518555	16833.283203	105.824692
444.125458	943.867432	15855.756836	16805.419922	106.368492
444.482941	942.752869	15877.303711	16872.291016	106.662315
444.840393	952.189270	15967.877930	17015.619141	106.977646
445.197754	949.514465	16204.977539	17342.181641	107.454414
445.555084	945.947937	16466.226563	17609.892578	107.368858
445.912415	939.260742	16826.373047	18037.357422	107.622437
446.269714	941.712708	17074.392578	18290.431641	107.537735
446.626953	943.793213	17416.185547	18621.154297	107.315079
446.984161	949.068665	17712.208984	18845.324219	106.759567
447.341309	944.684814	17997.232422	19064.070313	106.256180
447.698456	951.669250	18149.404297	19151.525391	105.827049
448.055542	951.966492	18241.912109	19144.021484	105.217537
448.412598	950.628967	18153.046875	19009.609375	104.979317
448.769653	951.669250	18037.582031	18793.908203	104.426605
449.126617	949.440186	17746.537109	18468.164063	104.296143
449.483582	957.985046	17557.658203	18215.460938	103.962746
449.840515	952.635193	17210.294922	17911.859375	104.315285
450.197388	955.384460	17009.898438	17715.107422	104.392593
450.554230	948.474182	16810.841797	17551.863281	104.671570
450.911041	949.663147	16721.826172	17439.666016	104.551300
451.267822	946.839600	16587.785156	17306.662109	104.596123
451.624573	938.369080	16393.259766	17126.404297	104.743767
451.981262	940.969543	16257.584961	17013.244141	104.933594
452.337921	942.084167	16155.120117	16892.501953	104.847038
452.694580	952.486572	16144.643555	16831.052734	104.518181
453.051147	948.845703	16145.164063	16801.033203	104.315971
453.407715	951.074890	16051.691406	16684.896484	104.193237
453.764221	950.034668	16058.082031	16599.599609	103.584297
454.120728	948.399963	15855.829102	16318.585938	103.104202
454.477142	940.523926	15787.397461	16214.042969	102.873642
454.833557	941.192566	15575.188477	16095.975586	103.558746
455.189911	945.576477	15425.765625	16020.113281	104.104561
455.546265	955.755859	15260.442383	15886.368164	104.375671
455.902557	953.303955	15189.036133	15770.530273	104.084747
456.258820	956.350281	15220.614258	15805.674805	104.101585
456.615051	948.548523	15312.081055	15927.160156	104.282227
456.971252	944.536194	15321.071289	15962.082031	104.458733
457.327393	936.214294	15494.198242	16204.234375	104.877296
457.683502	947.656921	15707.372070	16497.433594	105.352821
458.039612	947.805481	16110.390625	16998.085938	105.854515
458.395630	955.904480	16523.439453	17480.830078	106.149918
458.751648	948.028503	16916.873047	18007.933594	106.832428
459.107605	952.486572	17511.666016	18705.115234	107.207176
459.463562	940.523865	18073.244141	19375.548828	107.601273
459.819458	945.576416	18680.447266	19983.271484	107.346115
460.175323	941.935547	19184.369141	20432.355469	106.841118
460.531158	948.845703	19727.892578	20803.052734	105.725319
460.886932	939.409363	20034.318359	20888.351563	104.472572
461.242676	947.136780	20179.580078	20779.275391	103.118141
461.598419	940.895325	19945.525391	20342.525391	102.088966
461.954102	947.656921	19559.001953	19771.582031	101.142204
462.309723	941.266907	18958.265625	19107.240234	100.826859
462.665344	943.421631	18339.470703	18490.306641	100.867073
463.020905	944.536194	17866.384766	18059.201172	101.139450
463.376373	949.217224	17502.748047	17725.732422	101.347054
463.731873	955.310059	17252.867188	17488.927734	101.448441
464.087341	956.647522	16995.037109	17276.943359	101.757698
464.442749	954.492859	16850.150391	17162.292969	101.963699
464.798126	953.526855	16737.728516	17087.544922	102.216248
465.153503	952.635254	16815.226563	17172.173828	102.250244
465.508820	954.418457	16892.128906	17223.371094	102.078354
465.864105	949.365906	17031.818359	17363.876953	102.064735
466.219330	939.632141	17295.964844	17567.392578	101.659462
466.574524	937.551697	17458.835938	17740.814453	101.706757
466.929657	937.254456	17687.093750	17879.390625	101.148048
467.284790	940.375244	17880.429688	18009.642578	100.762764
467.639893	937.477356	18091.300781	18102.595703	100.065842
467.994934	941.192566	18293.701172	18202.904297	99.476753
468.349945	943.495911	18329.070313	18187.001953	99.182838
468.704926	951.223450	18290.208984	18107.052734	98.943672
469.059875	952.560852	18064.998047	17899.154297	99.030861
469.414764	953.155334	17806.126953	17673.943359	99.215668
469.769653	946.988220	17605.880859	17522.142578	99.497337
470.124451	950.257507	17494.279297	17432.533203	99.626778
470.479248	950.851868	17376.953125	17330.738281	99.718651
470.834015	951.000488	17306.812500	17295.593750	99.931412
471.188721	945.353516	17371.974609	17403.181641	100.189980
471.543365	934.505371	17460.693359	17532.248047	100.432976
471.898010	933.762268	17566.648438	17648.380859	100.491394
472.252625	936.585876	17694.003906	17804.121094	100.657127
472.607178	947.508301	17934.521484	18050.806641	100.684555
472.961700	953.898376	18177.863281	18299.423828	100.705765
473.316193	955.607239	18435.396484	18529.166016	100.536446
473.670654	953.898254	18619.962891	18675.544922	100.314629
474.025055	950.703308	18859.144531	18853.646484	99.969299
474.379456	954.269775	19022.017578	18972.306641	99.724861
474.733795	953.601074	19158.289063	19084.728516	99.595924
475.088104	957.687744	19194.250000	19252.501953	100.319427
475.442383	952.486511	19184.517578	19340.552734	100.855827
475.796570	959.248047	19229.617188	19500.673828	101.483589
476.150787	954.864258	19403.486328	19695.794922	101.584450
476.504944	953.303955	19657.453125	20011.431641	101.892517
476.859070	951.594971	19943.220703	20343.863281	102.109573
477.213135	954.121277	20230.103516	20635.796875	102.104660
477.567200	956.350281	20645.455078	21036.068359	101.983902
477.921173	952.486572	21045.279297	21427.343750	101.901497
478.275146	942.158508	21492.656250	21881.406250	101.891678
478.629089	933.316467	21749.224609	22203.955078	102.184532
478.983002	930.047180	22141.990234	22611.880859	102.215218
479.336823	928.263916	22489.724609	22984.656250	102.295448
479.690643	939.260742	22932.197266	23390.273438	102.082825
480.044403	939.557922	23420.515625	23869.228516	101.995972
480.398163	950.183105	24027.718750	24612.255859	102.532928
480.751862	942.529968	24813.841797	25640.306641	103.462166
481.105499	946.468018	25780.294922	26945.806641	104.693245
481.459137	946.245117	27024.123047	28604.392578	106.059807
481.812744	950.183289	28631.289063	30655.296875	107.311874
482.166290	951.074890	30475.853516	33209.378906	109.258408
482.519806	954.567078	32802.863281	36276.371094	110.906418
482.873291	955.830261	35543.300781	39800.921875	112.309723
483.226715	951.669250	38880.164063	43609.828125	112.469948
483.580139	944.016113	42332.191406	47112.234375	111.549294
483.933502	948.102722	45887.355469	50235.847656	109.676376
484.286804	950.257507	49061.792969	52460.324219	107.063858
484.640106	956.276062	51666.472656	53935.011719	104.473534
484.993347	950.777588	53177.718750	54447.175781	102.430656
485.346558	954.418396	53527.015625	54160.886719	101.205704
485.699738	954.492676	52732.488281	53035.500000	100.585213
486.052887	962.814636	51050.203125	51386.566406	100.671555
486.405975	963.854797	48983.625000	49592.683594	101.268349
486.759064	963.706299	46930.343750	48076.457031	102.493362
487.112061	952.263672	45391.312500	47076.347656	103.791801
487.464996	941.415527	44630.671875	46756.699219	104.866249
487.817963	941.415466	44683.203125	46844.824219	104.941772
488.170868	945.204895	45071.886719	46938.511719	104.230148
488.523743	950.034485	45374.886719	46795.406250	103.197578
488.876587	940.152344	45339.000000	46344.019531	102.263618
489.229401	938.889160	44931.230469	45612.207031	101.547943
489.582153	935.619934	44037.812500	44560.156250	101.211876
489.934845	937.254578	42837.972656	43414.261719	101.375366
490.287537	929.972839	41565.835938	42340.292969	101.905846
490.640198	935.248291	40603.988281	41693.187500	102.745735
490.992798	940.226563	39983.632813	41344.785156	103.486252
491.345337	954.344177	39919.953125	41469.386719	103.976410
491.697876	954.715637	40192.125000	41623.937500	103.649101
492.050354	957.242004	40799.769531	41944.035156	102.871971
492.402832	952.412292	41309.488281	41900.714844	101.464989
492.755219	953.675476	41423.621094	41434.765625	100.027534
493.107605	949.217224	40857.656250	40324.832031	98.664886
493.459930	948.548584	39687.910156	38723.160156	97.509636
493.812225	948.771423	37975.078125	36747.300781	96.684044
494.164490	953.601074	35979.683594	34647.210938	96.195770
494.516724	956.870422	33902.027344	32713.556641	96.392578
494.868896	959.396729	32045.054688	31108.099609	96.985893
495.221039	958.802429	30596.671875	29984.791016	97.935478
495.573120	956.870422	29523.587891	29181.281250	98.801727
495.925201	952.040833	28945.884766	28800.478516	99.480576
496.277222	950.777649	28695.187500	28605.880859	99.678108
496.629211	953.898254	28679.734375	28612.865234	99.758820
496.981140	960.214050	28727.585938	28604.763672	99.557671
497.333069	964.375000	28846.916016	28716.146484	99.530998
497.684967	956.424622	28975.982422	28773.134766	99.276047
498.036804	952.783752	29081.640625	28796.171875	98.985138
498.388580	945.502136	29005.109375	28604.095703	98.570854
498.740326	944.461914	28870.544922	28305.474609	97.976547
499.092072	944.164734	28612.568359	27946.740234	97.593544
499.443756	940.523865	28332.744141	27610.447266	97.363129
499.795410	945.799316	28000.240234	27239.599609	97.188484
500.147003	945.799316	27644.994141	26875.146484	97.116585
500.498566	953.452454	27297.406250	26475.916016	96.881676
500.850098	950.926208	26923.664063	26115.031250	96.886612
501.201599	949.440125	26620.062500	25787.798828	96.757912
501.553009	944.164612	26339.794922	25468.445313	96.568901
501.904449	944.833313	26141.181641	25239.148438	96.419983
502.255859	944.833435	25943.318359	25061.044922	96.470695
502.607178	948.474304	25851.255859	25044.994141	96.762360
502.958405	952.263672	25763.130859	25057.107422	97.154381
503.309692	957.167664	25737.794922	25065.505859	97.287041
503.660919	959.471008	25764.617188	25096.189453	97.305283
504.012115	955.904602	25842.337891	25145.304688	97.199142
504.363251	948.028503	25954.906250	25241.599609	97.147560
504.714294	945.353516	26047.638672	25299.257813	97.018677
505.065369	941.118347	26092.515625	25346.960938	97.035736
505.416443	944.164734	26100.833984	25329.351563	96.933289
505.767395	947.136902	26075.203125	25317.687500	96.985382
506.118317	949.440186	26057.593750	25258.615234	96.817856
506.469238	952.635193	26060.640625	25240.189453	96.732315
506.820160	957.390564	26068.515625	25200.806641	96.544525
507.170929	965.266663	26096.898438	25213.812500	96.486160
507.521729	961.551453	26122.087891	25316.646484	96.798790
507.872498	956.053040	26222.767578	25438.650391	96.896637
508.223236	942.455750	26382.146484	25715.353516	97.378929
508.573883	939.483582	26578.453125	25904.755859	97.372368
508.924500	938.369080	26749.130859	26138.583984	97.634529
509.275116	947.805481	26940.681641	26315.648438	97.595367
509.625702	946.022217	27187.958984	26595.693359	97.743057
509.976196	943.495911	27445.791016	26865.486328	97.810364
510.326660	933.539368	27674.718750	27084.679688	97.793518
510.677124	933.019226	27886.181641	27316.281250	97.885590
511.027557	936.139954	28084.943359	27505.603516	97.866058
511.377869	950.554688	28321.671875	27707.333984	97.755524
511.728180	950.926270	28489.966797	27799.990234	97.494553
512.078430	954.641357	28638.349609	27907.283203	97.359215
512.428650	944.981995	28742.000000	28023.271484	97.414368
512.778931	951.669250	28852.265625	28117.634766	97.366974
513.129028	942.530090	28886.224609	28167.937500	97.429520
513.479126	952.189392	28953.689453	28154.341797	97.145340
513.829285	945.204895	28896.998047	28077.882813	97.069542
514.179382	950.183167	28854.201172	27995.630859	96.923134
514.529297	943.793152	28750.919922	27876.896484	96.856834
514.879272	948.176941	28759.240234	27891.681641	96.880524
515.229187	951.074768	28657.593750	27830.677734	97.015450
515.579163	950.926270	28612.267578	27901.935547	97.432037
515.928955	956.721924	28603.873047	27971.259766	97.711830
516.278748	952.783875	28774.322266	28256.880859	98.140144
516.628540	954.195557	29044.859375	28605.654297	98.436470
516.978333	943.124451	29434.501953	29155.048828	99.019165
517.327942	944.461914	30004.478516	29732.156250	99.062904
517.677612	943.050110	30565.687500	30393.750000	99.419571
518.027222	946.839600	31223.265625	31014.103516	99.309158
518.376831	946.839600	31946.232422	31760.921875	99.402214
518.726379	945.353516	32654.187500	32369.087891	99.100883
519.075867	942.455750	33199.125000	32782.511719	98.708443
519.425293	939.780762	33600.957031	32972.203125	98.074921
519.774658	944.313293	33800.679688	33017.308594	97.615768
520.124084	946.839600	33851.949219	32927.996094	97.192070
520.473389	938.666321	33597.238281	32627.439453	97.030495
520.822693	929.750000	33241.105469	32180.656250	96.718033
521.171997	932.647766	32722.916016	31643.224609	96.603706
521.521240	942.678528	32236.603516	31133.208984	96.474091
521.870361	943.347351	31778.828125	30766.822266	96.718048
522.219482	945.427795	31468.318359	30507.212891	96.851196
522.568604	949.960266	31246.521484	30385.654297	97.158531
522.917664	955.458679	31108.990234	30331.041016	97.420036
523.266724	951.074890	31152.083984	30509.439453	97.872108
523.615662	944.461914	31325.876953	30911.865234	98.637283
523.964600	947.805481	31750.072266	31462.669922	99.066948
524.313538	952.189392	32254.439453	32138.007813	99.628044
524.662354	955.161560	32878.062500	32938.472656	100.189240
525.011169	951.297791	33664.183594	33929.375000	100.810661
525.359985	955.532959	34621.277344	35060.703125	101.305260
525.708740	954.567078	35818.000000	36377.199219	101.603973
526.057434	958.950867	37087.613281	37863.550781	102.147705
526.406067	950.108887	38487.324219	39529.492188	102.776360
526.754700	947.582520	39940.164063	41288.910156	103.458984
527.103333	942.827209	41657.003906	43301.988281	104.040321
527.451782	939.334961	43560.121094	45544.968750	104.656998
527.800293	946.839539	45647.359375	47834.234375	104.892281
528.148743	951.520691	47847.015625	49989.980469	104.569664
528.497131	960.511230	49981.878906	51837.886719	103.786118
528.845642	956.870361	51902.082031	53298.906250	102.741814
529.193909	955.384277	53440.371094	54322.421875	101.680580
529.542175	955.087158	54534.558594	54767.050781	100.433922
529.890503	957.762024	55058.464844	54637.390625	99.221687
530.238770	946.170837	54906.144531	53841.015625	98.026077
530.586914	948.994324	54069.644531	52526.230469	97.094513
530.934998	940.375244	52576.234375	50671.781250	96.311760
531.283142	950.777649	50671.855469	48682.402344	95.998772
531.631226	947.582581	48418.996094	46657.800781	96.289986
531.979248	952.337891	46309.765625	44976.777344	97.061142
532.327148	953.006653	44541.878906	43742.531250	98.166168
532.675110	946.245117	43502.386719	43132.503906	99.130836
533.023071	949.960266	43144.546875	43045.941406	99.766304
533.370850	944.981995	43242.769531	43159.996094	99.804306
533.718689	948.474304	43675.582031	43413.148438	99.385788
534.066467	948.177063	44087.890625	43569.406250	98.798126
534.414246	948.399963	44314.066406	43491.167969	98.102417
534.761963	955.161438	44296.683594	43134.292969	97.318069
535.109619	956.573242	43916.550781	42492.093750	96.684219
535.457153	968.461670	43193.656250	41661.906250	96.372429
535.804749	956.647522	42148.441406	40691.886719	96.463966
536.152344	950.703308	41133.984375	39760.054688	96.580841
536.499817	943.644531	40159.066406	38892.941406	96.771362
536.847229	946.839539	39373.535156	38163.738281	96.851677
537.194641	946.690979	38704.285156	37514.628906	96.849228
537.542114	948.177063	38279.351563	37075.871094	96.776207
537.889404	952.560852	37919.281250	36588.890625	96.401115
538.236694	951.966492	37522.281250	36143.964844	96.231049
538.583984	948.920105	37117.703125	35740.203125	96.191467
538.931213	947.136719	36748.937500	35511.871094	96.544678
539.278381	948.697083	36484.644531	35477.023438	97.164505
539.625488	954.046875	36365.832031	35685.222656	98.078018
539.972595	958.430847	36510.722656	36263.667969	99.305092
540.319641	954.195496	37004.535156	37201.214844	100.545570
540.666687	950.554688	37895.429688	38389.613281	101.337624
541.013611	945.725098	39217.050781	39865.785156	101.695091
541.360596	945.353516	40693.519531	41273.972656	101.460327
541.707458	942.381409	42364.214844	42582.667969	100.527390
542.054260	937.254578	43726.480469	43495.175781	99.459435
542.401062	941.935547	44901.425781	44158.183594	98.309258
542.747864	943.496033	45498.453125	44383.832031	97.498322
543.094666	948.474182	45549.792969	44013.957031	96.556526
543.441284	954.121277	44937.093750	43040.449219	95.687775
543.787903	958.282227	43882.449219	41643.628906	94.784241
544.134460	954.864319	42526.941406	40088.843750	94.135254
544.481079	946.245178	41031.968750	38518.980469	93.730965
544.827637	930.567322	39371.972656	36988.117188	93.798729
545.174072	931.756165	37749.199219	35527.625000	93.965973
545.520508	932.721985	36336.410156	34339.152344	94.358620
545.866943	940.226624	35239.328125	33368.238281	94.544785
546.213318	953.155273	34420.511719	32679.828125	94.798859
546.559631	949.663086	33790.128906	32103.310547	94.863602
546.905823	946.245117	33215.542969	31621.900391	95.061432
547.252136	941.043945	32778.718750	31198.744141	95.037399
547.598389	944.090332	32419.095703	30753.820313	94.709213
547.944458	951.892090	32148.335938	30292.476563	94.051056
548.290588	948.622803	31729.490234	29698.869141	93.402977
548.636658	950.480408	31149.185547	29047.460938	93.040352
548.982727	950.108887	30421.166016	28285.337891	92.752792
549.328735	950.926270	29727.851563	27550.556641	92.433884
549.674622	954.121277	28984.447266	26793.337891	92.183075
550.020569	956.276062	28310.599609	26111.462891	91.960548
550.366455	950.777649	27559.173828	25454.701172	92.090942
550.712280	947.731201	26934.734375	24917.193359	92.236343
551.058044	949.663086	26397.822266	24519.156250	92.617668
551.403748	954.715637	25999.634766	24216.447266	92.880043
551.749512	959.025146	25746.265625	24015.009766	93.015533
552.095154	957.836365	25609.322266	23929.787109	93.186882
552.440735	956.647522	25631.615234	23976.076172	93.290611
552.786316	955.978821	25666.240234	24027.718750	93.369064
553.131897	951.743469	25736.158203	24023.185547	93.088509
553.477417	949.885925	25774.275391	23986.775391	92.799423
553.822815	947.656921	25806.375000	23906.007813	92.355331
554.168213	949.440186	25761.275391	23796.781250	92.082428
554.513672	950.554749	25680.507813	23605.599609	91.609734
554.859009	948.697083	25507.603516	23403.349609	91.431808
555.204285	945.725037	25291.310547	23177.843750	91.318893
555.549500	945.204834	24993.654297	22931.974609	91.426971
555.894714	948.399902	24722.076172	22663.146484	91.339455
556.239990	947.210999	24428.134766	22406.654297	91.390968
556.585022	941.564026	24184.123047	22153.875000	91.264954
556.930115	937.403137	23892.708984	21938.025391	91.484833
557.275146	944.313293	23670.171875	21713.408203	91.389702
557.620178	949.811707	23514.287109	21538.576172	91.244156
557.965149	951.966492	23388.564453	21383.283203	91.062454
558.310059	948.845764	23224.281250	21272.273438	91.236946
558.654968	946.542419	23088.380859	21163.421875	91.306236
558.999756	951.000488	22981.755859	21059.767578	91.275887
559.344604	952.932434	22973.880859	20995.943359	91.017929
559.689331	949.440186	22845.115234	20922.158203	91.217644
560.033997	945.947937	22767.912109	20896.302734	91.423279
560.378723	937.774658	22696.880859	20871.857422	91.612602
560.723389	940.969727	22733.585938	20905.664063	91.612198
561.067932	935.545593	22804.396484	20988.660156	91.697159
561.412476	938.294861	22819.257813	20975.212891	91.572380
561.757019	940.375244	22821.783203	20995.273438	91.652687
562.101501	941.786926	22823.197266	20939.695313	91.392227
562.445862	943.421631	22813.091797	20980.783203	91.621689
562.790222	937.700378	22787.009766	20931.744141	91.508812
563.134644	937.031677	22736.039063	20931.076172	91.719978
563.478943	937.031677	22742.281250	20892.662109	91.517548
563.823181	936.214294	22748.298828	20882.556641	91.446289
564.167358	941.043945	22772.669922	20892.216797	91.386566
564.511536	939.483582	22787.974609	20997.056641	91.803009
564.855774	940.152344	22822.898438	21109.548828	92.170319
565.199768	936.957336	22920.904297	21268.634766	92.484200
565.543823	937.180176	23095.367188	21410.255859	92.395088
565.887817	940.152344	23317.458984	21629.373047	92.456261
566.231812	938.294739	23546.234375	21830.509766	92.410965
566.575745	938.889099	23741.726563	22031.351563	92.499290
566.919617	937.700378	23958.244141	22191.101563	92.323631
567.263428	947.136780	24106.255859	22266.521484	92.056114
567.607239	953.081055	24229.373047	22254.853516	91.517036
567.950989	962.443176	24229.593750	22221.046875	91.367455
568.294678	951.594971	24225.062500	22142.210938	91.050529
568.638367	949.143005	24105.734375	22047.328125	91.110924
568.981995	942.307129	23980.236328	21888.169922	90.919037
569.325623	950.183167	23763.943359	21751.376953	91.178276
569.669128	945.056335	23585.095703	21587.986328	91.178864
570.012573	949.440186	23441.318359	21506.253906	91.396606
570.356140	944.759094	23399.859375	21521.337891	91.634323
570.699524	947.805481	23370.507813	21570.748047	91.973495
571.042908	942.975769	23424.005859	21693.349609	92.301704
571.386230	948.325623	23544.228516	21792.246094	92.246460
571.729492	947.136780	23718.914063	22011.289063	92.501137
572.072815	949.960266	23831.187500	22150.978516	92.656822
572.416016	941.935547	23947.099609	22275.658203	92.734497
572.759094	940.672424	24061.228516	22344.240234	92.573761
573.102234	936.734436	24205.150391	22399.968750	92.241920
573.445374	939.037781	24295.802734	22375.447266	91.778160
573.788391	940.375183	24289.412109	22314.146484	91.540268
574.131409	936.660095	24264.521484	22255.968750	91.389900
574.474365	928.263916	24164.359375	22194.890625	91.524101
574.817261	933.910889	24048.593750	22027.562500	91.256508
575.160156	935.694153	23862.765625	21814.089844	91.064384
575.502930	949.811707	23641.787109	21562.724609	90.837898
575.845703	943.793152	23454.843750	21384.546875	90.803200
576.188477	954.121277	23252.515625	21159.333984	90.612862
576.531250	947.211121	23035.031250	20959.460938	90.603104
576.873901	943.793213	22822.750000	20692.341797	90.262749
577.216431	940.449524	22540.992188	20427.898438	90.217407
577.559082	943.273010	22290.296875	20125.337891	89.858261
577.901611	954.492737	21955.265625	19830.501953	89.882454
578.244080	952.189392	21652.185547	19481.279297	89.512527
578.586487	951.966492	21317.228516	19163.486328	89.424431
578.928955	954.195557	21005.156250	18819.914063	89.101563
579.271301	955.681641	20676.441406	18576.421875	89.351227
579.613647	957.762146	20351.812500	18258.035156	89.204025
579.955872	956.201721	20060.843750	18004.365234	89.235710
580.298157	954.121277	19811.408203	17719.562500	88.906967
580.640320	952.189392	19562.568359	17508.099609	88.960632
580.982483	941.192566	19365.146484	17337.796875	88.996124
581.324524	940.598145	19211.712891	17156.572266	88.751968
581.666626	937.328857	19106.128906	17030.035156	88.573296
582.008728	940.746765	19018.005859	16918.283203	88.384727
582.350647	940.746765	18926.537109	16818.125000	88.277344
582.692566	947.954102	18849.039063	16738.544922	88.210243
583.034424	947.433899	18751.482422	16634.001953	88.106750
583.376343	947.434021	18661.572266	16580.951172	88.254463
583.718201	947.062500	18603.021484	16524.181641	88.225845
584.059937	945.725037	18481.390625	16454.337891	88.440399
584.401611	944.907715	18379.744141	16367.328125	88.457497
584.743347	943.124512	18270.220703	16252.976563	88.357864
585.085022	942.084167	18195.029297	16156.011719	88.181625
585.426514	947.433899	18150.148438	16079.331055	87.962265
585.768127	947.731201	18082.013672	16037.499023	88.067688
586.109619	950.777649	18065.591797	15994.997070	87.901741
586.451172	948.028503	18004.144531	15964.163086	88.039597
586.792542	945.056335	17956.664063	15954.281250	88.229317
587.133850	946.170898	17883.103516	15949.227539	88.581894
587.475220	942.381409	17891.126953	15955.023438	88.576706
587.816589	944.164734	17869.802734	15940.535156	88.601501
588.157776	947.508301	17926.720703	15970.999023	88.481667
588.498962	955.830261	17911.267578	16011.567383	88.795921
588.840210	957.836426	17949.162109	16067.071289	88.923218
589.181335	952.932373	17969.890625	16119.010742	89.123314
589.522400	950.331848	18052.812500	16155.640625	88.907036
589.863403	949.068665	18114.185547	16225.559570	88.997299
590.204407	955.087219	18110.769531	16262.414063	89.225990
590.545410	952.858093	18122.435547	16317.917969	89.490021
590.886353	948.994324	18144.947266	16262.338867	89.052025
591.227112	941.564026	18158.320313	16213.299805	88.702744
591.567932	940.746765	18107.498047	16150.215820	88.598404
591.908752	940.821106	18018.335938	16073.090820	88.609314
592.249512	944.833435	18020.119141	16034.453125	88.371117
592.590149	949.811707	17921.371094	15929.463867	88.263268
592.930786	957.242004	17888.378906	15914.973633	88.344521
593.271423	961.180115	17790.597656	15852.262695	88.482460
593.612000	957.687805	17751.810547	15822.096680	88.509590
593.952576	951.966492	17734.126953	15823.582031	88.615623
594.292969	952.115051	17750.621094	15892.831055	88.940742
594.633484	949.960266	17833.914063	16010.081055	89.197838
594.973877	948.474182	17917.208984	16116.631836	89.388855
595.314209	937.848938	18010.162109	16252.828125	89.706535
595.654480	939.632141	18158.767578	16418.449219	89.893120
595.994812	940.523865	18318.220703	16609.257813	90.165771
596.335022	938.591980	18531.916016	16797.691406	90.142715
596.675171	935.545593	18716.855469	16941.837891	90.017502
597.015320	936.362976	18891.691406	17085.244141	89.939217
597.355408	953.303894	18983.529297	17161.701172	89.895706
597.695496	956.498840	19072.097656	17191.419922	89.618454
598.035461	951.669189	19074.994141	17109.613281	89.155525
598.375366	949.663086	19022.759766	16995.781250	88.784546
598.715271	948.622803	18924.310547	16850.890625	88.465424
599.055176	953.006653	18742.712891	16601.755859	87.965187
599.395081	947.211121	18524.486328	16342.066406	87.583855
599.734802	952.189392	18162.705078	16019.147461	87.545067
600.074524	950.406067	17821.728516	15765.403320	87.811714
600.414246	947.879822	17416.037109	15458.235352	88.111588
600.753906	945.204895	17094.900391	15169.273438	88.076385
601.093506	949.365906	16788.773438	14923.034180	88.220901
601.433044	942.752930	16608.738281	14765.065430	88.231361
601.772583	937.477356	16475.068359	14732.223633	88.783043
602.112122	935.842773	16447.501953	14771.159180	89.193016
602.451538	946.765320	16503.525391	14846.129883	89.346138
602.790894	945.650696	16638.087891	14989.906250	89.496971
603.130310	942.604309	16828.822266	15163.179688	89.515175
603.469604	942.381348	17032.859375	15420.860352	89.981651
603.808838	943.867432	17284.595703	15691.471680	90.250595
604.148010	954.864197	17546.363281	15984.374023	90.585602
604.487305	955.087158	17821.580078	16201.635742	90.395493
604.826416	957.613464	18046.943359	16380.704102	90.249825
605.165527	953.229492	18262.419922	16517.496094	89.919083
605.504456	948.622803	18460.882813	16600.492188	89.376640
605.843445	948.251282	18544.992188	16601.531250	88.955566
606.182434	940.820984	18545.513672	16509.470703	88.434654
606.521423	942.752930	18385.615234	16366.734375	88.425743
606.860229	936.734375	18197.404297	16140.631836	88.084053
607.199036	940.895325	17895.511719	15875.519531	88.085884
607.537903	937.254456	17598.302734	15603.942383	88.029800
607.876648	945.353516	17307.705078	15354.137695	88.060593
608.215271	944.981934	17017.253906	15138.659180	88.311584
608.553955	939.706543	16775.025391	14960.109375	88.538811
608.892578	935.545593	16554.421875	14812.989258	88.850464
609.231140	936.734375	16473.804688	14758.749023	88.961525
609.569641	941.192566	16426.919922	14737.125977	89.088058
609.908081	942.604309	16474.697266	14750.948242	88.902016
610.246521	945.947998	16495.576172	14727.171875	88.627350
610.584961	948.102722	16557.767578	14700.645508	88.102745
610.923340	954.715637	16542.757813	14645.958008	87.831703
611.261597	951.817810	16465.333984	14523.432617	87.482521
611.599854	946.913818	16349.867188	14349.862305	87.015442
611.938110	941.638367	16186.178711	14175.175781	86.808372
612.276245	940.895325	15975.828125	13960.960938	86.598763
612.614319	946.393799	15678.096680	13717.098633	86.688583
612.952393	948.251282	15374.497070	13422.118164	86.466476
613.290466	947.211121	15107.971680	13164.956055	86.278877
613.628479	948.845764	14852.519531	12904.079102	85.986145
613.966370	947.136719	14593.796875	12710.372070	86.198639
614.304260	947.285339	14358.480469	12523.797852	86.319771
614.642151	943.124329	14145.083008	12357.062500	86.456398
614.979980	941.861267	14020.700195	12217.002930	86.209038
615.317749	939.483582	13909.542969	12121.448242	86.213676
615.655396	946.690979	13849.878906	12048.038086	86.035690
615.993164	946.765320	13789.247070	11986.069336	85.959274
616.330811	951.817871	13757.223633	11915.406250	85.616867
616.668396	950.331848	13714.424805	11877.141602	85.605843
617.005859	940.598145	13664.938477	11856.559570	85.788033
617.343445	937.328857	13645.916992	11850.094727	85.869225
617.680908	936.882996	13673.632813	11867.778320	85.821701
618.018311	951.594971	13731.737305	11871.569336	85.444855
618.355652	948.622864	13752.840820	11880.335938	85.375877
618.692993	948.622864	13741.768555	11873.277344	85.394592
619.030273	940.375305	13736.492188	11846.378906	85.229012
619.367554	937.551758	13728.096680	11837.315430	85.217354
619.704712	935.991394	13723.266602	11839.023438	85.264702
620.041870	939.780823	13706.028320	11848.015625	85.445900
620.379028	953.378235	13683.069336	11827.210938	85.421028
620.716064	957.687805	13619.019531	11767.620117	85.377533
621.053040	961.625793	13535.875000	11695.621094	85.364899
621.389954	956.127441	13463.578125	11598.581055	85.088905
621.726929	948.697083	13411.640625	11513.801758	84.772148
622.063843	941.043945	13343.059570	11439.648438	84.652405
622.400635	933.390808	13257.539063	11435.784180	85.218002
622.737427	927.966614	13187.098633	11438.383789	85.735413
623.074219	927.372253	13156.858398	11429.170898	85.872772
623.410889	934.133728	13116.808594	11393.875977	85.857521
623.747559	936.214294	13112.573242	11382.953125	85.795258
624.084167	940.821045	13071.409180	11369.429688	85.969521
624.420715	946.022278	13074.231445	11357.022461	85.841202
624.757324	952.709473	13057.811523	11362.075195	85.991554
625.093750	955.087219	13109.450195	11425.901367	86.148605
625.430176	945.204895	13166.367188	11509.566406	86.443184
625.766602	952.115051	13220.979492	11595.088867	86.747833
626.102905	952.263672	13288.743164	11672.585938	86.899361
626.439209	958.059326	13351.528320	11746.963867	87.053146
626.775452	950.480469	13482.898438	11835.532227	86.855164
627.111694	951.000549	13563.664063	11903.667969	86.838654
627.447876	945.130615	13676.010742	11964.596680	86.556984
627.783997	944.833313	13727.799805	11985.846680	86.372856
628.120056	938.443359	13782.709961	11999.368164	86.115662
628.456055	939.409241	13767.921875	11955.828125	85.874481
628.792053	937.923157	13732.331055	11915.333008	85.798500
629.128052	941.118225	13662.041992	11823.791992	85.549400
629.463928	948.251282	13597.621094	11737.749023	85.296722
629.799744	956.276062	13477.473633	11608.536133	85.073814
630.135559	960.288391	13373.821289	11491.510742	84.836624
630.471375	959.025208	13196.980469	11378.421875	85.140015
630.807068	963.483398	13051.941406	11248.762695	85.083466
631.142700	963.854980	12927.039063	11137.606445	85.042175
631.478333	962.368896	12814.768555	10999.922852	84.687950
631.813965	954.492737	12736.972656	10885.942383	84.289978
632.149475	950.034485	12588.960938	10775.900391	84.422440
632.484924	947.656921	12496.975586	10704.867188	84.482994
632.820435	946.690918	12396.370117	10654.267578	84.784698
633.155884	946.393738	12327.118164	10590.515625	84.740845
633.491150	955.607239	12256.160156	10545.933594	84.865990
633.826477	955.532959	12204.221680	10497.786133	84.829918
634.161804	952.709534	12157.635742	10462.045898	84.867462
634.497009	946.690979	12105.696289	10409.959961	84.803879
634.832153	945.279236	12012.817383	10331.793945	84.811226
635.167297	958.430847	11948.398438	10281.936523	84.836517
635.502380	959.693909	11872.831055	10230.295898	84.949013
635.837463	958.802307	11815.321289	10178.135742	84.919792
636.172424	945.576355	11739.903320	10098.186523	84.790932
636.507324	943.050110	11657.578125	10020.019531	84.716469
636.842224	943.050110	11577.627930	9950.917969	84.703575
637.177124	949.885925	11461.268555	9853.729492	84.706680
637.511963	946.468018	11349.368164	9754.981445	84.673630
637.846741	947.508301	11214.362305	9659.799805	84.858437
638.181396	942.009949	11091.166992	9546.413086	84.779488
638.516113	950.331787	10994.351563	9459.256836	84.716331
638.850769	948.325623	10873.459961	9346.835938	84.618607
639.185303	945.502136	10778.278320	9283.381836	84.796799
639.519836	941.638428	10681.610352	9188.646484	84.671783
639.854370	942.752930	10618.006836	9098.665039	84.296623
640.188843	946.690918	10537.686523	9012.993164	84.102859
640.523254	942.604309	10471.036133	8932.450195	83.852684
640.857605	946.245117	10387.297852	8861.565430	83.839386
641.191895	950.108887	10299.843750	8799.671875	83.954933
641.526184	948.845703	10218.407227	8737.406250	84.022964
641.860413	950.406067	10164.687500	8715.784180	84.275459
642.194580	946.616699	10111.708008	8647.425781	84.023262
642.528748	947.954102	10060.959961	8599.203125	83.959663
642.862793	940.226624	10008.576172	8531.661133	83.713516
643.196838	941.192566	9970.831055	8491.018555	83.611610
643.530823	944.759094	9919.190430	8410.622070	83.190369
643.864746	943.793152	9851.278320	8355.638672	83.209183
644.198669	948.474182	9807.291016	8309.644531	83.094292
644.532532	950.851868	9773.409180	8305.038086	83.356621
644.866333	950.406067	9759.290039	8271.007813	83.104759
645.200073	953.378174	9736.331055	8255.032227	83.134384
645.533813	950.257507	9706.536133	8242.624023	83.281578
645.867554	953.749695	9677.707031	8254.661133	83.688072
646.201172	944.907715	9670.796875	8259.862305	83.830482
646.534729	942.901550	9695.391602	8262.314453	83.626633
646.868225	945.353516	9742.870117	8254.661133	83.083763
647.201782	949.514404	9749.780273	8256.072266	83.026558
647.535217	951.892090	9739.377930	8268.109375	83.257225
647.868591	953.378235	9724.740234	8269.744141	83.411964
648.201965	949.068665	9748.887695	8262.685547	83.110985
648.535278	939.409363	9760.777344	8246.859375	82.838058
648.868591	934.282410	9755.426758	8254.661133	82.986725
649.201782	938.443359	9705.198242	8226.649414	83.134590
649.534912	948.697205	9663.143555	8215.057617	83.382927
649.868103	952.263672	9604.295898	8158.513184	83.289673
650.201172	952.189270	9581.782227	8141.126465	83.305634
650.534180	952.189270	9571.454102	8118.984375	83.148567
650.867188	956.647461	9536.308594	8099.368652	83.251785
651.200134	962.220154	9506.215820	8079.529297	83.301880
651.533020	962.814636	9453.015625	8017.189453	83.088432
651.865845	967.421387	9424.409180	8008.941895	83.262741
652.198608	962.443176	9382.055664	7973.351074	83.268768
652.531433	954.269958	9328.410156	7973.127441	83.815857
652.864136	945.947998	9290.812500	7936.273438	83.767990
653.196777	1017.947266	9312.360352	7986.947754	84.020416
653.529358	1023.965759	9260.719727	7952.619629	84.118744
653.861938	1016.535461	9207.295898	7898.601563	84.022308
654.194519	936.883057	9059.209961	7763.296875	84.045052
654.526978	939.186462	9004.969727	7709.575684	83.939636
654.859375	939.632263	8926.133789	7659.272949	84.137474
655.191833	943.124451	8890.246094	7611.496094	83.909271
655.524170	940.746765	8861.045898	7576.796875	83.785347
655.856445	946.245117	8843.807617	7542.543457	83.523216
656.188660	953.303894	8822.483398	7524.859375	83.510048
656.520874	949.365906	8762.148438	7478.048828	83.564117
656.853088	951.743591	8755.684570	7484.365234	83.709267
657.185181	945.130615	8742.383789	7500.339844	84.070747
657.517212	943.050110	8774.928711	7531.843750	84.127884
657.849243	943.718750	8806.433594	7581.924316	84.426384
658.181274	944.610413	8839.793945	7652.511719	84.961945
658.513123	951.297668	8901.094727	7725.179688	85.208237
658.844971	942.529968	8974.431641	7812.856934	85.537987
659.176819	940.895325	9073.774414	7902.465332	85.597855
659.508667	944.907715	9156.993164	8003.220215	85.950302
659.840393	948.102722	9224.237305	8071.207520	86.068016
660.172058	950.777649	9304.855469	8115.714844	85.765739
660.503662	943.273010	9348.396484	8127.825684	85.478256
660.835266	949.885925	9395.727539	8120.470215	84.900764
661.166931	950.406067	9345.127930	8050.476563	84.577789
661.498413	950.851868	9319.938477	7978.478027	83.971237
661.829773	950.777649	9207.742188	7856.843750	83.639282
662.161194	953.749756	9100.002930	7737.587402	83.275558
662.492615	956.201721	8936.090820	7606.591797	83.339378
662.823975	952.263672	8771.807617	7481.986816	83.505165
663.155212	948.474304	8624.911133	7364.588379	83.581932
663.486450	944.981995	8474.597656	7225.345215	83.408813
663.817627	941.415466	8340.703125	7093.086426	83.138695
664.148743	941.192566	8202.722656	6981.632813	83.184128
664.479858	947.731262	8120.470215	6905.769531	83.065033
664.810913	946.690918	8048.470703	6835.181152	82.915695
665.141907	953.675354	8012.359375	6762.439453	82.292450
665.472778	953.229675	7932.410156	6715.257324	82.560234
665.803711	958.876648	7875.270996	6678.255371	82.693069
666.134583	955.532959	7811.371094	6647.642090	83.025726
666.465454	956.870361	7798.367676	6610.044922	82.630669
666.796143	958.059265	7743.606934	6573.859375	82.761192
667.126831	958.579407	7720.349609	6572.744141	83.028030
667.457458	958.356506	7696.275391	6563.011230	83.180801
667.788147	959.322449	7695.830078	6566.800293	83.240135
668.118774	959.842529	7683.718750	6542.279785	83.024101
668.449219	957.316223	7662.097168	6518.131348	82.938057
668.779663	951.520691	7665.737793	6494.503906	82.555916
669.110107	950.480469	7649.167969	6486.182129	82.638603
669.440552	949.440247	7620.264160	6468.943848	82.740959
669.770874	949.960266	7575.831543	6461.290527	83.178947
670.101135	947.285400	7552.871582	6423.173340	82.897835
670.431396	948.622864	7532.884277	6404.523438	82.862755
670.761597	951.669250	7509.850098	6370.566895	82.628059
671.091797	951.149109	7482.357910	6352.882813	82.706490
671.421875	957.316223	7440.377441	6333.043457	82.919579
671.751892	951.743591	7409.021484	6297.304199	82.783501
672.081909	948.994324	7368.303223	6273.898438	82.951363
672.411865	940.746765	7337.542480	6232.809082	82.729897
672.741821	943.050110	7292.367188	6199.224609	82.783302
673.071716	948.548584	7267.847168	6153.899902	82.372299
673.401550	953.378235	7224.230469	6110.581543	82.240868
673.731262	950.257507	7217.617676	6084.427246	81.919174
674.060974	952.263672	7177.494141	6051.287598	81.908997
674.390625	948.474304	7135.364746	6011.015625	81.826912
674.720276	950.703308	7074.584473	5967.994629	81.929924
675.049927	943.867432	7014.325684	5923.933105	82.037720
675.379395	946.096497	6985.050293	5907.066406	82.149490
675.708923	948.474182	6942.994629	5876.304688	82.205582
676.038330	947.285400	6909.707031	5851.933594	82.259331
676.367737	945.130615	6860.295410	5824.070313	82.481880
676.697083	951.297791	6811.330078	5792.565918	82.615044
677.026428	951.594910	6774.996094	5773.915527	82.809349
677.355652	948.845703	6762.811035	5757.717285	82.712425
677.684875	947.359619	6770.687012	5778.597168	82.963524
678.013977	943.793152	6776.853516	5785.358887	83.002151
678.343079	943.644531	6783.318359	5804.454590	83.237701
678.672180	944.016113	6787.851074	5800.813965	83.109772
679.001221	950.480469	6793.498047	5820.503906	83.347748
679.330139	953.452454	6811.627441	5847.104004	83.535431
679.659058	948.622864	6849.150391	5890.125488	83.746796
679.987976	946.096619	6897.447266	5923.561035	83.635880
680.316772	939.112122	6932.518066	5957.220703	83.727158
680.645630	939.186462	6972.418457	5986.347656	83.656013
680.974304	943.718811	7034.461426	6015.770996	83.274773
681.302979	943.050110	7084.170410	6018.148926	82.641251
681.631653	947.136902	7111.811035	6026.173340	82.389374
681.960266	944.982117	7099.699707	6018.595215	82.434540
682.288757	950.108887	7106.535156	6033.826660	82.575790
682.617249	946.542297	7099.773438	6029.220215	82.601768
682.945679	946.096497	7097.173340	6012.130371	82.360115
683.274109	943.347351	7089.593750	5964.650879	81.697075
683.602478	936.660156	7043.154785	5898.669922	81.257904
683.930725	933.613708	6979.849121	5838.261719	81.119041
684.259033	938.071838	6881.324219	5764.479004	81.208183
684.587280	948.994324	6821.361816	5696.343750	80.842171
684.915344	956.647522	6747.132813	5639.278809	80.867683
685.243469	960.214050	6683.380859	5560.443848	80.379097
685.571533	957.019043	6599.567871	5502.190918	80.551750
685.899536	949.811707	6538.861816	5441.336426	80.362938
686.227539	950.034485	6481.723145	5398.390137	80.415871
686.555420	943.421570	6466.045410	5358.340820	79.942421
686.883301	944.684753	6453.488281	5341.325195	79.811172
687.211121	944.238953	6445.314941	5357.820801	80.231247
687.538940	947.434021	6427.556641	5366.439453	80.636978
687.866638	944.684814	6436.695801	5351.876465	80.247322
688.194336	943.941833	6449.327637	5348.309570	80.001076
688.521973	943.124512	6455.717285	5337.535645	79.715866
688.849609	951.000549	6430.380371	5351.876465	80.317047
689.177063	942.604309	6409.724121	5333.969238	80.323189
689.504578	937.923279	6358.083496	5295.257813	80.391251
689.832031	930.790222	6296.338379	5224.744141	80.028244
690.159485	939.483582	6220.623535	5161.512695	79.945412
690.486816	950.406067	6162.519531	5099.767578	79.609962
690.814087	953.452576	6101.813965	5042.331543	79.420975
691.141296	953.452454	6014.805176	4980.957031	79.573685
691.468506	952.412292	5915.833496	4920.548828	79.947601
691.795715	951.594910	5825.630371	4856.277344	80.111893
692.122803	951.223450	5764.553223	4794.011719	79.836388
692.449829	952.709534	5703.699219	4750.990234	79.947144
692.776855	951.892273	5628.802734	4694.445801	80.021912
693.103821	947.285400	5573.669922	4647.858398	79.988441
693.430664	940.895447	5522.400879	4611.003906	80.107040
693.757568	941.043945	5477.225098	4588.564453	80.409500
694.084351	942.901550	5414.513672	4564.936035	81.000633
694.411133	945.650696	5364.135742	4519.462891	80.883209
694.737854	940.821106	5336.866699	4493.531738	80.816063
695.064575	941.638367	5308.706543	4469.457520	80.782318
695.391174	940.449524	5285.895020	4468.119629	81.180870
695.717773	952.115051	5267.170898	4441.816895	80.872696
696.044250	951.297791	5265.462402	4437.804199	80.815331
696.370789	950.777649	5273.264160	4446.200195	80.866020
696.697205	948.622864	5280.694336	4485.060547	81.633881
697.023621	950.331787	5312.644043	4541.605469	82.324997
697.349915	945.947937	5359.975098	4594.508789	82.658318
697.676208	941.118164	5439.255859	4659.003418	82.653877
698.002380	944.610413	5522.697754	4730.631348	82.698746
698.328674	948.325684	5634.003906	4821.651855	82.663086
698.654724	953.824036	5729.408203	4915.422363	82.955269
698.980896	950.703369	5843.017090	5006.888672	82.909348
699.306946	953.081055	5922.595215	5072.423828	82.892265
699.632935	949.588867	5982.781250	5128.002441	83.017166
699.958862	949.663086	6011.833496	5123.395996	82.449478
700.284729	948.102722	6007.300781	5120.869629	82.478821
700.610596	942.752930	5979.064941	5072.795410	82.005295
700.936340	939.483582	5903.648438	5003.693848	81.870972
701.262146	944.164612	5799.625000	4891.199707	81.290649
701.587830	952.932373	5669.595215	4784.946777	81.244186
701.913513	952.783752	5522.252441	4672.601074	81.405907
702.239075	954.864258	5372.532715	4554.459473	81.481789
702.564697	952.337952	5240.199219	4422.869629	80.938522
702.890137	954.864258	5114.181641	4305.842773	80.565590
703.215698	951.223389	5018.628418	4226.858887	80.533791
703.541016	946.616638	4912.895996	4161.918457	81.065941
703.866455	945.576355	4826.109863	4102.699219	81.357956
704.191711	938.146057	4755.448242	4043.108154	81.339172
704.517029	944.461914	4703.584473	3979.579346	80.740051
704.842163	944.164551	4664.056152	3940.496094	80.548897
705.167419	945.724915	4625.195801	3891.976563	80.072701
705.492493	941.118164	4579.796387	3862.924072	80.298553
705.817566	934.208008	4543.016602	3818.565674	79.925484
706.142578	936.214294	4512.552734	3793.302734	79.888649
706.467590	938.369141	4505.939941	3782.602783	79.724655
706.792480	943.570251	4490.336426	3792.188232	80.315926
707.117371	947.285339	4477.630859	3795.903320	80.689491
707.442200	951.297668	4467.079590	3800.733154	81.046989
707.766907	960.882751	4456.156738	3791.147705	80.974052
708.091675	959.173828	4443.228027	3785.128906	81.111115
708.416321	955.755859	4437.655762	3783.940186	81.225319
708.741028	944.090332	4458.535156	3790.404541	80.989014
709.065552	942.307129	4482.237793	3803.556396	80.827835
709.390137	944.387512	4499.327148	3792.336670	80.112450
709.714600	952.635071	4513.890137	3806.751221	80.143547
710.039063	951.223389	4549.109375	3816.930908	79.649757
710.363403	952.709473	4597.035156	3857.500000	79.707214
710.687744	953.080994	4651.499023	3878.378906	79.095924
711.012085	959.991211	4697.046387	3915.976318	79.099319
711.336304	953.824036	4768.748535	3943.765625	78.374855
711.660461	956.201843	4818.234375	3979.208008	78.275002
711.984619	957.390625	4860.512207	3999.121338	77.930717
712.308716	965.786804	4862.815918	4019.777344	78.367149
712.632751	956.350342	4861.552246	4018.068359	78.401016
712.956726	951.743469	4835.175293	4004.024658	78.597519
713.280701	948.028503	4793.788574	3970.291748	78.586891
713.604553	961.105652	4748.018066	3935.517822	78.544518
713.928467	961.923035	4684.266113	3892.719482	78.735260
714.252258	968.015808	4623.264160	3853.413086	78.938477
714.575989	956.944763	4568.279785	3822.280518	79.342842
714.899719	953.303894	4523.104004	3790.627686	79.481308
715.223267	939.037781	4477.853516	3759.123047	79.690086
715.546936	942.381348	4439.067383	3721.154297	79.468758
715.870422	948.994324	4406.076660	3696.486084	79.474297
716.193970	952.635193	4373.829590	3682.071045	79.780205
716.517395	948.177002	4326.572754	3668.845459	80.531372
716.840820	945.056335	4292.542480	3640.759033	80.529167
717.164124	954.864258	4261.261230	3598.257813	79.947861
717.487488	956.721863	4231.763184	3555.013672	79.336151
717.810730	950.108887	4191.193848	3532.277100	79.669868
718.133972	947.508301	4139.107910	3496.017578	79.850533
718.457092	949.291504	4088.507080	3469.194092	80.271729
718.780212	950.926270	4032.557373	3411.460938	79.845207
719.103210	947.879883	3981.139648	3369.033936	79.820198
719.426208	944.759216	3929.647705	3308.774658	79.199455
719.749207	951.966492	3888.707031	3276.007080	79.136734
720.072083	948.920105	3852.447266	3245.468750	79.095131
720.394958	952.635254	3808.014404	3233.357422	79.874580
720.717773	953.378235	3761.203857	3196.800049	79.898903
721.040527	952.858154	3726.058350	3158.162842	79.522018
721.363281	950.703308	3699.532471	3122.646240	79.013382
721.685913	951.446289	3678.430420	3102.435791	78.877960
722.008545	951.223389	3653.167969	3088.689697	79.108444
722.331055	952.783752	3626.938721	3061.792236	78.866356
722.653503	951.074890	3611.855225	3044.405273	78.673553
722.976013	954.195557	3585.700439	3038.089844	79.190208
723.298401	947.805481	3582.059570	3034.077393	79.197823
723.620789	943.644531	3566.604736	3017.136475	79.051598
723.943115	943.421631	3565.936279	3000.269531	78.430367
724.265381	949.960266	3545.800049	2978.052979	78.128578
724.587585	954.715637	3537.552734	2976.641357	78.283127
724.909790	953.303955	3523.806641	2981.545654	78.904480
725.231873	950.777649	3535.471924	2990.758789	78.925430
725.553894	946.096497	3538.593018	2995.142578	79.037567
725.875916	980.870178	3589.564453	3028.578857	78.495544
726.197937	986.145691	3588.524170	3031.773682	78.606087
726.519775	989.415039	3582.357178	3027.761719	78.611343
726.841675	956.944763	3556.722656	3002.127197	78.667580
727.163513	951.520691	3556.351318	3013.644287	79.165359
727.485291	957.910706	3586.072266	3035.340576	79.044983
727.806946	954.492859	3600.115479	3040.169922	78.835014
728.128662	954.567078	3623.149414	3051.092773	78.563278
728.450256	947.359680	3642.839844	3061.346436	78.427094
728.771790	949.960205	3658.591797	3068.925049	78.230087
729.093323	953.229675	3673.303467	3086.534912	78.428215
729.414795	947.582703	3670.851563	3080.962158	78.338921
729.736145	946.319519	3665.055908	3071.451416	78.166161
730.057495	949.811707	3660.375000	3054.807861	77.658989
730.378845	949.663086	3659.483154	3061.866943	77.946274
730.700134	952.709473	3651.755859	3070.040283	78.447365
731.021301	951.000549	3650.567139	3076.504639	78.735016
731.342468	958.207947	3643.805664	3080.367920	79.020027
731.663574	956.944763	3647.891846	3084.677734	79.070038
731.984680	958.207825	3657.403076	3086.683594	78.855942
732.305664	954.269836	3666.839111	3089.061279	78.699982
732.626648	951.520691	3675.904297	3100.875244	78.893242
732.947571	946.096497	3689.352783	3108.454346	78.824493
733.268433	951.520569	3695.966064	3114.101318	78.798462
733.589233	956.498840	3693.662354	3112.020752	78.750206
733.909973	960.362610	3668.473633	3091.216064	78.684128
734.230713	956.350281	3646.331299	3068.405029	78.515602
734.551331	944.461914	3612.078125	3020.182861	77.811829
734.871948	946.765320	3582.357178	2988.158203	77.454819
735.192505	937.997559	3535.769531	2940.084229	77.069374
735.513062	946.616699	3479.373291	2917.347656	77.809723
735.833435	942.530029	3427.138428	2886.140625	78.226036
736.153931	957.687744	3380.178955	2862.438232	78.627754
736.474304	954.269836	3350.161133	2832.345703	78.387360
736.794617	956.127441	3314.644531	2804.482178	78.369362
737.114807	957.093445	3294.731201	2785.163330	78.201591
737.434998	958.133606	3288.266846	2775.875244	78.010201
737.755188	954.418457	3274.892578	2782.636963	78.786423
738.075256	945.650696	3276.378174	2785.832031	78.953087
738.395325	949.068665	3284.700439	2789.027344	78.777771
738.715271	952.412292	3311.895264	2794.897217	78.088501
739.035278	950.777649	3328.836182	2815.256104	78.403389
739.355164	942.975891	3339.089844	2817.485107	78.231224
739.675049	941.861328	3352.389893	2812.209229	77.590782
739.994873	946.690979	3355.510986	2801.658203	77.007301
740.314636	957.910645	3358.185791	2796.903076	76.615898
740.634277	954.641357	3349.046875	2787.094971	76.530632
740.953979	953.601074	3326.309814	2762.723877	76.247154
741.273499	942.604309	3299.412354	2744.742432	76.465210
741.593140	942.975891	3254.458984	2722.971924	77.006668
741.912598	941.192627	3226.372803	2684.260010	76.277023
742.232117	949.217285	3196.354248	2648.891846	75.637337
742.551453	953.081055	3153.258789	2621.771484	75.843437
742.870850	958.653625	3100.875244	2607.208252	76.955376
743.190063	956.721741	3053.767578	2586.849365	77.734482
743.509338	953.006653	3029.544922	2565.673096	77.661293
743.828552	946.319397	3014.981689	2544.868164	77.274513
744.147705	942.158508	2987.415283	2526.292236	77.454025
744.466797	942.158508	2965.941650	2497.760254	76.866028
744.785828	944.981995	2942.313232	2482.453857	76.976311
745.104858	955.830261	2920.988281	2452.510010	76.160782
745.423706	953.080994	2902.338623	2449.909424	76.789665
745.742615	958.728027	2880.493408	2436.312012	76.886803
746.061401	957.464844	2863.626953	2434.083008	77.465508
746.380249	965.266663	2849.658203	2411.717773	76.759583
746.698975	956.350342	2840.295898	2410.083008	77.164261
747.017639	956.350342	2831.305420	2396.931396	76.832832
747.336304	947.805603	2824.617920	2396.931396	77.212074
747.654907	951.966492	2816.444580	2393.662109	77.324348
747.973389	943.941833	2816.890381	2401.389404	77.815674
748.291931	947.434082	2819.490967	2394.702393	77.308990
748.610352	943.124512	2822.760498	2382.962402	76.601952
748.928711	944.982117	2828.184326	2388.981201	76.677856
749.247070	946.022278	2818.079346	2385.191650	76.876366
749.565308	947.211121	2815.552734	2382.591064	76.826416
749.883545	948.845764	2811.094727	2361.414795	75.852859
750.201782	949.068665	2809.311523	2368.250732	76.290154
750.519836	950.183167	2800.543701	2367.284668	76.585159
750.837952	948.994324	2777.658447	2372.857422	77.863564
751.155884	942.529968	2766.958740	2361.414795	77.771454
751.473877	946.765198	2766.290039	2354.133057	77.348099
751.791809	947.062500	2760.643311	2335.706055	76.569160
752.109619	956.276062	2746.600342	2321.365479	76.248161
752.427490	951.892151	2720.222656	2306.876221	76.625046
752.745300	943.421631	2728.098633	2310.071533	76.576874
753.062988	939.037781	2723.046143	2305.984863	76.622238
753.380615	942.530029	2723.714844	2304.201416	76.447510
753.698303	949.663086	2701.646729	2295.731201	76.831093
754.015808	951.000488	2692.879150	2285.997314	76.641205
754.333374	950.851868	2692.879150	2278.270020	76.199623
754.650757	950.480408	2693.325195	2284.734619	76.556114
754.968262	949.811707	2695.554199	2279.904541	76.190666
755.285583	948.622864	2693.473389	2272.177002	75.854874
755.602905	951.149170	2704.916260	2260.511719	74.660004
755.920105	955.904480	2696.297119	2261.477539	75.016006
756.237305	948.548523	2694.068115	2266.827393	75.523575
756.554443	943.867371	2669.697021	2251.075195	75.743736
756.871582	936.585693	2671.108398	2242.158936	75.269882
757.188599	943.867432	2659.368652	2239.855469	75.545738
757.505615	946.690918	2666.650391	2255.756348	76.110245
757.822510	951.669250	2667.244873	2273.143066	77.028015
758.139465	948.622864	2671.851563	2276.709717	77.069679
758.456238	951.594910	2681.882568	2280.201904	76.785324
758.773010	940.077942	2702.910156	2294.393799	76.826134
759.089783	939.037781	2720.222900	2308.436768	76.881340
759.406433	935.991394	2745.857178	2312.003174	76.028389
759.723145	949.440125	2749.052002	2316.386963	75.957870
760.039673	953.824036	2767.553467	2325.080811	75.604263
760.356201	956.647522	2777.733154	2334.145508	75.641586
760.672668	952.560852	2784.197266	2332.139404	75.319458
760.989136	949.217285	2774.463623	2316.907471	74.931816
761.305481	943.347351	2767.999268	2319.508057	75.420448
761.621826	942.827148	2775.281006	2319.136475	75.107445
761.938049	947.136719	2798.537842	2335.260254	74.976921
762.254333	950.926270	2807.973877	2347.817383	75.221069
762.570496	946.096497	2843.639404	2369.513916	75.013718
762.886597	946.765320	2899.812256	2415.284424	75.191185
763.202637	954.715637	2989.346924	2484.534424	75.188995
763.518677	964.226379	3111.797852	2574.960938	75.002609
763.834656	955.978821	3263.004150	2666.204834	74.131218
764.150574	946.022217	3419.411377	2767.405029	73.639153
764.466370	942.084167	3539.707275	2835.243164	72.880432
764.782288	949.143005	3613.489990	2879.304688	72.444077
765.097961	957.687744	3626.418701	2880.865234	72.063370
765.413696	955.458679	3588.969971	2856.493896	72.186333
765.729309	953.749756	3496.834717	2802.475586	72.696190
766.044861	948.622803	3376.538330	2713.386475	72.686371
766.360474	948.697205	3231.499268	2619.765381	73.202499
766.675903	947.434021	3083.562744	2512.843750	73.282555
766.991394	943.867493	2955.464844	2420.485352	73.405243
767.306763	946.542419	2847.057373	2357.551025	74.243484
767.622131	947.805481	2755.516357	2303.681396	75.005135
767.937378	946.913879	2669.548096	2254.790283	75.923050
768.252625	943.124451	2609.214111	2201.069580	75.502846
768.567810	941.489746	2562.403564	2169.490967	75.759811
768.882996	943.421631	2511.580322	2140.661377	76.346848
769.197998	943.793152	2476.435303	2108.191162	75.973244
769.513062	941.266846	2432.894287	2076.984131	76.139473
769.828064	938.369080	2413.575195	2053.875977	75.617020
770.142944	943.347351	2379.247559	2036.711914	76.144882
770.457825	943.570313	2346.851318	2016.650269	76.469360
770.772705	953.824036	2321.217041	1998.074341	76.367966
771.087402	950.406189	2294.245361	1980.836060	76.678070
771.402100	956.721863	2274.554932	1961.071655	76.212219
771.716736	955.904480	2241.861572	1940.787109	76.587524
772.031372	952.189392	2217.936279	1925.332031	76.882881
772.345947	951.817871	2207.459717	1918.496460	76.986809
772.660461	952.263672	2199.657715	1911.734741	76.918045
772.974854	958.579407	2186.654541	1895.908325	76.325043
773.289246	954.567139	2171.794189	1888.700806	76.742760
773.603638	951.074890	2165.032471	1872.948730	75.939545
773.917908	950.108826	2153.441406	1867.821777	76.264282
774.232178	942.009827	2136.277588	1853.852905	76.351639
774.546265	935.545471	2112.798096	1845.605347	77.303696
774.860474	934.208069	2104.104492	1827.401367	76.348061
775.174561	933.093567	2096.525391	1815.661499	75.859009
775.488586	936.660095	2092.736084	1810.608765	75.596130
775.802551	936.660095	2083.448242	1809.196899	76.085266
776.116516	946.468079	2074.531982	1805.036011	76.109863
776.430359	943.198730	2058.259766	1796.713867	76.544250
776.744202	941.935547	2044.662231	1788.763550	76.794006
777.057922	942.158508	2030.619141	1788.689331	77.773209
777.371704	940.821045	2029.356079	1781.779175	77.255951
777.685303	943.347351	2013.158081	1783.116699	78.496994
777.998962	938.889160	2008.105469	1774.051758	78.109787
778.312500	936.511536	1994.507813	1766.250000	78.425461
778.626038	931.013000	1991.387207	1753.544312	77.569908
778.939453	936.214294	1989.603882	1751.092163	77.357689
779.252869	944.684753	1997.628540	1747.154297	76.211998
779.566223	953.006653	2004.315796	1743.736328	75.213814
779.879578	953.155273	2002.829712	1739.798218	74.941612
780.192749	952.486572	1994.359253	1748.788696	76.429886
780.505920	948.994324	1985.740112	1754.287231	77.675056
780.819031	951.520691	1975.486328	1751.017944	78.078522
781.132141	952.858093	1973.777344	1752.504028	78.326073
781.445190	958.505127	1974.817749	1745.519531	77.438217
781.758118	959.248230	1971.622681	1733.557007	76.484428
782.071045	957.762024	1958.322632	1714.312378	75.612648
782.383911	953.898254	1939.375366	1703.984375	76.114006
782.696838	955.161438	1917.084473	1701.606567	77.599258
783.009583	958.579407	1906.161987	1683.922729	76.546715
783.322266	960.659851	1889.518188	1666.684448	76.009933
783.634888	957.613464	1884.614258	1655.316040	75.264503
783.947510	962.145935	1873.394531	1644.319214	74.861382
784.260132	960.808411	1875.252319	1639.860962	74.258522
784.572571	957.985046	1872.428589	1627.601196	73.226624
784.885010	947.211121	1865.592773	1635.997437	75.000008
785.197449	945.650696	1856.602051	1634.882813	75.660690
785.509766	943.793152	1842.261597	1630.424438	76.422417
785.822083	944.536133	1831.041992	1621.508301	76.364098
786.134277	942.381409	1815.141235	1620.319336	77.677490
786.446533	937.180359	1817.073120	1621.359741	77.757133
786.758606	938.369141	1823.983276	1622.102661	77.204453
787.070740	946.245178	1831.933594	1609.619751	74.899315
787.382690	949.440186	1829.630249	1609.619751	75.004204
787.694641	955.012878	1838.472168	1620.839478	75.365852
788.006653	953.824036	1867.747437	1643.204712	75.430901
788.318481	954.715637	1900.960571	1654.424438	73.945847
788.630310	948.251282	1926.817993	1673.074341	74.069870
788.942017	946.691101	1942.272949	1689.941040	74.654831
789.253784	952.709534	1965.678345	1711.488892	74.906487
789.565430	952.263672	1968.799194	1711.340210	74.672897
789.877014	943.644531	1954.830078	1705.990601	75.391312
790.188538	943.347351	1936.477417	1682.807983	74.457581
790.500061	949.068665	1918.719116	1665.346802	73.869728
790.811462	953.824036	1904.155762	1648.926147	73.143105
791.122925	949.960266	1879.784546	1637.557617	73.949173
791.434204	944.313293	1849.394531	1616.455688	74.263214
791.745483	945.204895	1831.116211	1601.149414	74.041779
792.056702	949.365906	1806.076172	1597.211304	75.620125
792.367920	950.703308	1786.088867	1592.678833	76.847809
792.678955	948.474304	1774.348999	1582.796509	76.806107
792.990112	942.678650	1752.727051	1566.895874	77.059250
793.301086	940.152344	1746.485718	1562.289063	77.156265
793.612122	933.613770	1725.309204	1554.041382	78.366959
793.922974	942.232910	1728.430054	1538.512207	75.843483
794.233826	948.399963	1725.383423	1530.933228	74.973701
794.544556	962.145996	1730.584595	1532.716431	74.250618
794.855286	959.768250	1725.457642	1539.700806	75.739922
795.166016	958.728027	1722.188477	1540.666870	76.223839
795.476624	947.656921	1724.046021	1546.611328	77.146164
795.787292	946.542297	1736.528931	1563.626587	78.113258
796.097778	946.245117	1752.280884	1575.217773	78.032845
796.408264	944.238953	1758.596680	1572.839966	77.189789
796.718689	932.424805	1772.862915	1577.966919	76.810188
797.029053	934.951172	1790.249634	1572.097046	74.493980
797.339355	947.211121	1803.995728	1577.744019	73.592934
797.649658	955.235779	1797.605835	1567.564453	72.691170
797.959839	947.582520	1787.351929	1567.713013	73.845329
798.270020	936.511414	1779.624390	1560.951538	74.063637
798.580078	937.700256	1763.797852	1558.128052	75.103447
798.890137	937.254395	1746.559570	1549.806152	75.688599
799.200195	946.839539	1737.346313	1543.861938	75.524010
799.510071	943.124451	1719.736450	1531.527710	75.765411
799.820007	944.610535	1711.860474	1518.376099	74.782097
800.129883	941.861328	1691.427246	1507.750854	75.495628
800.439575	953.452454	1694.770874	1503.812866	74.240761
800.749329	957.018982	1687.191895	1510.797241	75.842072
801.058960	958.876526	1686.745972	1509.831177	75.694160
801.368591	950.628906	1679.538696	1498.760132	75.198776
801.678162	951.966492	1678.424194	1482.487793	73.028519
801.987671	953.378174	1672.628540	1480.258789	73.254135
802.297119	958.950928	1666.833008	1474.909058	72.887581
802.606506	960.288391	1659.105591	1474.686157	73.609772
802.915894	955.012878	1648.554565	1464.729492	73.494736
803.225159	950.406067	1641.867188	1468.667603	74.951653
803.534424	951.223450	1626.635132	1466.289917	76.259636
803.843628	948.325684	1622.622925	1455.515991	75.217613
804.152771	944.238953	1622.697266	1448.977173	74.394875
804.461792	945.204895	1629.607422	1445.262085	73.064781
804.770874	945.799316	1627.155273	1458.413696	75.234444
805.079773	956.424622	1621.656860	1456.704956	75.203865
805.388733	951.297791	1620.765259	1465.992676	76.881241
805.697571	955.533020	1624.926270	1476.023438	77.755554
806.006470	953.601074	1641.941406	1482.190430	76.791862
806.315125	952.486572	1651.823730	1481.967651	75.711845
806.623901	956.573242	1661.408813	1483.602417	74.773354
806.932495	953.081055	1660.071289	1486.425903	75.438789
807.241150	956.127441	1655.093140	1491.478516	76.591896
807.549622	950.777588	1657.990845	1480.184570	74.858185
807.858154	945.799316	1651.080688	1478.104004	75.474091
808.166565	932.201965	1645.805298	1457.373657	73.594345
808.474915	933.093567	1622.177124	1452.915527	75.436707
808.783264	930.790222	1602.189575	1443.553223	76.372284
809.091492	946.170898	1591.415649	1435.677124	75.863647
809.399719	945.279236	1589.929688	1417.175781	73.201927
809.707825	954.418457	1595.502319	1411.900391	71.360703
810.015930	951.000488	1587.106079	1420.370728	73.788101
810.323975	964.449280	1580.121582	1417.993164	73.666443
810.632080	969.353333	1581.087524	1415.615601	72.950356
810.939880	966.752686	1581.236206	1403.281250	71.039917
811.247864	950.554688	1570.685059	1398.971680	72.310120
811.555664	946.022156	1549.360229	1394.364868	74.310364
811.863464	947.211121	1547.057007	1389.015015	73.652901
812.171143	954.195557	1543.490234	1391.838501	74.265549
812.478882	948.028503	1539.032227	1388.866333	74.591377
812.786438	942.158508	1534.054077	1385.745728	74.943497
813.094055	932.870667	1539.255249	1380.173218	73.765488
813.401489	936.437195	1543.564575	1376.829468	72.537048
813.708984	942.381531	1535.763062	1372.371216	72.464287
814.016357	956.350342	1527.961304	1373.411499	72.962418
814.323730	957.539124	1524.394531	1378.018188	74.177483
814.630981	961.625793	1518.896118	1382.401978	75.506653
814.938232	953.824036	1520.679565	1382.996582	75.711098
815.245361	947.359680	1521.422485	1369.176270	73.479172
815.552490	949.588867	1525.954956	1365.609741	72.179970
815.859619	943.941895	1517.335815	1363.529297	73.176117
816.166565	950.108948	1522.016968	1363.083374	72.209938
816.473572	948.697205	1522.091187	1365.089478	72.618881
816.780457	956.053162	1536.877441	1362.786133	70.026855
817.087341	946.839600	1535.168457	1374.154663	72.632011
817.394043	943.867432	1540.964233	1378.389771	72.772514
817.700806	938.146179	1542.301758	1392.432983	75.193680
818.007507	941.192566	1549.211792	1386.934570	73.310509
818.314209	936.065674	1554.561523	1393.621704	73.978836
818.620667	935.025452	1556.939087	1397.708374	74.396652
818.927246	940.672546	1574.994751	1414.872437	74.756943
819.233704	950.703308	1596.691040	1424.234375	73.303413
819.540161	957.687744	1624.331665	1442.587280	72.737411
819.846497	955.458679	1645.285156	1458.042358	72.856537
820.152832	946.542297	1691.129883	1485.831543	72.427910
820.458984	939.557922	1753.024048	1517.856079	71.090622
820.765259	944.907715	1828.367065	1568.381836	70.571907
821.071350	947.359680	1928.378540	1635.625610	70.158279
821.377502	956.647461	2091.175781	1742.398804	69.257973
821.683472	955.681641	2376.423828	1932.390991	68.746414
821.989441	957.539124	2823.131836	2218.010742	67.564140
822.295349	957.316223	3414.135742	2612.112305	67.355217
822.601196	952.040833	4105.373535	3042.325195	66.288101
822.907043	950.554688	4775.510254	3461.094971	65.635803
823.212769	943.718811	5322.898438	3785.500732	64.893021
823.518494	941.489746	5620.777832	3964.124268	64.596031
823.824097	940.523743	5627.911621	3967.765381	64.582703
824.129700	941.118164	5397.869629	3828.001953	64.775520
824.435242	948.028503	5059.866699	3616.016357	64.885521
824.740723	948.325623	4707.523438	3398.235107	65.171074
825.046082	940.449524	4352.133789	3169.976807	65.349754
825.351501	942.084229	3957.437256	2930.647705	65.947952
825.656799	940.077942	3553.676025	2677.424072	66.473351
825.962036	949.737305	3184.688721	2448.869141	67.076706
826.267212	943.050110	2906.499268	2276.932617	67.935677
826.572449	939.334961	2734.563232	2164.512451	68.246338
826.877502	940.375244	2691.170166	2141.032715	68.577850
827.182495	942.975891	2752.841797	2173.577393	67.994072
827.487488	943.198792	2868.753906	2252.932617	68.018509
827.792419	941.935608	2982.065430	2310.666016	67.090363
828.097290	946.765198	3054.138672	2345.142578	66.356407
828.402100	949.217224	3059.934326	2346.108643	66.180893
828.706848	950.777588	2977.607178	2310.294678	67.076042
829.011597	948.920105	2840.444336	2228.041504	67.623840
829.316223	954.938477	2669.102295	2111.757568	67.485916
829.620789	950.629089	2527.109619	1993.839233	66.173370
829.925354	956.573242	2380.138916	1904.898804	66.616211
830.229797	958.356506	2235.248779	1824.354614	67.820763
830.534302	961.700195	2073.566162	1739.426758	69.947868
830.838562	955.830261	1922.434448	1641.718628	70.958557
831.142944	948.399902	1815.289917	1559.316895	70.472260
831.447144	950.406006	1722.188477	1495.342285	70.607498
831.751404	951.669189	1667.130249	1457.967896	70.765373
832.055542	958.282043	1620.468140	1430.104492	71.252243
832.359619	951.966492	1601.372192	1425.720703	72.951965
832.663635	949.142883	1604.938843	1429.658569	73.272133
832.967651	944.238953	1632.728027	1450.389038	73.516068
833.271545	943.941711	1695.291016	1485.980103	72.141998
833.575439	941.712708	1782.893921	1539.032227	71.009613
833.879211	945.725098	1898.211548	1613.632202	70.122475
834.183044	944.982117	2017.244507	1679.167114	68.470642
834.486694	940.375244	2121.714111	1752.206665	68.721298
834.790344	943.198730	2183.905518	1789.952515	68.247696
835.093933	947.879822	2208.722656	1801.618164	67.711723
835.397522	952.709473	2173.131592	1778.807251	67.689514
835.700928	944.313293	2118.890625	1746.559937	68.300873
836.004395	947.954102	2055.584717	1706.064819	68.444366
836.307739	951.520691	1999.486206	1662.523438	67.846001
836.611023	949.811707	1923.251587	1616.232788	68.460426
836.914307	946.096497	1838.397949	1561.620483	68.981621
837.217529	951.743591	1749.680298	1510.500000	70.025154
837.520691	954.790039	1669.433472	1449.646118	69.245171
837.823730	952.337952	1598.994507	1406.699097	70.263130
838.126831	950.554688	1540.592651	1358.030762	69.059296
838.429749	952.560852	1495.936523	1325.263306	68.590202
838.732727	955.235779	1455.367310	1300.891968	69.113060
839.035522	951.743591	1432.184937	1285.659790	69.501968
839.338379	949.960266	1415.243774	1283.207886	71.622490
839.641113	951.297668	1419.330688	1286.700195	71.662148
839.943848	947.731140	1426.983765	1294.427734	72.341095
840.246460	946.022278	1453.955688	1303.566895	70.392029
840.549072	950.777588	1488.952148	1321.845337	68.949326
840.851563	952.932373	1516.666992	1326.897949	66.337166
841.154053	955.755859	1524.766113	1331.653320	66.061630
841.456482	953.972656	1511.466187	1315.158081	64.787376
841.758850	951.892273	1500.320679	1315.455322	66.291801
842.061157	950.703369	1479.738770	1303.344116	66.657303
842.363403	949.365906	1442.884644	1299.034424	70.852127
842.665588	955.458679	1404.915894	1288.186401	74.028786
842.967712	960.214050	1386.786133	1272.582642	73.227623
843.269775	959.768250	1378.018188	1254.527100	70.474335
843.571777	950.034485	1358.105103	1228.892700	68.335777
843.873840	949.885986	1331.207520	1212.026001	68.745140
844.175659	951.743591	1305.052979	1194.862183	68.811813
844.477600	956.796143	1287.591797	1187.060303	69.609184
844.779297	950.851868	1264.186401	1183.345215	74.199722
845.081116	947.434021	1246.279541	1183.865234	79.114861
845.382751	943.495911	1243.827637	1182.453613	79.564590
845.684387	940.821045	1247.765747	1181.636108	78.455521
845.985962	935.916992	1244.942261	1175.171875	77.422432
846.287537	937.551758	1231.864746	1169.896362	78.944733
846.588989	945.056335	1218.267456	1161.054321	79.059006
846.890381	953.972656	1213.957886	1148.274292	74.735641
847.191711	961.774414	1211.951660	1143.667480	72.705681
847.493042	962.294617	1211.431519	1137.277466	70.235619
847.794250	959.545349	1213.363403	1143.073120	72.306824
848.095459	948.251282	1213.734863	1139.060791	71.872437
848.396606	942.455750	1207.344849	1136.608765	73.295959
848.697693	942.529968	1199.914551	1129.029907	72.459641
848.998657	952.114990	1186.985840	1127.543823	74.691612
849.299622	953.675354	1190.775391	1128.361206	73.676010
849.600464	947.359680	1185.351196	1128.583984	76.147377
849.901367	940.375244	1189.809570	1124.125854	73.666931
850.202087	938.666321	1182.973633	1120.633545	74.482925
850.502808	941.564148	1192.781616	1120.113403	71.073586
850.803467	947.062500	1193.970459	1120.633667	70.297920
851.104065	950.257507	1204.595825	1121.376587	67.280106
851.404663	951.074890	1197.314087	1121.153809	69.070610
851.705139	950.406067	1196.942505	1119.816284	68.716095
852.005615	951.892151	1191.815552	1119.593384	69.897820
852.306030	949.291504	1192.410034	1116.026978	68.581970
852.606384	948.251282	1191.815552	1108.745239	65.893883
852.906616	945.799316	1196.199463	1103.915527	63.145416
853.206909	942.678650	1200.434692	1104.955688	62.957607
853.506958	939.112122	1193.896118	1113.723511	68.533104
853.807129	937.403137	1192.855957	1120.484985	71.669533
854.107178	945.725098	1187.506226	1112.757446	69.084114
854.407166	937.923279	1193.524536	1106.070313	65.784904
854.707092	934.059509	1184.013794	1100.794800	66.706314
855.007019	923.879944	1183.345215	1107.704956	70.847633
855.306763	934.282410	1178.441162	1114.838013	73.950081
855.606567	940.746765	1176.434937	1114.466553	73.707466
855.906250	948.920105	1170.342163	1111.642944	73.489899
856.205933	942.752930	1165.140991	1098.417114	69.996643
856.505493	940.375244	1163.654907	1098.491333	70.815269
856.805054	939.334961	1165.809692	1103.098145	72.309692
857.104492	949.885986	1165.661133	1111.197144	74.758911
857.403931	955.087219	1165.438232	1110.008423	73.648895
857.703308	956.424622	1168.930298	1106.516113	70.629402
858.002563	950.034485	1170.787964	1107.036133	71.120804
858.301819	946.096497	1168.187378	1108.002197	72.900650
858.601013	952.412292	1162.540405	1105.178589	72.701500
858.900208	949.068665	1177.103638	1098.194214	65.395912
859.199219	947.136902	1186.540161	1094.404785	61.514568
859.498291	940.672546	1185.425659	1097.748413	64.177269
859.797302	950.554749	1170.119263	1102.949585	69.407768
860.096191	953.229675	1164.546509	1101.983643	70.393806
860.395020	950.108887	1170.713745	1100.794800	68.305801
860.693787	943.644531	1173.834473	1094.553345	65.558388
860.992554	945.204895	1173.017090	1098.194336	67.155952
861.291260	949.365784	1167.815796	1097.599731	67.857147
861.589844	946.765198	1165.661011	1100.794800	70.366631
861.888428	944.610535	1167.518677	1097.896973	68.766640
862.186890	938.517761	1166.404175	1104.732788	72.937668
862.485413	934.951172	1166.181274	1101.537720	72.043625
862.783813	940.895325	1166.032593	1101.835083	71.485168
863.082153	939.780823	1169.896362	1091.432739	65.902512
863.380371	949.588684	1171.456665	1097.376831	66.610847
863.678589	949.960205	1163.506348	1097.748413	69.206688
863.976746	952.486511	1157.784912	1097.822754	70.792679
864.274902	946.319397	1162.688843	1097.302612	69.780281
864.572937	945.204895	1162.837524	1095.742310	69.170425
864.870911	950.851868	1170.565063	1092.918579	64.660072
865.168884	955.681580	1169.004761	1086.082886	61.128521
865.466736	949.885925	1176.955078	1082.367798	58.344284
865.764587	948.771423	1173.462891	1085.934204	61.044945
866.062317	950.034485	1177.029419	1096.708130	64.615379
866.360107	949.217285	1182.750610	1104.361328	66.433365
866.657715	950.480469	1189.883789	1105.624512	64.804466
866.955322	955.755920	1184.162476	1103.543945	64.703934
867.252808	963.557800	1184.311157	1101.314819	62.403137
867.550293	956.127441	1178.886963	1100.051758	64.609726
867.847717	948.399963	1178.441040	1101.983765	66.763641
868.145081	948.920105	1171.679565	1102.281006	68.845963
868.442383	951.595032	1175.543213	1101.909424	67.120163
868.739624	952.560852	1170.936523	1088.832031	62.402180
869.036804	952.635193	1168.261597	1091.506958	64.403877
869.333984	957.613464	1168.558838	1095.816528	65.516045
869.631042	953.823975	1168.856079	1100.348999	68.140999
869.928101	952.338074	1177.326660	1095.667847	63.705353
870.224976	951.000549	1179.109863	1096.039429	63.583057
870.521851	962.814636	1186.614380	1104.881470	63.479443
870.818726	955.012878	1177.698120	1113.129028	71.004326
871.115479	947.285400	1169.673462	1105.921753	71.333122
871.412231	949.068665	1164.175049	1109.413940	74.542313
871.708862	958.802307	1169.524902	1105.104370	69.428749
872.005493	972.474060	1170.342285	1109.265381	69.132538
872.302063	950.629089	1176.955078	1100.126099	66.053841
872.598572	948.920105	1182.453491	1099.234497	64.365273
872.895020	939.334961	1191.072632	1104.212646	65.495834
873.191406	950.406067	1197.016724	1107.779297	63.814449
873.487671	941.712708	1203.778320	1109.191040	63.907024
873.783997	948.622864	1206.601929	1107.482056	61.578327
874.080200	950.851868	1207.122070	1098.268555	57.523930
874.376343	955.384460	1202.069458	1098.714355	58.102398
874.672424	951.223450	1204.075562	1104.064087	60.446651
874.968445	950.851868	1200.657593	1111.717285	64.396210
875.264465	949.811707	1194.044556	1114.317871	67.356277
875.560364	952.858093	1188.397583	1113.574829	68.233459
875.856201	949.217224	1186.614502	1116.101196	70.297340
876.152039	961.328552	1189.363770	1106.961914	63.864418
876.447754	961.031311	1186.614380	1108.002075	65.151505
876.743469	968.238770	1190.701172	1112.014526	64.629242
877.039063	957.539246	1193.747559	1117.438599	67.694214
877.334595	953.081055	1197.611328	1111.271484	64.691551
877.630127	950.331787	1207.493530	1110.231323	62.178585
877.925537	951.817871	1214.626587	1116.695679	62.736813
878.221008	947.879700	1227.332397	1115.135254	59.851116
878.516296	942.009827	1223.468506	1111.345825	60.163715
878.811646	944.238953	1232.236206	1117.215698	60.061943
879.106812	942.901550	1235.802856	1130.441528	64.028389
879.401978	946.022278	1244.867798	1139.135132	64.619621
879.697083	942.084167	1258.167969	1145.450806	64.339470
879.992126	942.158508	1285.362671	1161.351563	63.866665
880.287109	942.455627	1328.458374	1189.883789	64.100105
880.582031	938.517639	1385.597046	1230.675903	65.348183
880.876892	946.616699	1485.311401	1298.365723	65.296547
881.171753	944.907715	1678.647095	1418.438965	64.536713
881.466492	942.901550	1968.576172	1599.514648	64.017685
881.761230	939.260742	2350.120850	1808.973999	61.644188
882.055786	940.672424	2725.349609	2027.943970	60.922585
882.350403	946.690918	3058.151367	2214.146729	60.027447
882.644958	948.251282	3265.901611	2344.027832	60.223778
882.939453	953.452454	3332.848389	2380.882080	59.991261
883.233826	959.693909	3277.270264	2343.730713	59.719147
883.528137	955.161438	3162.026611	2278.121338	59.947475
883.822449	948.399902	3043.885498	2211.397705	60.272320
884.116577	939.632141	2907.391357	2152.772949	61.650879
884.410828	954.864258	2761.460938	2076.984131	62.112362
884.704956	956.127380	2578.378662	1969.393555	62.460499
884.999023	966.306885	2366.987549	1829.035767	61.593544
885.292969	957.316223	2120.079590	1678.349976	62.010357
885.586914	956.870422	1906.013306	1548.840210	62.368881
885.880798	948.399902	1732.367798	1444.519165	63.283108
886.174622	950.851868	1619.353516	1375.120483	63.465607
886.468384	955.755859	1539.329468	1321.102417	62.605053
886.762085	954.864258	1495.490845	1289.598022	61.915890
887.055664	949.663025	1458.339478	1262.626221	61.525002
887.349304	948.919983	1412.123169	1248.508667	64.677597
887.642822	950.926208	1373.560059	1231.196045	66.315048
887.936340	946.170837	1341.164063	1211.654419	67.212189
888.229736	934.133789	1323.331421	1187.283081	65.043892
888.523071	935.099670	1305.721680	1169.747681	63.311947
888.816284	942.975830	1295.616577	1166.552734	63.400757
889.109619	958.430847	1282.613647	1163.803589	63.350906
889.402710	959.842590	1268.273071	1149.983276	61.647827
889.695862	955.310059	1252.595337	1128.807007	58.360424
889.988892	950.406067	1241.152710	1115.506836	56.785099
890.281921	953.601196	1231.567627	1112.088867	57.016838
>>>>>End Processed Spectral Data<<<<<
