Jaz Data File
++++++++++++++++++++++++++++++++++++
Date: Fri Jun 04 16:36:33 2021
User: jaz
Dark Spectrum Present: Yes
Reference Spectrum Present: Yes
Processed Spectrum Present: Yes
Spectrometers: JAZA3586
Integration Time (usec): 40000 (JAZA3586)
Spectra Averaged: 10 (JAZA3586)
Boxcar Smoothing: 1 (JAZA3586)
Correct for Electrical Dark: No (JAZA3586)
Strobe/Lamp Enabled: Yes (JAZA3586)
Correct for Detector Non-linearity: No (JAZA3586)
Correct for Stray Light: No (JAZA3586)
Number of Pixels in Processed Spectrum: 2048
>>>>>Begin Processed Spectral Data<<<<<
W	D	R	S	P
191.335022	0.000000	0.000000	0.000000	0.000000
191.713211	235.539627	237.917343	235.242432	-12.499198
192.091385	476.280426	474.943024	476.280426	-0.000000
192.469528	722.668274	719.027527	722.148132	14.286673
192.847641	729.504150	732.847717	729.578430	2.221573
193.225739	737.825989	749.268555	735.448242	-20.779837
193.603790	744.141785	755.807312	739.757874	-37.580051
193.981842	754.246887	753.429626	745.999329	1009.171021
194.359863	759.968262	752.612305	756.921875	41.413872
194.737854	758.482239	759.225281	764.203552	769.985229
195.115829	763.088928	769.701965	764.054871	14.606638
195.493774	763.534851	771.782410	763.311829	-2.704103
195.871704	769.627625	772.451172	764.723633	-173.681931
196.249603	763.683411	763.757629	773.045471	12614.144531
196.627457	755.881592	764.500671	771.410828	180.172791
197.005310	756.401672	763.386169	768.438782	172.340393
197.383133	756.104492	766.283936	771.187927	148.175446
197.760910	762.717468	769.256042	766.432617	56.818947
198.138687	758.259277	768.958801	763.534729	49.305481
198.516449	763.609070	776.314758	757.293274	-49.708412
198.894180	757.962097	772.822571	757.367676	-4.000016
199.271866	760.191101	764.797913	758.184998	-43.546463
199.649536	755.212891	757.367676	751.794922	-158.622253
200.027191	756.401672	762.345886	748.971436	-124.999489
200.404816	749.565857	763.014648	747.188171	-17.679548
200.782410	748.302734	770.965027	760.116882	52.131302
201.159988	756.550293	771.633789	769.924805	88.669838
201.537537	759.448059	786.419983	768.736023	34.435673
201.915070	757.516296	790.209473	766.432617	27.272728
202.292557	752.389343	789.912292	765.615234	35.247471
202.670029	759.893982	793.181458	768.215820	24.999908
203.047485	755.361389	786.122803	764.426453	29.468943
203.424911	751.646301	790.432373	754.989929	8.620692
203.802292	742.507080	787.608887	750.457520	17.627762
204.179688	745.924988	791.101074	751.720703	12.829166
204.557037	746.890869	787.311707	757.813477	27.022219
204.934357	749.045715	786.122803	761.602844	33.867626
205.311661	749.120056	783.076355	756.401672	21.444080
205.688934	746.222229	785.008301	748.599915	6.130256
206.066177	740.203613	777.949524	743.844543	9.645893
206.443390	738.494690	772.971191	742.284180	10.991515
206.820587	739.534973	766.655457	740.649597	4.109897
207.197769	743.175781	775.125977	737.825989	-16.744162
207.574921	747.485352	779.955627	740.500977	-21.510057
207.952042	749.714539	777.355042	747.039551	-9.677783
208.329147	745.702087	779.584167	749.863037	12.280680
208.706223	752.983826	793.553040	759.968262	17.216099
209.083267	749.342957	799.200012	755.361511	12.071621
209.460297	759.225159	798.754211	762.791687	9.022550
209.837280	752.760803	787.460205	750.308899	-7.066128
210.214264	747.411133	791.175354	759.968262	28.692682
210.591217	738.271912	781.293152	749.640137	26.424681
210.968124	733.070618	783.596497	758.407898	50.147133
211.345016	739.832214	783.150696	750.680359	25.042763
211.721893	738.346130	781.887512	758.036377	45.221916
212.098724	740.129395	780.104309	749.937439	24.535498
212.475555	743.547302	774.605896	756.030212	40.191486
212.852356	740.055115	774.828796	750.160339	29.059978
213.229126	738.866272	775.794678	746.519531	20.724586
213.605865	737.454529	767.844238	737.231628	-0.733473
213.982590	742.061340	767.844238	736.860107	-20.173189
214.359283	746.890930	760.042480	737.825989	-68.926788
214.735931	741.169678	767.770020	738.569092	-9.776513
215.112579	745.479187	770.221985	743.250183	-9.008698
215.489197	737.083008	771.782410	744.959167	22.698257
215.865799	736.637207	775.646057	747.113831	26.857042
216.242355	728.092285	773.491272	743.621643	34.206398
216.618896	734.110840	778.915344	746.742371	28.192547
216.995407	735.968445	770.816406	743.250183	20.895737
217.371902	738.271790	773.342773	738.866211	1.694909
217.748367	735.522644	765.392334	731.361633	-13.930546
218.124802	740.426575	775.125977	732.847656	-21.841640
218.501236	746.147949	772.005310	735.299805	-41.953796
218.877609	748.079773	777.652344	728.835449	-65.074913
219.253983	741.095276	769.553284	729.206970	-41.774906
219.630295	736.934387	769.107422	729.652771	-22.632668
220.006592	736.934387	763.460449	739.312073	8.963583
220.382889	739.237793	764.797852	734.259521	-19.476761
220.759140	737.231628	767.992920	732.699036	-14.734729
221.135391	739.609314	776.389160	734.556641	-13.737614
221.511581	742.729980	777.949524	745.107666	6.751040
221.887772	746.147949	781.218811	745.702148	-1.271143
222.263931	749.194275	777.280762	742.061279	-25.396540
222.640060	748.154053	779.286926	733.219238	-47.971203
223.016159	747.633972	780.921631	743.472961	-12.500160
223.392212	738.866211	789.243469	753.875427	29.793634
223.768265	736.414246	790.135071	761.157043	46.058113
224.144302	738.049011	788.574707	749.342957	22.352875
224.520294	744.884766	777.652283	740.055176	-14.738955
224.896286	750.606140	781.293030	739.609314	-35.835583
225.272217	750.531738	777.875183	747.931152	-9.510820
225.648148	752.017822	774.382996	748.822815	-14.285636
226.024048	741.987000	776.314880	751.869202	28.787685
226.399902	738.420410	786.419983	745.776367	15.325047
226.775772	739.832214	798.828613	746.296570	10.957204
227.151581	749.194336	795.261963	744.736145	-9.677492
227.527374	748.154114	792.438477	749.417297	2.852437
227.903137	747.411072	788.574707	750.531799	7.581273
228.278870	742.061279	788.054688	751.274841	20.032352
228.654572	749.417236	785.454102	743.324402	-16.907227
229.030273	740.352356	787.980408	739.312073	-2.184182
229.405930	741.987000	786.048523	730.915833	-25.126610
229.781555	729.652649	782.184814	735.894226	11.881439
230.157181	729.652771	788.574768	737.900391	13.997522
230.532761	730.470032	785.602600	739.089172	15.633483
230.908325	736.934387	786.345642	736.265625	-1.353461
231.283859	737.305908	782.779114	738.569031	2.777729
231.659332	739.683594	790.357971	739.460693	-0.439868
232.034821	743.547363	794.964783	743.993164	0.867023
232.410263	747.931152	789.837891	743.844543	-9.751675
232.785690	743.695984	781.961853	746.742371	7.961107
233.161087	739.460693	775.423157	743.621582	11.570088
233.536469	736.562805	766.655518	746.370850	32.592758
233.911804	730.915833	767.547180	744.141785	36.105556
234.287140	736.562805	766.135437	744.141785	25.628357
234.662430	739.832214	780.995911	734.036621	-14.079380
235.037704	753.206726	784.933899	735.299744	-56.440525
235.412933	751.349121	791.546875	732.773438	-46.210751
235.788162	750.308899	786.642883	735.894226	-39.672699
236.163345	744.438965	786.865784	731.436035	-30.647902
236.538513	742.209961	784.636780	735.968445	-14.711251
236.913635	737.008728	790.580994	742.804260	10.818158
237.288742	735.522644	793.330139	752.983704	30.205528
237.663834	736.488586	791.621155	754.246887	32.210182
238.038879	739.237793	782.779114	754.321228	34.641659
238.413910	737.974609	784.190918	745.627747	16.559387
238.788910	742.878601	789.540710	748.154053	11.305643
239.163879	738.271790	791.175354	746.593750	15.730434
239.538834	739.312073	782.110413	748.005554	20.312660
239.913757	733.665039	779.955627	743.473083	21.187988
240.288651	734.556641	781.664612	742.135559	16.088400
240.663528	735.299744	789.615051	746.890930	21.340551
241.038361	735.002441	788.500488	750.160217	28.333326
241.413177	736.562805	784.933899	746.370850	20.276665
241.787979	730.915833	787.460266	747.856934	29.960688
242.162735	731.807556	795.187744	740.872498	14.302485
242.537476	737.677429	801.503479	742.730042	7.916223
242.912170	747.485352	795.336365	742.358582	-10.714026
243.286865	745.999329	787.608887	751.423401	13.035640
243.661514	738.346191	784.785339	756.104492	38.239937
244.036148	737.677429	786.791504	752.983704	31.164742
244.410751	740.203796	798.308411	747.188171	12.020345
244.785339	742.135559	805.070007	749.565857	11.806408
245.159882	738.271790	801.577698	750.085938	18.661999
245.534378	739.980774	800.686218	755.584290	25.703651
245.908890	746.668152	793.776062	750.457458	8.043886
246.283356	744.736267	794.073242	749.640137	9.939543
246.657791	742.581360	791.026794	742.952881	0.766885
247.032196	737.008728	799.943115	743.473083	10.271580
247.406586	736.637207	811.905823	741.987000	7.107601
247.780960	730.395813	814.506348	753.949707	28.003500
248.155289	731.733215	806.258789	751.869324	27.019058
248.529602	733.813660	798.308411	753.801086	30.990780
248.903870	740.278015	786.568604	748.228455	17.175066
249.278122	738.791992	788.946289	748.674255	19.703722
249.652344	736.340027	792.958679	744.959167	15.223146
250.026550	736.860046	800.686096	741.020996	6.519203
250.400711	735.225403	797.491028	747.188171	19.212477
250.774857	737.603210	794.147461	749.640137	21.287622
251.148987	740.278076	789.466492	747.856934	15.407809
251.523071	739.460693	794.296082	736.339905	-5.691195
251.897125	737.603027	798.531311	738.866211	2.073230
252.271164	731.733154	807.967773	737.677429	7.797343
252.645187	740.055115	813.837708	742.878601	3.826765
253.019165	733.070618	810.642761	737.157288	5.268219
253.393112	741.689758	814.506409	750.383118	11.938697
253.767044	735.894104	814.060608	748.376953	15.969563
254.140930	745.330627	812.500244	746.370850	1.548650
254.514801	735.745605	799.868835	735.819824	0.115744
254.888657	737.677429	787.088684	738.049011	0.752019
255.262466	742.284180	784.859680	746.668030	10.296650
255.636276	744.067566	790.358093	753.726868	20.866692
256.010010	745.702148	804.921387	753.801086	13.676194
256.383759	740.129395	811.608643	746.445129	8.835760
256.757446	741.318176	819.038879	737.603088	-4.780049
257.131134	739.534973	811.608643	738.643372	-1.237070
257.504791	738.791931	810.419739	744.959045	8.609944
257.878418	735.968445	807.001892	749.194336	18.619244
258.252014	736.860046	812.500244	753.726807	22.298674
258.625580	739.906433	824.908875	760.191162	23.863701
258.999115	740.946716	831.521729	754.172668	14.602208
259.372650	738.643311	845.564941	745.330566	6.254353
259.746124	738.271790	855.224304	727.200684	-9.466326
260.119598	736.637207	866.815613	733.144958	-2.682663
260.493042	740.426575	865.255188	737.974609	-1.964265
260.866425	737.528809	863.100403	748.748535	8.934924
261.239838	736.860107	855.298645	750.531799	11.543280
261.613159	735.076843	852.549500	748.005554	11.005719
261.986511	737.825989	845.490723	750.160339	11.456259
262.359802	738.569031	840.883972	750.977539	12.127758
262.733063	743.250061	833.007874	752.612244	10.430493
263.106293	739.832214	827.137878	745.850769	6.893659
263.479523	743.027283	830.555847	741.169678	-2.122284
263.852692	730.915833	832.339050	736.117004	5.128187
264.225861	734.779602	835.162598	742.209961	7.402009
264.598969	737.305847	835.459778	744.141785	6.964507
264.972076	739.386414	831.967529	742.655701	3.531268
265.345154	737.900330	834.791016	743.027161	5.291356
265.718201	734.928223	831.224548	738.717590	3.935111
266.091217	743.250061	844.004578	745.702148	2.433725
266.464203	745.479187	848.462708	745.256287	-0.216443
266.837158	748.897156	856.710388	748.451355	-0.413494
267.210114	748.302734	861.614258	746.519470	-1.573771
267.583038	750.234558	873.502747	747.708252	-2.049439
267.955902	750.160217	871.793762	747.188171	-2.443443
268.328766	748.599915	872.611145	750.977539	1.917266
268.701569	746.965149	867.187012	749.417236	2.039635
269.074371	742.284180	875.806152	749.714417	5.564805
269.447144	740.203674	877.960938	747.633972	5.393761
269.819885	735.596924	887.323059	746.668030	7.296769
270.192596	739.757874	894.456116	751.126221	7.348724
270.565277	736.117004	908.425049	755.732971	11.384243
270.937927	743.101501	912.214539	755.881531	7.557093
271.310577	740.723816	925.143250	741.169617	0.241732
271.683136	741.838379	932.424866	734.482422	-3.859643
272.055725	738.049011	938.963440	735.002502	-1.516322
272.428284	739.683594	933.093567	742.581360	1.498251
272.800812	742.878662	935.174072	743.695862	0.424971
273.173279	745.702148	932.722107	740.575195	-2.741394
273.545776	740.723816	938.369141	744.141785	1.729345
273.918152	734.036621	933.093567	747.559631	6.793539
274.290558	732.624817	937.774597	748.154114	7.569736
274.662964	738.197510	924.251526	746.668152	4.552786
275.035278	743.175781	919.793396	740.500977	-1.514461
275.407593	738.940613	919.867737	737.157288	-0.985659
275.779907	742.432800	933.910950	737.231628	-2.716326
276.152161	741.689758	951.594971	729.949951	-5.592909
276.524384	744.290344	957.316223	735.522644	-4.115791
276.896606	744.513245	964.895081	733.442139	-5.023602
277.268799	755.064270	969.724792	745.404846	-4.499860
277.640930	753.652527	977.823792	744.141785	-4.242623
278.013031	750.754700	979.532776	751.349121	0.259824
278.385162	744.141785	973.885742	743.250183	-0.388085
278.757233	754.246887	974.851746	743.250061	-4.984852
279.129272	752.537903	983.990906	736.191406	-7.062555
279.501282	757.516296	996.548096	749.714417	-3.263951
279.873230	748.897156	998.702881	748.005554	-0.356918
280.245178	742.730042	997.588379	746.890930	1.632628
280.617126	735.596985	1010.219788	741.541199	2.164501
280.988983	735.819824	1028.126831	745.181946	3.202839
281.360870	743.918884	1047.891235	747.782532	1.271052
281.732697	743.993164	1054.429810	749.863037	1.890844
282.104492	744.661865	1068.918823	746.222168	0.481193
282.476288	736.191406	1091.952759	747.262390	3.111913
282.848053	738.866211	1104.732788	747.559631	2.376118
283.219757	736.785828	1101.983643	752.240723	4.231924
283.591461	740.129395	1097.451172	751.274841	3.119163
283.963135	741.764160	1095.667969	747.485352	1.616595
284.334747	738.049011	1104.955811	748.451233	2.835113
284.706360	740.575195	1105.550293	751.497742	2.992683
285.077942	738.494812	1118.181641	752.166504	3.600781
285.449524	743.250183	1134.453979	748.525574	1.348502
285.821014	737.603088	1153.846924	748.971436	2.731175
286.192535	740.055176	1171.382446	743.175781	0.723489
286.563995	737.751709	1191.072632	740.278015	0.557289
286.935425	747.708252	1201.772217	741.466980	-1.374536
287.306824	750.160217	1196.273804	750.680420	0.116608
287.678223	754.767029	1184.979858	753.132385	-0.379962
288.049561	752.983704	1178.441162	751.646301	-0.314345
288.420898	748.376953	1175.097534	749.417297	0.243800
288.792145	749.937317	1180.521606	752.909485	0.690264
289.163452	750.977600	1175.469116	761.008484	2.363035
289.534668	748.897156	1186.243042	757.219055	1.902819
289.905914	748.599915	1198.057129	751.720703	0.694346
290.277039	746.370850	1227.183716	742.507080	-0.803591
290.648193	753.578186	1252.966797	744.290344	-1.859843
291.019318	744.513367	1266.935669	750.308899	1.109358
291.390381	742.581482	1277.635254	750.754639	1.527539
291.761475	740.649597	1271.096558	742.358398	0.322144
292.132507	743.175781	1268.421753	741.243835	-0.367817
292.503510	747.039551	1258.836670	742.581360	-0.871086
292.874481	744.959045	1262.923340	745.776367	0.157795
293.245422	745.999329	1268.347412	748.599915	0.497865
293.616364	745.925049	1282.019043	746.593750	0.124736
293.987213	745.850769	1299.331665	751.943542	1.100810
294.358093	746.667969	1330.167236	747.411072	0.127353
294.728943	740.649475	1359.294067	745.553467	0.792699
295.099731	737.603027	1393.176147	745.553528	1.212756
295.470490	738.123230	1415.689819	747.262512	1.348839
295.841248	735.299744	1432.482056	747.411072	1.737182
296.211975	735.002502	1443.033203	740.946777	0.839550
296.582642	735.002502	1452.395142	742.655762	1.066816
296.953308	741.689758	1481.298950	749.714417	1.084986
297.323883	744.216064	1509.608398	760.711243	2.155127
297.694519	744.587585	1534.796997	755.435791	1.372827
298.065063	743.918762	1546.908325	746.519470	0.323878
298.435608	741.912659	1534.871216	742.507141	0.074970
298.806122	736.637207	1508.939575	754.989990	2.376373
299.176575	735.448242	1464.803711	759.002380	3.229446
299.547028	732.699036	1429.435669	754.247009	3.092700
299.917450	733.962219	1411.751587	738.123230	0.613909
300.287872	737.974609	1410.859985	734.259460	-0.552122
300.658234	741.095398	1424.160156	739.906494	-0.174054
301.028564	745.330566	1431.441772	738.569031	-0.985487
301.398865	751.943542	1438.797852	742.729980	-1.341414
301.769135	751.349121	1433.893921	739.163391	-1.785338
302.139374	753.503906	1430.104492	742.507141	-1.625296
302.509583	741.095276	1426.612183	738.791992	-0.335992
302.879791	748.451355	1427.206665	741.838379	-0.974280
303.249939	748.079773	1425.571899	745.033386	-0.449656
303.620087	750.754639	1424.160278	745.850647	-0.728237
303.990173	746.445129	1425.200562	741.912659	-0.667762
304.360260	740.055115	1431.664917	742.655701	0.376019
304.730286	740.426575	1433.596680	744.810486	0.632444
305.100281	738.420410	1442.587280	745.999268	1.076287
305.470276	737.677429	1446.302368	752.463623	2.086604
305.840179	737.677429	1453.286987	758.853699	2.959193
306.210144	729.578430	1460.122681	760.711243	4.261591
306.579987	730.544373	1462.054688	755.658691	3.433215
306.949890	725.194580	1475.131836	750.606140	3.388491
307.319702	736.340027	1483.973999	755.138489	2.514394
307.689484	739.906555	1496.085327	757.070496	2.269826
308.059265	742.804382	1511.985962	747.856934	0.656874
308.429016	736.860107	1536.505981	738.197571	0.167257
308.798737	738.123230	1572.691406	733.739319	-0.525291
309.168396	741.541199	1601.520874	743.101563	0.181442
309.538055	742.061279	1619.799316	745.702148	0.414801
309.907684	738.420471	1642.313110	741.392578	0.328812
310.277313	726.977844	1656.505005	741.541199	1.566749
310.646851	732.624817	1675.675171	743.547302	1.158208
311.016388	738.940613	1684.219849	750.160339	1.186922
311.385895	750.011719	1698.114380	748.451355	-0.164578
311.755371	752.612305	1700.343384	747.782532	-0.509614
312.124817	753.801086	1709.557007	743.770264	-1.049517
312.494232	752.017822	1702.721069	739.906494	-1.273934
312.863617	742.135559	1703.761353	735.076843	-0.734040
313.232971	742.581360	1689.792603	740.129456	-0.258855
313.602295	742.581360	1679.910278	747.634033	0.539050
313.971619	748.228455	1674.040161	761.900085	1.476718
314.340820	739.163513	1688.603516	761.379944	2.339951
314.710083	743.918884	1723.823120	758.259277	1.463448
315.079285	739.609375	1758.299683	747.559753	0.780451
315.448486	747.262512	1771.971313	747.188171	-0.007255
315.817596	750.457520	1760.380249	751.126221	0.066213
316.186707	750.606140	1746.039673	760.562683	1.000222
316.555786	749.268738	1725.234985	755.138611	0.601442
316.924866	745.702148	1713.866577	745.107727	-0.061397
317.293884	746.965332	1705.767578	741.169678	-0.604468
317.662872	748.005554	1698.040039	745.404846	-0.273749
318.031830	745.776367	1687.489136	746.667969	0.094679
318.400757	745.553528	1689.049438	745.776367	0.023618
318.769684	743.844543	1701.532227	744.438965	0.062068
319.138550	739.312073	1723.823120	746.742371	0.754720
319.507416	743.695984	1740.244141	745.330566	0.164024
319.876190	746.445129	1749.160278	746.742371	0.029644
320.244995	753.652527	1759.042603	751.794922	-0.184765
320.613770	752.760925	1748.194336	756.847473	0.410529
320.982483	744.290344	1732.070679	760.265381	1.617266
321.351166	733.293640	1711.043091	758.556458	2.583772
321.719818	729.801331	1700.046265	754.618469	2.557822
322.088440	735.819885	1712.529297	749.268616	1.376943
322.457062	740.203674	1727.761230	748.376953	0.827626
322.825623	738.791992	1749.234741	746.816650	0.794172
323.194183	737.157288	1777.841309	749.342957	1.170929
323.562653	736.117004	1808.528320	741.689758	0.519647
323.931183	740.723816	1846.794067	737.677429	-0.275424
324.299591	740.500916	1883.648438	734.185242	-0.552481
324.668060	739.683533	1928.824341	740.129395	0.037494
325.036407	741.912659	1974.074707	745.925049	0.325638
325.404755	748.525635	2001.269531	748.822815	0.023722
325.773102	753.652527	2000.898071	744.810364	-0.708935
326.141388	746.519470	1995.176758	744.513184	-0.160676
326.509674	741.615479	2000.823730	743.027161	0.112109
326.877899	739.163513	2028.315796	748.228455	0.703171
327.246124	735.671204	2037.603516	750.234558	1.118595
327.614288	737.454529	2037.380493	755.955872	1.423261
327.982422	740.352356	2020.811157	749.788757	0.736955
328.350525	748.376953	2018.730591	744.438965	-0.309992
328.718628	747.336731	2014.049683	741.392578	-0.469258
329.086700	747.188171	2011.969116	757.144714	0.787215
329.454712	744.736145	2005.802124	758.259216	1.072352
329.822693	738.866211	2008.253906	758.927979	1.580429
330.190674	734.853943	2022.594360	747.856873	1.009748
330.558563	728.686768	2036.488892	752.389343	1.812398
330.926483	729.058289	2043.547729	750.606140	1.639256
331.294312	731.658875	2063.312256	753.058105	1.606967
331.662231	734.482422	2096.525635	754.841370	1.494736
332.029999	730.618652	2139.472412	754.841370	1.719321
332.397766	726.754883	2161.020264	753.281006	1.849457
332.765503	730.395752	2184.277100	745.999329	1.073236
333.133240	741.318176	2213.626709	741.169617	-0.010090
333.500916	745.107666	2258.876953	737.454529	-0.505568
333.868561	740.203674	2292.239014	738.643372	-0.100533
334.236176	728.389587	2314.455566	743.844543	0.974421
334.603790	727.646484	2318.616455	743.324463	0.985435
334.971344	732.773438	2322.034180	736.860107	0.257143
335.338867	737.454407	2317.724854	733.739441	-0.235084
335.706360	737.974609	2309.774414	738.643372	0.042548
336.073853	737.974609	2313.043701	746.593750	0.547223
336.441284	744.067383	2312.523682	744.884766	0.052114
336.808655	740.203674	2315.124268	744.438965	0.268921
337.176086	734.259460	2282.951172	740.129395	0.379025
337.543396	727.869446	2229.601807	745.924988	1.202314
337.910706	731.436035	2186.729248	744.513245	0.898596
338.277954	742.432800	2197.874512	747.262512	0.331838
338.645264	746.073669	2278.492920	748.005554	0.126068
339.012421	750.234619	2391.358643	750.903320	0.040747
339.379669	744.736145	2489.661133	749.417236	0.268269
339.746796	745.256287	2554.453125	749.714417	0.246415
340.113953	739.312012	2587.369385	749.788757	0.566906
340.481018	740.129395	2600.743896	757.070374	0.910505
340.848114	744.736145	2606.242432	757.739197	0.698523
341.215118	744.810547	2606.167969	756.104492	0.606759
341.582153	751.274902	2614.787354	754.023987	0.147522
341.949066	742.952942	2619.765625	751.497742	0.455282
342.316010	746.593750	2626.378174	750.680359	0.217398
342.682922	739.237793	2644.582520	745.999329	0.354872
343.049835	745.033386	2664.792969	743.844543	-0.061927
343.416656	747.336731	2708.482666	748.302673	0.049254
343.783478	749.565857	2756.853760	747.188171	-0.118453
344.150269	742.507080	2833.534180	747.708313	0.248741
344.516998	732.550476	2908.283203	745.107666	0.577148
344.883728	733.219238	2973.520752	744.364685	0.497498
345.250427	735.894104	3027.613037	739.163391	0.142657
345.617065	740.872375	3052.875732	738.940613	-0.083554
345.983704	740.426575	3062.460693	742.507141	0.089601
346.350281	739.089172	3056.591064	741.912659	0.121833
346.716827	737.231628	3029.767822	742.209900	0.217151
347.083405	737.900330	3015.427002	744.067444	0.270781
347.449860	745.181946	2980.727783	755.361511	0.455350
347.816376	756.253113	2959.848877	761.454285	0.236031
348.182770	748.748535	2927.081299	756.773193	0.368385
348.549194	741.169617	2915.564453	758.333496	0.789364
348.915558	731.807434	2917.793701	753.801086	1.006120
349.281921	734.631042	2930.425049	758.184998	1.072685
349.648193	741.763977	2967.725342	749.640137	0.353832
350.014526	749.863037	3003.613281	754.618408	0.210998
350.380737	750.828918	3037.495117	748.822815	-0.087730
350.746948	750.085938	3083.711670	756.178894	0.261094
351.113159	744.290344	3120.565674	754.618469	0.434635
351.479309	743.695984	3159.946045	765.615234	0.907160
351.845428	736.562805	3178.447266	763.386169	1.098470
352.211517	736.191345	3204.453369	756.327393	0.815799
352.577576	737.677429	3224.292236	749.863037	0.490048
352.943604	738.866272	3268.799561	745.553467	0.264323
353.309601	733.813660	3326.012451	750.754700	0.653539
353.675537	736.562927	3398.531982	751.646301	0.566625
354.041473	737.231628	3463.101318	749.342957	0.444311
354.407379	737.454529	3531.237061	742.209961	0.170215
354.773254	730.321472	3603.979248	747.262512	0.589529
355.139038	735.151123	3657.848633	749.194336	0.480488
355.504913	743.770264	3718.479736	753.949707	0.342200
355.870636	753.801086	3785.946533	749.788757	-0.132326
356.236389	754.098328	3870.131592	754.915710	0.026232
356.602081	752.463684	3974.378174	752.835144	0.011529
356.967804	753.578308	4058.934814	745.999329	-0.229294
357.333405	749.342957	4160.060547	744.587585	-0.139424
357.699036	741.987000	4258.734863	743.101501	0.031691
358.064606	733.070618	4383.563477	745.627747	0.343984
358.430176	736.042786	4463.290039	749.194336	0.352849
358.795654	740.723816	4522.880859	751.497742	0.284862
359.161163	745.256348	4527.116211	753.058105	0.206294
359.526581	740.352356	4512.032715	749.491516	0.242310
359.892029	742.432800	4532.837402	753.578186	0.294042
360.257416	734.482361	4586.186523	756.996094	0.584514
360.622772	743.844543	4737.764160	750.903320	0.176738
360.988098	753.578186	4891.199707	742.729980	-0.262185
361.353394	760.488342	5119.605957	738.346191	-0.507950
361.718658	751.794922	5312.124512	737.008728	-0.324235
362.083893	739.163391	5485.621094	739.237793	0.001568
362.449097	739.386414	5590.685059	744.290344	0.101085
362.814209	742.952942	5620.480469	753.875305	0.223932
363.179382	742.284180	5510.587402	758.853699	0.347493
363.544434	747.039551	5286.118164	755.212891	0.180066
363.909546	741.987000	4997.972168	749.417297	0.174585
364.274536	738.791992	4783.386230	748.897156	0.249844
364.639587	731.658875	4624.527344	754.618469	0.589786
365.004517	733.887939	4546.212402	749.714417	0.415140
365.369507	737.305908	4485.581543	745.181946	0.210124
365.734344	736.265686	4461.358398	742.729980	0.173534
366.099274	741.318176	4434.460449	752.315002	0.297763
366.464081	740.575195	4419.600098	756.104492	0.422104
366.828918	742.358459	4397.755371	748.525635	0.168714
367.193665	733.665039	4407.711426	741.020996	0.200214
367.558411	736.637207	4422.943359	737.008728	0.010078
367.923126	737.900330	4444.565918	739.460693	0.042096
368.287781	748.599915	4440.851074	747.039551	-0.042260
368.652435	755.658691	4412.615723	747.559631	-0.221470
369.017059	760.488342	4391.365234	753.801208	-0.184174
369.381653	758.630859	4382.894531	754.098328	-0.125061
369.746185	746.147949	4386.535156	757.516296	0.312284
370.110687	739.163513	4383.414551	754.544128	0.422051
370.475220	731.807556	4413.209961	750.606140	0.510637
370.839661	733.516541	4458.534668	752.092102	0.498670
371.204041	727.869446	4518.497070	750.457520	0.595893
371.568451	734.631042	4561.741211	746.519470	0.310637
371.932770	738.197571	4607.065918	745.850769	0.197815
372.297150	742.284180	4659.077637	748.599915	0.161248
372.661377	743.398743	4691.102051	758.185059	0.374555
373.025696	743.250061	4709.900879	760.636902	0.438325
373.389862	744.959045	4690.136230	768.513000	0.597032
373.754059	739.163513	4678.767578	759.893860	0.526204
374.118225	739.980774	4703.139160	759.373840	0.489334
374.482361	740.575195	4757.157715	750.011719	0.234939
374.846436	745.033386	4821.801270	757.070496	0.295261
375.210510	743.473083	4884.512207	751.869324	0.202757
375.574524	745.107727	4970.480469	754.841309	0.230360
375.938538	750.531799	5075.915527	747.856934	-0.061841
376.302460	749.714539	5184.472168	753.652527	0.088798
376.666412	751.200500	5314.947754	748.525635	-0.058611
377.030304	743.695862	5425.732910	749.491516	0.123785
377.394196	748.599915	5540.011230	746.222229	-0.049624
377.757996	745.107727	5642.771484	752.092102	0.142606
378.121796	740.649475	5706.671875	758.630798	0.362087
378.485565	731.510254	5727.922363	763.311829	0.636488
378.849304	734.556641	5657.706543	758.630676	0.488997
379.212982	743.175781	5563.787598	757.367615	0.294399
379.576630	745.553528	5426.253418	748.154114	0.055560
379.940277	744.067444	5342.811523	751.869202	0.169650
380.303864	741.764099	5279.654297	743.770203	0.044208
380.667450	746.668030	5273.710449	749.491516	0.062369
381.030945	746.816650	5266.131348	752.389343	0.123308
381.394501	747.411072	5289.090332	756.476074	0.199596
381.757935	747.113831	5320.224121	753.503906	0.139731
382.121399	744.216064	5333.449707	754.544128	0.225050
382.484741	742.729980	5372.161621	754.098328	0.245567
382.848145	742.729980	5398.167480	755.955872	0.284096
383.211487	744.959045	5457.014160	752.315125	0.156112
383.574768	746.519470	5529.311035	757.441895	0.228369
383.938019	739.163391	5603.242188	760.711243	0.443000
384.301270	742.878601	5682.597656	765.095215	0.449755
384.664459	738.791931	5748.207031	760.339783	0.430147
385.027649	745.404968	5810.918457	748.748535	0.066006
385.390778	745.033386	5882.025879	742.729980	-0.044840
385.753876	750.085938	5914.720215	750.457458	0.007194
386.116943	743.027161	5948.750000	756.401672	0.256919
386.479980	734.779602	5948.973145	761.677185	0.515853
386.842987	735.225403	5978.619629	764.203430	0.552658
387.205994	734.259521	6024.241699	769.256042	0.661562
387.568909	737.157288	6076.328125	774.680176	0.702785
387.931793	732.030457	6115.560059	774.605896	0.790846
388.294678	738.123230	6134.135254	780.252930	0.780756
388.657471	739.312012	6167.200684	772.599670	0.613271
389.020294	738.197510	6164.599609	769.924805	0.584684
389.383057	737.008728	6170.246094	773.937073	0.679675
389.745819	735.968445	6169.800781	783.002014	0.865569
390.108521	744.364563	6207.397949	790.209473	0.839184
390.471191	751.869202	6265.205566	786.048401	0.619937
390.833801	746.816589	6350.950684	780.995911	0.609895
391.196442	739.683594	6489.970703	780.475769	0.709394
391.558960	732.773438	6626.167969	785.231140	0.890110
391.921509	737.157288	6785.101563	792.067078	0.907908
392.284027	734.333801	6929.843262	794.221741	0.966635
392.646484	734.185242	7031.192871	800.834656	1.058430
393.008911	738.866272	7057.421387	801.800598	0.996024
393.371307	743.101563	7022.796387	809.453796	1.056616
393.733673	739.386414	6967.886719	809.453857	1.124949
394.096008	733.739441	6933.261719	818.072937	1.360322
394.458344	727.497864	6947.082031	825.874756	1.581728
394.820587	728.686768	6966.994629	833.527893	1.680602
395.182831	733.070618	7002.585938	839.917969	1.704236
395.545013	735.968445	6979.997559	854.109802	1.892069
395.907196	733.665039	6956.369629	869.564758	2.183933
396.269287	734.705261	6865.571777	881.676086	2.397228
396.631409	738.494812	6766.229004	879.967102	2.347023
396.993469	745.181946	6663.170410	884.053772	2.346605
397.355530	750.383240	6594.068848	884.425293	2.293793
397.717499	754.246887	6566.354004	902.109375	2.544043
398.079468	753.206726	6550.676270	925.068848	2.964433
398.441376	744.216064	6563.457031	952.858093	3.585382
398.803284	742.061279	6582.403809	965.341003	3.823059
399.165131	743.695984	6620.892578	974.554504	3.928038
399.526978	751.423523	6630.626465	984.511047	3.964611
399.888763	744.810486	6648.013184	995.953674	4.254355
400.250519	740.203796	6659.976074	1000.263184	4.393064
400.612244	741.095398	6690.439941	1021.959656	4.720928
400.973938	740.129395	6696.532715	1045.290649	5.123247
401.335602	741.243958	6710.427246	1066.095581	5.442145
401.697205	733.813660	6731.380371	1078.875610	5.753366
402.058807	736.562805	6789.411621	1086.528687	5.781837
402.420349	736.488586	6863.045410	1102.057983	5.966963
402.781860	734.779602	6960.456543	1109.785400	6.023535
403.143341	735.448303	7083.427246	1134.899780	6.292577
403.504822	739.312012	7209.519043	1164.843750	6.576787
403.866241	741.169617	7342.298340	1195.902344	6.888711
404.227631	742.507080	7445.652832	1221.982544	7.152992
404.588959	739.757874	7596.710449	1246.725342	7.393481
404.950287	743.472961	7703.111816	1267.158569	7.524609
405.311554	743.695862	7789.451660	1283.133667	7.656209
405.672821	748.748535	7819.173340	1290.786987	7.666278
406.034027	740.872375	7827.568848	1302.452393	7.924426
406.395203	737.603088	7790.193848	1311.740234	8.140798
406.756348	734.482422	7732.981934	1324.371704	8.428797
407.117493	740.426575	7686.914063	1345.102173	8.704768
407.478516	739.312073	7686.096191	1362.414673	8.969655
407.839600	737.305969	7681.414551	1373.560181	9.162504
408.200592	734.779602	7698.950684	1382.476440	9.300416
408.561554	736.488586	7680.300781	1389.015015	9.397237
408.922485	734.036621	7709.130371	1404.618652	9.613950
409.283417	739.460693	7716.932129	1408.779663	9.592571
409.644257	741.615479	7771.247559	1434.414063	9.855404
410.005096	742.804382	7851.345703	1444.742188	9.874569
410.365906	745.107605	7951.134277	1464.358032	9.981235
410.726715	745.924988	8075.813965	1473.720093	9.929142
411.087433	746.519470	8144.915527	1489.620972	10.044089
411.448120	745.850769	8207.107422	1502.401001	10.139716
411.808807	742.804382	8205.992188	1515.329712	10.351144
412.169434	738.940613	8191.429199	1522.388306	10.512565
412.530029	731.510315	8162.450684	1534.648438	10.808028
412.890564	737.528809	8168.320801	1538.289185	10.776245
413.251099	742.135559	8162.599609	1555.824707	10.965475
413.611572	741.243958	8187.045410	1567.638794	11.098804
413.972076	734.779602	8210.895508	1585.174194	11.374819
414.332489	726.383362	8253.694336	1598.697266	11.588653
414.692871	728.389465	8376.889648	1604.344360	11.452637
415.053223	729.727051	8476.973633	1617.867554	11.463950
415.413574	739.609314	8672.019531	1640.158203	11.352777
415.773834	736.711487	8780.500977	1667.873169	11.576157
416.134094	736.860046	8896.041992	1684.665649	11.616429
416.494263	733.516418	8988.623047	1694.102051	11.636260
416.854462	739.609314	9211.680664	1718.250366	11.551379
417.214630	738.197571	9463.194336	1742.250122	11.507770
417.574738	742.878601	9721.098633	1773.160156	11.475343
417.934784	733.144958	9935.610352	1803.029785	11.626066
418.294861	731.881836	10204.141602	1859.128296	11.900502
418.654846	724.377258	10542.738281	1899.994751	11.973662
419.014832	730.024231	10909.347656	1948.440308	11.969519
419.374756	740.203796	11321.801758	1978.681519	11.704072
419.734680	747.188171	11739.606445	2035.671753	11.721567
420.094543	749.714417	12160.531250	2075.126465	11.615401
420.454376	739.683594	12534.721680	2113.318115	11.645867
420.814148	741.838379	12902.816406	2141.255615	11.507440
421.173920	744.513367	13312.893555	2190.518311	11.505101
421.533691	752.389404	13732.554688	2233.614014	11.411447
421.893341	745.033386	14036.601563	2274.183350	11.504662
422.253021	744.959167	14235.583008	2286.294678	11.425235
422.612640	738.197571	14278.604492	2291.644531	11.472675
422.972260	749.863098	14267.012695	2290.604492	11.398420
423.331757	745.553528	14205.640625	2292.387695	11.492007
423.691315	751.794922	14206.457031	2308.659912	11.571194
424.050781	743.472961	14324.895508	2325.972412	11.651942
424.410248	748.079773	14437.612305	2340.164307	11.629941
424.769653	740.352295	14579.604492	2345.142334	11.595930
425.128998	743.250183	14627.604492	2341.352783	11.510096
425.488373	742.135559	14577.450195	2338.901123	11.541231
425.847656	745.479248	14418.961914	2330.727783	11.593597
426.206940	741.838379	14250.963867	2325.675293	11.724200
426.566193	742.061340	13982.210938	2302.121338	11.782798
426.925385	737.157288	13730.101563	2267.941895	11.781661
427.284576	738.643372	13347.071289	2225.886475	11.795628
427.643677	731.064453	13067.024414	2194.531006	11.863419
428.002777	733.293640	12783.708008	2170.828125	11.929337
428.361847	726.160461	12500.020508	2136.648926	11.979831
428.720856	726.234802	12225.323242	2111.757568	12.048978
429.079865	730.321472	12042.464844	2101.875244	12.124614
429.438812	738.197510	11917.635742	2098.160400	12.164859
429.797760	746.445129	11831.890625	2101.206787	12.221086
430.156616	746.593750	11670.282227	2087.312256	12.273497
430.515503	742.135559	11611.657227	2086.123291	12.364738
430.874268	732.179016	11582.902344	2072.971436	12.356710
431.233093	726.754944	11613.515625	2073.194580	12.367680
431.591827	732.253235	11633.057617	2077.949951	12.344931
431.950562	734.928162	11654.233398	2094.742432	12.453303
432.309204	740.203674	11713.526367	2100.315186	12.394711
432.667877	735.002502	11802.465820	2112.426514	12.445707
433.026459	739.386414	11929.078125	2124.909424	12.382137
433.385010	738.569092	12045.511719	2146.308594	12.450223
433.743561	742.730042	12187.875000	2167.187256	12.445952
434.102051	742.581360	12341.012695	2179.150146	12.385889
434.460510	746.445129	12475.426758	2185.614502	12.270200
434.818939	747.782532	12569.940430	2197.428467	12.262110
435.177338	747.633972	12607.760742	2211.174561	12.340007
435.535675	739.460693	12566.372070	2223.657471	12.549318
435.894012	737.825989	12502.026367	2216.375732	12.568213
436.252289	732.550598	12510.942383	2215.558594	12.590921
436.610535	736.711487	12547.500000	2213.923828	12.507315
436.968719	738.866272	12677.233398	2230.121826	12.491286
437.326935	744.290344	12776.278320	2243.570557	12.460786
437.685028	751.274841	12863.510742	2257.836914	12.438347
438.043152	750.606140	12939.819336	2267.942139	12.448186
438.401215	750.680359	13101.426758	2289.043945	12.455632
438.759277	739.386414	13290.082031	2314.826904	12.552615
439.117249	733.888000	13598.585938	2354.802002	12.599706
439.475250	734.185242	13826.324219	2387.123535	12.625425
439.833130	739.460693	14160.686523	2434.082764	12.626433
440.191071	743.398743	14380.770508	2460.014404	12.587584
440.548889	745.479187	14677.165039	2482.899658	12.471000
440.906708	742.432800	14980.989258	2506.304932	12.387998
441.264496	739.163391	15222.547852	2529.487549	12.361228
441.622223	733.516418	15361.641602	2549.623535	12.415174
441.979950	742.507080	15395.671875	2550.218018	12.336658
442.337616	743.473083	15401.245117	2552.521240	12.341904
442.695251	743.621643	15311.117188	2534.762939	12.295465
443.052887	735.596985	15150.770508	2523.543213	12.403224
443.410461	741.095398	14990.574219	2508.979980	12.406661
443.768005	751.051941	14860.840820	2507.716797	12.449972
444.125458	755.732971	14802.290039	2492.187500	12.362137
444.482941	754.469788	14827.627930	2495.382568	12.370449
444.840393	752.537903	14940.418945	2509.797119	12.385636
445.197754	752.240723	15152.925781	2553.635742	12.509092
445.555084	754.098328	15372.415039	2574.886475	12.455525
445.912415	748.228333	15694.739258	2605.870605	12.428602
446.269714	742.209778	15931.543945	2623.926514	12.388409
446.626953	738.940491	16232.172852	2671.108398	12.471045
446.984161	737.008728	16502.931641	2709.077148	12.508423
447.341309	741.689758	16707.041016	2741.473389	12.525773
447.698456	738.866211	16860.998047	2751.726807	12.485077
448.055542	743.547302	16929.802734	2759.751709	12.456274
448.412598	740.352295	16941.320313	2749.052002	12.398641
448.769653	737.231628	16859.212891	2739.392578	12.418826
449.126617	735.894226	16616.689453	2719.108154	12.488127
449.483582	740.798096	16429.296875	2702.613037	12.504797
449.840515	749.714539	16132.754883	2686.043213	12.587425
450.197388	744.959045	15956.805664	2668.210693	12.643118
450.554230	742.209900	15803.296875	2654.315918	12.695670
450.911041	743.027161	15656.698242	2640.867188	12.725506
451.267822	745.479187	15513.442383	2630.242188	12.762511
451.624573	742.432800	15307.995117	2629.276123	12.954140
451.981262	735.522644	15257.765625	2610.625977	12.911940
452.337921	735.745605	15135.092773	2594.279297	12.907068
452.694580	737.677429	15088.132813	2588.929443	12.900301
453.051147	738.420471	15072.528320	2594.502441	12.948710
453.407715	746.519470	15016.282227	2600.818115	12.994600
453.764221	750.383240	15044.963867	2595.171143	12.905505
454.120728	747.188171	14840.706055	2574.217773	12.963616
454.477142	737.677429	14827.034180	2567.382080	12.986431
454.833557	730.172852	14671.590820	2539.964111	12.981400
455.189911	733.144958	14559.097656	2523.171875	12.946860
455.546265	735.374023	14404.918945	2502.887451	12.930302
455.902557	744.587585	14306.468750	2493.228027	12.893789
456.258820	746.370850	14305.206055	2501.326904	12.943266
456.615051	743.547363	14329.875000	2506.156494	12.973403
456.971252	746.296570	14315.682617	2516.707275	13.047095
457.327393	754.321228	14451.433594	2531.864990	12.977507
457.683502	754.098328	14642.688477	2569.387939	13.070366
458.039612	747.782532	15001.273438	2626.527100	13.180943
458.395630	731.881775	15363.574219	2691.244629	13.391225
458.751648	733.219238	15740.363281	2741.101563	13.379510
459.107605	722.148132	16300.902344	2811.169189	13.409423
459.463562	733.665039	16863.076172	2878.933350	13.300351
459.819458	735.076843	17419.900391	2938.301025	13.204959
460.175323	748.079834	17910.373047	2991.501953	13.071809
460.531158	748.451355	18392.896484	3029.024658	12.925162
460.886932	750.308899	18704.298828	3057.482666	12.850479
461.242676	748.005554	18850.826172	3060.826172	12.776023
461.598419	740.798157	18737.363281	3044.331299	12.799850
461.954102	740.426575	18405.972656	3000.789795	12.795321
462.309723	732.773438	17883.251953	2934.437500	12.837333
462.665344	736.785828	17298.416016	2865.632813	12.854090
463.020905	735.819885	16856.462891	2824.692383	12.957750
463.376373	738.866211	16488.517578	2802.030029	13.099743
463.731873	742.655701	16198.364258	2776.395508	13.158502
464.087341	742.804260	15902.343750	2743.479248	13.197466
464.442749	740.723816	15723.645508	2740.061523	13.344110
464.798126	733.145020	15612.710938	2744.296631	13.516198
465.153503	723.039734	15672.079102	2760.865967	13.631821
465.508820	725.491699	15746.159180	2758.414063	13.534167
465.864105	729.652649	15899.666992	2781.225342	13.523868
466.219330	740.946777	16158.315430	2819.713867	13.483280
466.574524	746.668030	16318.289063	2851.143799	13.514815
466.929657	745.181946	16498.697266	2876.332764	13.528097
467.284790	747.708313	16673.457031	2911.477783	13.586611
467.639893	740.798096	16854.904297	2956.505127	13.750108
467.994934	745.925049	17052.177734	2988.232422	13.751212
468.349945	746.222229	17109.017578	2996.777344	13.754100
468.704926	755.435730	17123.953125	2992.541992	13.667128
469.059875	754.469788	16919.472656	2971.514404	13.715090
469.414764	754.618408	16711.572266	2932.951172	13.651307
469.769653	746.073669	16525.667969	2905.756592	13.686555
470.124451	742.878601	16436.654297	2887.477783	13.665285
470.479248	737.008728	16291.762695	2885.026367	13.809396
470.834015	737.454529	16200.073242	2872.840576	13.809989
471.188721	736.265686	16254.315430	2886.363525	13.855465
471.543365	739.832214	16366.511719	2895.948486	13.797661
471.898010	744.958984	16484.207031	2906.722656	13.734859
472.252625	743.695862	16599.525391	2929.310547	13.784298
472.607178	740.649475	16781.642578	2960.220459	13.836868
472.961700	740.129395	16967.546875	3000.715576	13.930658
473.316193	742.729980	17201.525391	3029.247803	13.892377
473.670654	741.243958	17364.025391	3045.891357	13.864391
474.025055	741.689758	17601.869141	3059.489014	13.747180
474.379456	734.110901	17758.720703	3082.671143	13.795091
474.733795	737.528809	17916.689453	3109.494385	13.807226
475.088104	734.408020	17997.009766	3123.983398	13.842499
475.442383	740.129395	17994.410156	3126.509766	13.830656
475.796570	739.386414	18069.457031	3144.342529	13.877358
476.150787	732.253357	18231.064453	3183.574219	14.008499
476.504944	736.860046	18463.111328	3212.701172	13.967087
476.859070	732.624817	18730.824219	3247.549072	13.973200
477.213135	735.522644	18979.439453	3264.416016	13.861570
477.567200	735.225403	19377.925781	3306.099609	13.790246
477.921173	737.231628	19731.236328	3333.888916	13.670931
478.275146	737.974670	20168.804688	3392.067627	13.659185
478.629089	734.110840	20408.357422	3414.432861	13.623506
478.983002	731.435974	20747.623047	3472.388916	13.693681
479.336823	733.367859	21052.636719	3505.751221	13.644109
479.690643	729.875671	21458.181641	3582.580078	13.762361
480.044403	740.426575	21909.939453	3632.660156	13.662258
480.398163	743.027161	22481.251953	3728.733398	13.734821
480.751862	749.565857	23274.806641	3834.317627	13.694645
481.105499	741.912659	24180.111328	3986.415283	13.842798
481.459137	744.959045	25395.851563	4152.185059	13.821918
481.812744	749.417236	26820.310547	4357.706055	13.840297
482.166290	747.411133	28685.900391	4615.685059	13.845681
482.519806	752.612244	30924.195313	4946.406738	13.899816
482.873291	747.411133	33616.035156	5326.762207	13.932286
483.226715	751.200500	36722.406250	5764.554199	13.937129
483.580139	750.754700	39923.441406	6175.076172	13.847202
483.933502	752.760925	43227.312500	6591.394531	13.746193
484.286804	753.875427	46222.824219	6928.728027	13.580372
484.640106	742.655762	48794.890625	7200.750488	13.439738
484.993347	744.290344	50480.894531	7328.626465	13.238410
485.346558	742.581482	51138.402344	7314.211426	13.040030
485.699738	749.640137	50650.531250	7164.416504	12.855034
486.052887	746.890930	49382.406250	6936.679199	12.726889
486.405975	743.770264	47642.531250	6704.260254	12.709270
486.759064	738.643311	45787.792969	6505.054688	12.800266
487.112061	739.014832	44143.250000	6371.013184	12.975689
487.464996	740.278015	43063.554688	6295.224121	13.125038
487.817963	741.392517	42825.488281	6287.273438	13.178091
488.170868	739.237793	42852.093750	6285.267090	13.169445
488.523743	740.278015	43090.972656	6288.907715	13.101626
488.876587	739.906494	43047.804688	6246.406250	13.015300
489.229401	751.200500	42877.351563	6182.208984	12.892249
489.582153	759.373840	42151.562500	6072.463379	12.835972
489.934845	769.033203	41183.917969	5963.313965	12.852396
490.287537	761.082764	40084.535156	5858.472656	12.962721
490.640198	753.801086	39258.359375	5806.460449	13.122236
490.992798	743.175781	38567.050781	5770.349121	13.291005
491.345337	740.054993	38347.636719	5798.510254	13.450625
491.697876	741.392517	38374.753906	5831.054688	13.524335
492.050354	752.538025	38806.082031	5882.472168	13.480832
492.402832	751.497742	39110.500000	5877.270996	13.362635
492.755219	754.172668	39170.910156	5825.556152	13.200974
493.107605	743.918884	38723.605469	5728.219238	13.123595
493.459930	743.101563	37759.972656	5583.181152	13.075335
493.812225	734.853943	36300.148438	5385.833008	13.077297
494.164490	732.624817	34562.800781	5160.621582	13.088896
494.516724	729.355530	32733.474609	4972.486816	13.258079
494.868896	730.841614	30991.369141	4794.308594	13.428276
495.221039	729.504150	29509.326172	4657.294434	13.647722
495.573120	732.104675	28338.093750	4529.345215	13.755134
495.925201	741.763977	27691.658203	4488.627441	13.903073
496.277222	750.680359	27313.162109	4471.240234	14.006823
496.629211	751.274719	27220.654297	4468.565430	14.043740
496.981140	741.020996	27203.193359	4449.841309	14.015555
497.333069	736.934387	27302.312500	4459.500488	14.012848
497.684967	736.117004	27419.859375	4488.255859	14.061517
498.036804	734.408142	27471.427734	4501.407227	14.089076
498.388580	732.030457	27467.193359	4480.528320	14.020853
498.740326	732.179016	27381.966797	4456.379883	13.974599
499.092072	735.299805	27170.126953	4422.200684	13.947134
499.443756	738.494690	26879.828125	4386.461426	13.954784
499.795410	735.002502	26584.326172	4342.474121	13.955768
500.147003	741.095398	26270.546875	4304.282715	13.957164
500.498566	743.250061	25920.357422	4278.573730	14.041819
500.850098	743.324463	25533.015625	4254.647949	14.164451
501.201599	738.866272	25271.025391	4214.747559	14.168674
501.553009	737.974670	25034.521484	4190.971191	14.211882
501.904449	748.451355	24858.349609	4163.404785	14.164113
502.255859	751.274841	24631.203125	4160.432129	14.276246
502.607178	756.104492	24495.750000	4152.481934	14.306775
502.958405	758.110657	24402.500000	4138.810059	14.298105
503.309692	761.082764	24365.498047	4137.546875	14.304375
503.660919	750.754700	24377.458984	4134.946777	14.323589
504.012115	755.658630	24415.501953	4142.600098	14.315147
504.363251	748.971497	24505.484375	4164.667969	14.377937
504.714294	756.550354	24580.156250	4176.035645	14.353350
505.065369	745.330566	24602.892578	4183.094727	14.409536
505.416443	751.794922	24611.289063	4168.084961	14.318367
505.767395	745.702087	24628.156250	4166.524902	14.323581
506.118317	748.971375	24640.937500	4162.512695	14.287401
506.469238	748.154114	24633.728516	4176.407715	14.352820
506.820160	753.206726	24595.687500	4184.952148	14.393408
507.170929	748.971436	24569.607422	4203.305176	14.501433
507.521729	746.668030	24633.359375	4208.580566	14.493060
507.872498	744.290344	24757.666016	4215.861816	14.456824
508.223236	747.633972	24976.562500	4233.248535	14.386169
508.573883	745.999329	25163.431641	4281.619629	14.479903
508.924500	746.816650	25350.380859	4320.332031	14.524381
509.275116	742.730042	25483.751953	4353.768066	14.595347
509.625702	743.473083	25691.501953	4381.333984	14.581757
509.976196	742.581360	25916.865234	4411.277832	14.573192
510.326660	750.457520	26171.648438	4435.129395	14.494490
510.677124	750.011658	26404.291016	4447.761230	14.413773
511.027557	751.349121	26593.611328	4463.958984	14.366427
511.377869	744.959167	26834.873047	4490.559570	14.356507
511.728180	742.952881	26944.916016	4496.206543	14.324323
512.078430	742.432800	27015.353516	4525.853027	14.400455
512.428650	741.021057	27075.466797	4547.846680	14.455689
512.778931	746.593750	27229.939453	4574.372559	14.453532
513.129028	751.646301	27367.773438	4573.406738	14.358815
513.479126	750.234558	27436.281250	4564.415527	14.292791
513.829285	752.017883	27365.693359	4563.003906	14.319654
514.179382	750.903320	27327.796875	4556.762695	14.320181
514.529297	755.435791	27212.927734	4545.543457	14.325272
514.879272	755.807312	27233.507813	4550.744629	14.332579
515.229187	752.760925	27111.205078	4551.785156	14.412930
515.579163	751.943542	27142.412109	4579.425293	14.503273
515.928955	745.999329	27128.890625	4570.360352	14.495610
516.278748	747.336731	27310.486328	4602.682129	14.513886
516.628540	753.652527	27538.521484	4638.347168	14.503318
516.978333	747.559753	27943.916016	4708.340332	14.563644
517.327942	737.528809	28426.734375	4770.754395	14.566058
517.677612	729.355530	28956.216797	4857.242676	14.623968
518.027222	736.934387	29498.703125	4940.610352	14.615498
518.376831	741.689758	30155.314453	5024.126953	14.559365
518.726379	740.946777	30792.087891	5088.250488	14.466352
519.075867	740.055115	31322.015625	5140.708008	14.389701
519.425293	739.460693	31706.828125	5168.720215	14.302991
519.774658	736.340027	31915.173828	5182.391602	14.259840
520.124084	732.847717	31988.140625	5181.351563	14.232801
520.473389	731.807556	31842.580078	5164.262207	14.247330
520.822693	732.699036	31606.966797	5116.113770	14.197631
521.171997	728.909668	31205.507813	5061.872559	14.217344
521.521240	729.206970	30837.634766	5020.783203	14.253737
521.870361	729.875671	30460.103516	4991.062012	14.332842
522.219482	736.117126	30195.365234	4957.105957	14.328230
522.568604	739.014893	29914.203125	4929.985352	14.364846
522.917664	741.169678	29728.814453	4918.914063	14.412154
523.266724	736.785828	29683.787109	4942.542480	14.529162
523.615662	735.522644	29904.990234	5000.350098	14.620863
523.964600	733.590759	30266.843750	5053.922363	14.628701
524.313538	738.123230	30751.521484	5129.488281	14.631350
524.662354	742.061279	31337.023438	5191.753906	14.543873
525.011169	750.903320	32096.099609	5301.870605	14.518867
525.359985	749.565857	33036.402344	5419.640137	14.464329
525.708740	748.525635	34138.757813	5575.527832	14.456330
526.057434	744.290344	35312.222656	5743.451660	14.461845
526.406067	745.776428	36668.542969	5946.149902	14.476540
526.754700	747.262451	38133.343750	6156.872559	14.469584
527.103333	749.863098	39856.425781	6404.671875	14.459999
527.451782	748.897156	41732.199219	6679.368652	14.470459
527.800293	746.445129	43754.199219	6986.759277	14.509742
528.148743	738.494812	45878.511719	7313.245605	14.565239
528.497131	737.008728	48008.769531	7600.648438	14.519534
528.845642	734.482422	49876.667969	7867.023438	14.514090
529.193909	733.442139	51426.328125	8076.631348	14.485641
529.542175	731.138733	52492.125000	8205.174805	14.439517
529.890503	735.002502	53056.824219	8204.208984	14.275510
530.238770	737.751709	53022.125000	8077.374512	14.037890
530.586914	742.878601	52352.582031	7874.602051	13.818571
530.934998	742.655701	51098.203125	7647.236328	13.711658
531.283142	745.850769	49424.753906	7400.997559	13.671522
531.631226	750.903320	47472.230469	7163.822754	13.725893
531.979248	752.315125	45533.222656	6928.654297	13.792350
532.327148	748.897156	43753.156250	6732.867188	13.914832
532.675110	746.147888	42465.566406	6608.632813	14.052174
533.023071	743.993164	41707.675781	6565.091309	14.210387
533.370850	749.194336	41515.976563	6580.397949	14.303812
533.718689	749.045715	41697.050781	6607.146484	14.306193
534.066467	748.599854	42005.558594	6646.972656	14.296675
534.414246	738.123230	42160.402344	6619.108887	14.197640
534.761963	734.631042	42095.386719	6591.988770	14.161633
535.109619	730.544250	41884.519531	6509.067871	14.041227
535.457153	736.711487	41444.199219	6432.015137	13.990801
535.804749	740.798096	40746.574219	6319.966797	13.945909
536.152344	745.999329	39872.621094	6221.069824	13.993210
536.499817	752.240723	38945.324219	6126.705566	14.071828
536.847229	749.045715	38052.949219	6031.523438	14.160657
537.194641	751.126221	37227.964844	5942.211426	14.231180
537.542114	743.175781	36635.699219	5873.184082	14.292693
537.889404	744.364563	36145.597656	5802.745605	14.288713
538.236694	745.107666	35775.718750	5737.804688	14.252385
538.583984	743.175781	35403.910156	5695.898438	14.289145
538.931213	738.420410	35171.488281	5688.765137	14.376718
539.278381	728.909668	35029.644531	5671.749512	14.410303
539.625488	736.117004	34997.847656	5683.415527	14.439721
539.972595	733.144958	35217.332031	5746.498535	14.538123
540.319641	736.117126	35712.191406	5869.989746	14.678242
540.666687	725.863281	36517.855469	6019.634766	14.790380
541.013611	723.708496	37643.468750	6195.955078	14.821999
541.360596	727.943787	38894.800781	6370.417969	14.783702
541.707458	737.231628	40264.792969	6525.562012	14.643784
542.054260	748.154114	41480.906250	6644.000488	14.474460
542.401062	750.308899	42504.949219	6727.145020	14.314183
542.747864	746.445129	43183.105469	6766.154297	14.185162
543.094666	741.912659	43355.714844	6737.696777	14.070052
543.441284	739.906494	43020.382813	6653.660156	13.986961
543.787903	741.466858	42166.347656	6516.274902	13.940434
544.134460	740.649597	41021.714844	6348.127441	13.920877
544.481079	733.887939	39622.746094	6166.605469	13.969856
544.827637	737.528809	38111.500000	6002.322266	14.086791
545.174072	743.993164	36509.683594	5805.939941	14.153080
545.520508	747.485352	35197.941406	5658.375000	14.254933
545.866943	742.581360	34112.156250	5508.952637	14.283584
546.213318	736.265686	33302.996094	5458.426270	14.499953
546.559631	742.432800	32594.373047	5384.420898	14.573644
546.905823	740.649597	32044.310547	5328.768066	14.656812
547.252136	739.534973	31647.533203	5254.687988	14.608364
547.598389	734.556702	31243.103516	5193.685547	14.615999
547.944458	734.928223	30881.029297	5141.748047	14.618208
548.290588	741.615479	30374.880859	5069.303223	14.604154
548.636658	742.135559	29871.921875	4988.535645	14.577518
548.982727	743.473083	29264.945313	4912.895996	14.618540
549.328735	743.027161	28624.529297	4832.871582	14.668666
549.674622	743.027161	27912.187500	4749.281738	14.745596
550.020569	742.209900	27229.271484	4667.919922	14.821236
550.366455	735.374023	26553.859375	4580.762695	14.893936
550.712280	735.448303	25952.529297	4514.113281	14.984547
551.058044	735.968445	25412.271484	4450.584473	15.053373
551.403748	741.541199	24990.828125	4411.427246	15.133995
551.749512	741.243958	24679.945313	4380.219727	15.201225
552.095154	739.312073	24484.677734	4360.900879	15.251772
552.440735	741.838379	24401.978516	4361.420898	15.298229
552.786316	743.621643	24386.226563	4369.594238	15.336603
553.131897	745.404968	24440.171875	4381.705566	15.346428
553.477417	740.352295	24520.865234	4372.937500	15.275470
553.822815	735.448303	24538.177734	4367.067871	15.257157
554.168213	736.340027	24492.330078	4362.164551	15.262780
554.513672	735.819824	24382.437500	4356.071777	15.309809
554.859009	736.339905	24221.943359	4341.805176	15.351810
555.204285	737.008728	24037.896484	4296.628906	15.276757
555.549500	733.070618	23823.976563	4268.691406	15.311746
555.894714	730.024231	23643.796875	4233.620605	15.290351
556.239990	728.166687	23375.041016	4209.397949	15.371795
556.585022	737.380127	23112.009766	4180.196777	15.387145
556.930115	743.027161	22851.578125	4149.509277	15.407985
557.275146	746.073669	22631.865234	4125.212891	15.439877
557.620178	748.005554	22488.240234	4106.190918	15.446868
557.965149	746.593750	22302.037109	4085.460693	15.489670
558.310059	750.977539	22168.365234	4063.541748	15.466706
558.654968	747.856873	22001.406250	4028.470703	15.435605
558.999756	750.383118	21886.833984	4023.046631	15.483505
559.344604	748.971375	21783.179688	4026.687256	15.582787
559.689331	749.714417	21713.853516	4038.055420	15.685553
560.033997	747.485413	21652.628906	4023.789307	15.672239
560.378723	743.770264	21649.880859	4011.529297	15.630640
560.723389	738.569092	21659.986328	4006.997070	15.622402
561.067932	736.934387	21702.488281	4019.480469	15.656854
561.412476	730.395752	21668.158203	4015.468018	15.689701
561.757019	730.172852	21655.007813	4015.839111	15.702231
562.101501	733.516418	21692.679688	4012.198486	15.643191
562.445862	740.649475	21724.332031	4017.548096	15.616414
562.790222	740.872375	21686.808594	4008.631592	15.600923
563.134644	730.098572	21623.875000	4009.374756	15.694989
563.478943	730.544434	21633.164063	4012.346924	15.700437
563.823181	726.011902	21657.236328	4024.681396	15.759562
564.167358	737.751770	21685.470703	4027.876221	15.706362
564.511536	736.562805	21707.986328	4032.408936	15.715892
564.855774	745.330566	21744.617188	4027.430420	15.629578
565.199768	742.284180	21838.906250	4036.197998	15.613466
565.543823	741.541199	21986.697266	4046.154541	15.554667
565.887817	739.312073	22171.859375	4096.829102	15.665506
566.231812	743.398743	22351.896484	4128.630859	15.666207
566.575745	738.123230	22522.789063	4156.123047	15.689934
566.919617	734.631042	22722.142578	4156.716797	15.563769
567.263428	734.036621	22852.990234	4167.044922	15.520663
567.607239	736.488525	22937.994141	4179.899414	15.509808
567.950989	746.965149	22972.916016	4181.088379	15.450962
568.294678	745.330566	23011.109375	4163.924316	15.353578
568.638367	750.754700	22934.056641	4147.280762	15.311183
568.981995	749.937317	22796.968750	4134.054688	15.349538
569.325623	748.897156	22643.382813	4125.510254	15.422207
569.669128	750.903320	22492.474609	4114.290527	15.469845
570.012573	739.460693	22350.478516	4100.990234	15.554703
570.356140	737.380188	22259.757813	4100.544434	15.626361
570.699524	737.528809	22229.291016	4104.110840	15.664523
571.042908	741.169678	22324.250000	4123.429688	15.670887
571.386230	752.760925	22430.875000	4132.122559	15.588818
571.729492	749.120056	22553.548828	4144.011230	15.569732
572.072815	750.308899	22675.257813	4159.094238	15.547518
572.416016	740.872375	22811.900391	4171.577637	15.543931
572.759094	738.048889	23022.546875	4187.849609	15.480721
573.102234	741.466858	23119.216797	4183.391602	15.381014
573.445374	745.776428	23157.853516	4185.100586	15.345853
573.788391	749.342957	23119.812500	4191.193848	15.385690
574.131409	741.021057	23115.130859	4175.515625	15.350307
574.474365	730.767273	23092.171875	4164.222168	15.354380
574.817261	730.470032	22990.599609	4139.775879	15.315751
575.160156	742.135498	22836.791016	4127.441895	15.321834
575.502930	749.268555	22608.830078	4104.333496	15.348271
575.845703	744.141785	22404.500000	4070.005859	15.354612
576.188477	741.838379	22172.453125	4058.117432	15.474493
576.531250	741.838318	21951.326172	4026.910400	15.488690
576.873901	743.547302	21735.255859	3999.641357	15.511333
577.216431	739.460693	21513.384766	3957.437256	15.490461
577.559082	735.299805	21267.443359	3926.081299	15.540420
577.901611	736.637207	20984.576172	3888.632813	15.566995
578.244080	736.042786	20692.265625	3847.394531	15.590885
578.586487	742.284180	20399.068359	3811.655273	15.614818
578.928955	788.426208	20107.505859	3776.212891	15.465470
579.271301	789.986572	19810.220703	3738.987305	15.504544
579.613647	782.481934	19466.941406	3701.241455	15.621322
579.955872	735.374023	19157.841797	3662.009766	15.886230
580.298157	733.590759	18899.865234	3633.403320	15.962614
580.640320	736.340027	18712.693359	3604.127930	15.953113
580.982483	740.872498	18529.390625	3583.843018	15.982054
581.324524	747.262451	18324.462891	3553.453369	15.964948
581.666626	756.698914	18185.664063	3544.016846	15.992447
582.008728	751.794922	18058.978516	3531.979736	16.063763
582.350647	749.194336	17954.583984	3529.082031	16.157074
582.692566	745.776367	17810.660156	3506.344971	16.176897
583.034424	750.457458	17689.992188	3488.587158	16.164137
583.376343	747.336731	17568.431641	3484.797607	16.273975
583.718201	742.432800	17478.080078	3485.243408	16.389032
584.059937	742.655579	17423.617188	3486.506592	16.448999
584.401611	746.816589	17347.531250	3455.373779	16.315907
584.743347	736.488586	17333.412109	3434.197266	16.254269
585.085022	735.745605	17242.689453	3411.906494	16.212334
585.426514	732.773438	17186.888672	3417.925049	16.319027
585.768127	746.965332	17094.677734	3416.141846	16.327522
586.109619	742.061279	17066.369141	3412.575195	16.359125
586.451172	739.386414	17054.628906	3408.414063	16.359104
586.792542	731.733215	17032.041016	3396.377197	16.347200
587.133850	733.888000	16998.232422	3394.222656	16.356852
587.475220	736.860107	16978.990234	3386.792236	16.315176
587.816589	739.832214	16936.562500	3391.696533	16.372837
588.157776	738.197510	16952.984375	3387.832764	16.340857
588.498962	741.466797	17013.689453	3386.272461	16.253500
588.840210	746.519348	17076.029297	3394.371338	16.215136
589.181335	756.253113	17170.914063	3420.451416	16.230602
589.522400	752.315002	17177.673828	3442.816406	16.380169
589.863403	747.633972	17257.847656	3451.658447	16.377890
590.204407	743.101563	17219.283203	3441.107666	16.375191
590.545410	740.649475	17276.943359	3439.547119	16.321056
590.886353	745.924988	17271.814453	3443.188232	16.321442
591.227112	741.243896	17279.173828	3437.169678	16.301472
591.567932	740.278015	17213.193359	3423.497803	16.288675
591.908752	734.556641	17128.783203	3401.949951	16.270321
592.249512	741.169617	17069.044922	3398.977783	16.277735
592.590149	741.838379	16995.931641	3385.677734	16.265682
592.930786	744.216003	16923.412109	3370.965820	16.235353
593.271423	741.838379	16848.291016	3359.225830	16.250551
593.612000	748.154114	16766.111328	3355.882080	16.280029
593.952576	748.822754	16751.921875	3353.356201	16.275181
594.292969	744.884766	16771.833984	3364.650391	16.346003
594.633484	741.466797	16835.806641	3375.275391	16.364813
594.973877	735.968445	16921.107422	3390.804688	16.402925
595.314209	736.785706	17011.162109	3402.098389	16.377357
595.654480	737.528809	17142.009766	3419.262451	16.347569
595.994812	739.832214	17301.091797	3454.481689	16.391563
596.335022	744.438965	17506.017578	3483.682861	16.342398
596.675171	747.856934	17731.601563	3510.803467	16.268183
597.015320	748.674133	17914.013672	3515.335938	16.117723
597.355408	743.027161	18009.791016	3525.366943	16.113848
597.695496	732.476257	18077.406250	3537.329346	16.171026
598.035461	725.714661	18090.259766	3548.697998	16.257170
598.375366	729.578430	18090.853516	3520.982666	16.078337
598.715271	731.510254	18001.988281	3477.961670	15.902578
599.055176	736.637207	17797.134766	3430.482422	15.789956
599.395081	735.819824	17555.279297	3396.154541	15.817005
599.734802	735.596863	17262.750000	3359.746094	15.877806
600.074524	742.284180	16989.242188	3322.371826	15.880435
600.414246	745.330566	16674.050781	3280.688232	15.916895
600.753906	750.606140	16334.859375	3238.558350	15.964526
601.093506	747.931213	16025.387695	3206.087891	16.090092
601.433044	740.203796	15773.797852	3187.066650	16.275967
601.772583	748.674255	15658.257813	3171.017334	16.246885
602.112122	744.067444	15662.715820	3175.995361	16.301262
602.451538	752.760803	15716.661133	3193.307861	16.309565
602.790894	741.615417	15811.543945	3217.084717	16.426550
603.130310	746.370850	15937.264648	3242.793701	16.433680
603.469604	745.627747	16140.706055	3260.477539	16.335415
603.808838	749.194336	16390.509766	3316.204834	16.411730
604.148010	752.760925	16675.166016	3357.145752	16.356730
604.487305	747.633972	16923.857422	3399.275391	16.392216
604.826416	745.404968	17140.300781	3411.683838	16.262859
605.165527	742.878601	17310.677734	3429.739258	16.217365
605.504456	741.987000	17456.310547	3429.887939	16.081421
605.843445	745.479187	17551.789063	3423.572266	15.935044
606.182434	738.271790	17567.244141	3399.126221	15.811152
606.521423	741.095398	17470.353516	3385.231689	15.805461
606.860229	740.278015	17286.009766	3357.219727	15.816415
607.199036	743.547363	17057.900391	3335.820557	15.889524
607.537903	739.163391	16839.373047	3305.133789	15.937497
607.876648	736.711426	16582.507813	3276.229736	16.026447
608.215271	731.361633	16297.410156	3252.304688	16.195139
608.553955	730.618652	16033.040039	3231.202393	16.341099
608.892578	731.361633	15797.055664	3217.456299	16.501694
609.231140	735.299744	15679.286133	3212.180664	16.574432
609.569641	732.476257	15600.823242	3211.958008	16.676243
609.908081	726.754883	15640.054688	3223.549072	16.742064
610.246521	730.321472	15665.762695	3214.855713	16.635157
610.584961	737.231628	15698.456055	3210.249023	16.529510
610.923340	743.993164	15667.249023	3175.177979	16.291250
611.261597	741.318176	15597.105469	3163.884033	16.307220
611.599854	744.884766	15491.372070	3141.296143	16.250727
611.938110	739.089111	15379.325195	3136.317627	16.374247
612.276245	735.299622	15184.726563	3095.599854	16.334906
612.614319	735.225403	14934.104492	3063.500977	16.397602
612.952393	742.729980	14617.278320	3025.012451	16.449417
613.290466	751.943542	14358.926758	2992.988281	16.469812
613.628479	751.274841	14092.476563	2953.607422	16.507751
613.966370	747.485352	13862.956055	2914.153076	16.519939
614.304260	743.472961	13630.165039	2882.722656	16.600456
614.642151	743.175781	13430.440430	2851.886963	16.620691
614.979980	744.587585	13280.719727	2843.565186	16.743423
615.317749	745.107666	13131.965820	2838.809814	16.902609
615.655396	744.810486	13051.495117	2826.549805	16.915516
615.993164	746.370850	12962.034180	2809.237549	16.887062
616.330811	747.485352	12934.320313	2800.692627	16.847748
616.668396	742.952881	12903.039063	2813.992920	17.031460
617.005859	744.141785	12898.506836	2815.701416	17.043749
617.343445	751.794922	12904.004883	2808.865479	16.927544
617.680908	752.760925	12886.247070	2804.184570	16.907124
618.018311	750.977539	12901.256836	2809.906006	16.945524
618.355652	740.872375	12891.745117	2815.776123	17.076170
618.692993	740.055115	12914.778320	2817.187500	17.061022
619.030273	734.185120	12891.596680	2814.289795	17.109768
619.367554	733.442200	12885.950195	2812.803955	17.110558
619.704712	732.104797	12872.500000	2813.546875	17.144764
620.041870	736.265686	12869.750977	2812.655273	17.112886
620.379028	736.562805	12823.906250	2809.460205	17.149323
620.716064	735.745544	12772.563477	2790.810303	17.073154
621.053040	738.569092	12715.350586	2780.630859	17.050171
621.389954	739.237793	12636.960938	2769.410889	17.063543
621.726929	741.912659	12565.184570	2759.900391	17.067930
622.063843	743.993164	12514.882813	2743.033447	16.982916
622.400635	743.250183	12489.323242	2732.780029	16.937828
622.737427	743.993164	12460.046875	2729.956299	16.950785
623.074219	735.522644	12390.499023	2725.126465	17.070852
623.410889	734.928223	12343.093750	2715.021484	17.057762
623.747559	741.020996	12345.768555	2699.937988	16.880306
624.084167	743.993164	12338.190430	2701.572510	16.884130
624.420715	739.980774	12330.684570	2699.269287	16.903965
624.757324	735.076843	12308.245117	2717.547852	17.129890
625.093750	736.339905	12340.343750	2736.123779	17.233568
625.430176	743.472961	12407.440430	2755.590820	17.250715
625.766602	750.903320	12441.620117	2766.364502	17.239843
626.102905	748.599915	12556.268555	2761.981201	17.051472
626.439209	746.816711	12666.608398	2767.999268	16.956526
626.775452	741.243958	12801.243164	2779.590576	16.901714
627.111694	749.194336	12840.401367	2789.844482	16.877142
627.447876	752.835144	12883.200195	2791.330078	16.804893
627.783997	746.445129	12964.190430	2786.054688	16.693830
628.120056	741.169617	13029.799805	2785.757568	16.638046
628.456055	740.055115	13034.332031	2791.330322	16.684797
628.792053	749.714417	12978.010742	2788.878174	16.675781
629.128052	744.959045	12918.940430	2772.828857	16.657410
629.463928	744.661865	12855.782227	2761.014893	16.648773
629.799744	735.002502	12766.916992	2749.126221	16.739845
630.135559	739.757813	12631.981445	2747.789063	16.885246
630.471375	736.191345	12485.605469	2720.742920	16.890642
630.807068	743.398682	12319.835938	2705.287842	16.947262
631.142700	741.095398	12180.221680	2683.517090	16.980507
631.478333	744.736145	12047.813477	2666.501709	17.002146
631.813965	741.764099	11927.071289	2645.028320	17.015751
632.149475	739.980896	11817.327148	2615.901367	16.934746
632.484924	733.293640	11721.253906	2613.969727	17.115789
632.820435	732.104675	11645.317383	2607.728271	17.186722
633.155884	736.042786	11574.358398	2601.041260	17.207458
633.491150	740.946777	11549.838867	2590.489990	17.111311
633.826477	743.398743	11496.860352	2581.573486	17.093796
634.161804	741.318298	11462.532227	2575.852539	17.111254
634.497009	740.203796	11376.414063	2558.688477	17.097111
634.832153	743.250061	11331.909180	2538.924072	16.958466
635.167297	743.770264	11240.664063	2529.636230	17.013281
635.502380	739.757874	11198.014648	2527.332764	17.092476
635.837463	737.083008	11129.582031	2515.889893	17.116257
636.172424	732.699158	11054.461914	2506.230713	17.182447
636.507324	736.117004	10947.093750	2481.042236	17.088720
636.842224	736.562927	10846.190430	2472.051514	17.166691
637.177124	747.633972	10736.446289	2447.680176	17.019503
637.511963	746.965271	10641.338867	2431.779297	17.028000
637.846741	746.593750	10508.262695	2413.501221	17.076050
638.181396	739.163513	10414.417969	2400.646729	17.172501
638.516113	742.581360	10315.297852	2391.061523	17.220610
638.850769	740.500977	10255.558594	2372.783203	17.154728
639.185303	748.525574	10191.211914	2365.501465	17.124107
639.519836	747.782532	10105.467773	2342.690430	17.043829
639.854370	748.748535	10000.774414	2327.904297	17.068216
640.188843	747.113831	9914.583008	2318.021973	17.135681
640.523254	749.342957	9846.745117	2317.130371	17.233353
640.857605	752.017822	9764.269531	2309.848633	17.285700
641.191895	748.971375	9671.984375	2308.214111	17.474398
641.526184	749.342957	9583.862305	2303.310059	17.589718
641.860413	744.290344	9529.249023	2282.282471	17.507107
642.194580	746.147949	9511.416992	2266.455811	17.344679
642.528748	741.838379	9452.940430	2253.230225	17.350180
642.862793	744.141785	9394.538086	2254.344482	17.458189
643.196838	742.878601	9304.632813	2246.468506	17.561703
643.530823	741.243958	9248.086914	2242.456055	17.647114
643.864746	745.033386	9204.992188	2239.038330	17.659718
644.198669	742.432800	9178.987305	2234.059814	17.680523
644.532532	744.364563	9147.258789	2221.056885	17.573616
644.866333	747.782532	9112.411133	2225.589111	17.667330
645.200073	741.615479	9095.396484	2220.462646	17.702728
645.533813	739.832214	9079.717773	2224.029053	17.796368
645.867554	731.213074	9089.823242	2224.326172	17.863173
646.201172	736.414246	9075.408203	2220.908447	17.801836
646.534729	737.528809	9095.098633	2225.292236	17.801388
646.868225	738.866272	9098.293945	2224.920898	17.776991
647.201782	742.209900	9100.300781	2234.802979	17.858061
647.535217	745.553528	9072.957031	2237.477783	17.915840
647.868591	745.999329	9062.406250	2235.620361	17.911835
648.201965	744.290344	9061.440430	2232.127930	17.888790
648.535278	741.392578	9076.597656	2231.905029	17.882133
648.868591	748.005554	9071.991211	2232.425049	17.833038
649.201782	750.085938	9047.321289	2223.880615	17.762480
649.534912	749.640137	8997.613281	2214.369873	17.758663
649.868103	747.485352	8956.821289	2199.286133	17.684753
650.201172	742.507080	8906.816406	2198.617432	17.835070
650.534180	748.079773	8906.221680	2199.806396	17.794819
650.867188	742.432800	8887.422852	2197.874268	17.869162
651.200134	745.033386	8889.206055	2183.608398	17.663857
651.533020	738.346008	8831.323242	2176.401123	17.769175
651.865845	735.745422	8775.670898	2163.992432	17.764433
652.198608	735.745544	8704.118164	2160.054443	17.874527
652.531433	739.609314	8675.363281	2141.107178	17.660551
652.864136	735.225403	8641.256836	2139.843994	17.766418
653.196777	854.258484	8764.749023	2327.606934	18.625246
653.529358	862.431702	8725.590820	2339.198242	18.780830
653.861938	865.849609	8659.759766	2317.278809	18.622606
654.194519	745.999329	8460.702148	2103.955811	17.602188
654.526978	740.129395	8426.745117	2090.655518	17.569841
654.859375	740.055115	8385.358398	2085.528564	17.598692
655.191833	741.763977	8369.161133	2091.250000	17.692616
655.524170	734.036621	8316.034180	2076.240967	17.702517
655.856445	738.940613	8290.177734	2086.940430	17.851376
656.188660	745.702087	8246.041992	2089.689697	17.919022
656.520874	750.234558	8203.466797	2068.662109	17.689339
656.853088	752.983704	8205.324219	2060.191650	17.540905
657.185181	740.129395	8185.261719	2059.671143	17.723551
657.517212	733.665039	8182.513184	2075.869141	18.018948
657.849243	732.327637	8190.462891	2083.894043	18.122042
658.181274	739.237793	8256.220703	2086.494873	17.922844
658.513123	738.048828	8340.480469	2095.856689	17.860178
658.844971	742.655579	8423.031250	2108.191162	17.779543
659.176819	740.500916	8499.042969	2120.005127	17.780457
659.508667	751.126160	8571.710938	2121.565430	17.523487
659.840393	746.296570	8636.206055	2132.933838	17.574818
660.172058	745.181946	8668.007813	2137.763672	17.576832
660.503662	747.039551	8690.223633	2150.023682	17.662743
660.835266	740.203674	8709.245117	2150.246582	17.694010
661.166931	743.324402	8703.968750	2142.072998	17.570795
661.498413	742.729980	8678.557617	2139.398193	17.599527
661.829773	742.284180	8590.805664	2118.221924	17.531172
662.161194	744.736145	8475.786133	2091.324463	17.417925
662.492615	746.445129	8357.049805	2064.203857	17.314772
662.823975	754.692688	8210.153320	2049.714844	17.370117
663.155212	753.355286	8078.488281	2036.786133	17.520924
663.486450	750.680359	7920.224121	2016.352905	17.653460
663.817627	746.370789	7804.237793	1989.752563	17.616962
664.148743	753.726868	7681.341309	1968.576172	17.536331
664.479858	747.931213	7597.230469	1955.573242	17.631615
664.810913	748.376953	7513.937500	1940.564087	17.621410
665.141907	739.089172	7440.451660	1929.938843	17.770262
665.472778	737.528809	7351.808594	1921.022461	17.893009
665.803711	738.940613	7296.006348	1921.765625	18.038937
666.134583	736.637146	7275.350098	1921.171265	18.115709
666.465454	738.866211	7261.976563	1922.657227	18.147646
666.796143	741.912659	7221.035156	1911.140137	18.046078
667.126831	749.194336	7175.859375	1900.440552	17.913588
667.457458	741.392578	7138.335938	1888.032104	17.924803
667.788147	739.757813	7131.871582	1887.809204	17.960434
668.118774	734.853821	7114.782715	1893.307617	18.157787
668.449219	750.828918	7113.816895	1903.264160	18.111544
668.779663	749.268616	7095.538574	1908.316772	18.263454
669.110107	743.472961	7096.281250	1905.195923	18.286762
669.440552	735.745544	7093.160156	1890.930054	18.170666
669.770874	735.374023	7087.587402	1876.217896	17.959785
670.101135	745.553528	7077.705566	1863.586548	17.656446
670.431396	746.965271	7040.256348	1863.215210	17.737143
670.761597	748.822754	6991.143066	1855.413208	17.727230
671.091797	740.649475	6935.787598	1863.809570	18.129704
671.421875	740.649475	6888.011230	1849.023071	18.030067
671.751892	737.900330	6863.639160	1852.589844	18.196817
672.081909	744.959045	6835.775879	1837.208984	17.932734
672.411865	750.457458	6803.899902	1836.837524	17.946486
672.741821	751.349121	6753.225098	1831.710571	18.000397
673.071716	744.216064	6712.878906	1833.196655	18.244967
673.401550	729.206848	6668.000000	1831.487793	18.560692
673.731262	734.259460	6646.378906	1818.633423	18.341543
674.060974	737.380188	6592.583496	1808.008179	18.285069
674.390625	746.296570	6574.824707	1798.051636	18.044952
674.720276	739.534973	6537.673828	1794.336426	18.192072
675.049927	741.318298	6504.088379	1799.983398	18.370768
675.379395	740.203674	6483.209473	1796.937134	18.400354
675.708923	740.129395	6439.222656	1788.020630	18.386982
676.038330	742.284180	6401.179199	1769.147827	18.146009
676.367737	746.222229	6350.132813	1754.435913	17.991253
676.697083	746.445129	6313.650879	1755.030273	18.116543
677.026428	741.912781	6295.892578	1746.485474	18.087439
677.355652	736.191406	6279.693848	1753.767212	18.356190
677.684875	744.067566	6283.187012	1750.646484	18.172182
678.013977	743.324402	6282.666504	1755.773438	18.277424
678.343079	746.222168	6285.192871	1756.739258	18.243771
678.672180	746.965149	6298.195801	1758.745483	18.226236
679.001221	754.544128	6355.705566	1759.191284	17.936407
679.330139	755.732910	6403.705566	1762.088989	17.818005
679.659058	748.451355	6433.501465	1763.129272	17.848179
679.987976	737.677429	6448.361816	1773.903320	18.145388
680.316772	740.203796	6467.011719	1779.773071	18.152683
680.645630	742.878662	6521.847656	1787.129272	18.069843
680.974304	743.621765	6554.466309	1787.649414	17.966881
681.302979	733.145020	6589.611328	1785.568726	17.970285
681.631653	732.922058	6600.385254	1780.516235	17.854296
681.960266	736.934326	6612.125000	1789.060913	17.907957
682.288757	746.073547	6609.673340	1799.240356	17.961096
682.617249	743.398743	6599.048340	1811.871704	18.246872
682.945679	742.878601	6572.818848	1816.107056	18.408911
683.274109	736.637207	6546.664063	1811.426147	18.498863
683.602478	737.900330	6494.132324	1799.611816	18.444555
683.930725	740.203674	6424.956543	1790.546875	18.476498
684.259033	747.485352	6338.542480	1783.933960	18.537615
684.587280	749.120056	6272.412598	1775.909302	18.590168
684.915344	743.695984	6201.527344	1762.014648	18.657934
685.243469	748.302673	6145.726563	1752.355469	18.602446
685.571533	743.993164	6090.742188	1730.807617	18.456345
685.899536	747.262451	6033.306641	1726.572388	18.526329
686.227539	736.637207	5977.876953	1708.888306	18.550022
686.555420	735.745605	5929.580078	1723.749023	19.022621
686.883301	734.259460	5928.688965	1721.445435	19.004704
687.211121	736.265625	5916.949219	1724.491821	19.075209
687.538940	742.432800	5924.973145	1723.451538	18.929302
687.866638	742.507141	5922.149902	1721.296753	18.896856
688.194336	745.330566	5945.183594	1729.470093	18.926294
688.521973	745.033386	5933.072266	1736.528931	19.111181
688.849609	749.788818	5900.007813	1736.008789	19.149090
689.177063	746.965332	5868.800781	1737.791992	19.345148
689.504578	742.952942	5819.091797	1726.720825	19.380241
689.832031	743.324402	5778.225098	1720.182251	19.401730
690.159485	739.312073	5702.808594	1685.854492	19.070072
690.486816	735.894104	5645.520996	1658.808228	18.798050
690.814087	736.711487	5588.976563	1639.712402	18.609884
691.141296	744.290344	5513.261719	1639.489624	18.771330
691.468506	750.903320	5430.859863	1633.322388	18.855284
691.795715	742.135559	5330.105469	1618.313354	19.097288
692.122803	740.352356	5268.805664	1599.663452	18.975821
692.449829	736.562988	5206.985840	1582.647949	18.926285
692.776855	741.095398	5153.116699	1564.889648	18.671583
693.103821	741.763977	5106.603027	1561.471680	18.779793
693.430664	742.952881	5047.012207	1541.335571	18.549526
693.757568	746.073547	4996.263184	1533.459473	18.525902
694.084351	748.822754	4936.747070	1522.239868	18.467791
694.411133	746.965271	4905.613770	1527.292358	18.763960
694.737854	741.912598	4866.679688	1518.673340	18.831627
695.064575	739.757874	4845.354492	1512.134766	18.812780
695.391174	743.695984	4821.800293	1505.670288	18.684523
695.717773	743.770325	4814.741699	1507.379272	18.757414
696.044250	741.838379	4798.395020	1509.014038	18.911991
696.370789	743.472961	4808.277832	1513.843628	18.952217
696.697205	739.089172	4835.844238	1513.694946	18.907789
697.023621	743.473083	4878.122070	1515.181030	18.664413
697.349915	745.702087	4922.480957	1520.307983	18.545532
697.676208	749.194336	4979.471191	1541.261353	18.723763
698.002380	741.838379	5069.674805	1560.505859	18.916323
698.328674	740.649475	5171.320801	1581.161987	18.970320
698.654724	742.284180	5268.285645	1591.861450	18.771034
698.980896	738.791931	5342.662598	1606.424805	18.845726
699.306946	736.191345	5405.374512	1622.622681	18.984720
699.632935	740.426575	5465.261719	1622.325562	18.665180
699.958862	748.525574	5493.943359	1620.987915	18.385363
700.284729	752.537903	5499.962402	1609.916992	18.059879
700.610596	749.565857	5462.513184	1619.130493	18.450548
700.936340	749.565918	5406.637207	1603.526978	18.336868
701.262146	741.987000	5303.728027	1581.161743	18.395931
701.587830	746.445129	5213.524902	1547.651367	17.935795
701.913513	747.782532	5092.187988	1530.636108	18.019810
702.239075	748.748535	4972.709473	1512.803589	18.088593
702.564697	744.661926	4829.454102	1496.605469	18.408367
702.890137	743.324402	4711.461426	1469.187622	18.292292
703.215698	750.234558	4614.570313	1459.008179	18.341410
703.541016	748.897156	4523.029785	1436.717407	18.224592
703.866455	754.172607	4428.516602	1426.389282	18.294876
704.191711	747.039551	4353.842285	1402.984009	18.186314
704.517029	747.336731	4282.883301	1396.668091	18.365799
704.842163	742.507019	4240.010254	1385.151367	18.374374
705.167419	743.398743	4205.311035	1381.139038	18.421619
705.492493	748.079773	4191.713379	1374.674805	18.195753
705.817566	744.661926	4147.949219	1370.662231	18.393990
706.142578	748.154053	4110.798340	1370.959595	18.521303
706.467590	743.695984	4084.197510	1377.869629	18.984385
706.792480	749.863037	4075.949951	1381.881958	19.001877
707.117371	743.993164	4073.349609	1388.494995	19.358150
707.442200	744.513367	4072.308838	1374.600464	18.934069
707.766907	737.825989	4065.473389	1375.343384	19.158201
708.091675	733.590820	4058.711670	1370.439453	19.152647
708.416321	731.436035	4045.560303	1382.253540	19.637691
708.741028	741.689758	4048.012451	1389.906616	19.605371
709.065552	753.503906	4076.544678	1391.912720	19.211586
709.390137	752.315002	4087.690186	1385.374390	18.980154
709.714600	744.959167	4131.677246	1388.197754	18.992977
710.039063	739.534973	4157.608887	1405.361694	19.479588
710.363403	740.872498	4209.695313	1420.593750	19.595156
710.687744	739.014893	4245.434570	1422.674194	19.497360
711.012085	740.352356	4277.013184	1426.092163	19.389471
711.336304	743.324402	4306.808594	1440.506836	19.564629
711.660461	741.764099	4336.900879	1454.178589	19.816061
711.984619	742.804199	4372.714844	1455.441772	19.632372
712.308716	746.816589	4377.916504	1460.271484	19.648451
712.632751	746.222229	4378.437012	1459.082520	19.626049
712.956726	746.890930	4341.582520	1457.299316	19.762707
713.280701	743.175842	4323.378418	1447.714233	19.678730
713.604553	741.243958	4278.647949	1436.271606	19.647957
713.928467	739.089172	4231.837402	1433.745239	19.888523
714.252258	737.008728	4181.757324	1416.135620	19.714848
714.575989	744.959045	4121.571777	1410.637085	19.714373
714.899719	746.742371	4058.785889	1392.730103	19.504204
715.223267	749.863037	4011.455078	1390.055176	19.628210
715.546936	743.324402	3995.182861	1383.888062	19.698387
715.870422	739.460693	3983.814453	1376.458008	19.634027
716.193970	735.671204	3953.499023	1366.947266	19.618080
716.517395	740.723816	3919.022705	1362.489014	19.562830
716.840820	745.999329	3893.462158	1358.996704	19.475920
717.164124	742.581360	3856.459961	1347.702637	19.433041
717.487488	742.581360	3828.150391	1340.941284	19.392206
717.810730	733.144958	3803.184814	1324.891846	19.274893
718.133972	731.881836	3772.348877	1313.300659	19.122681
718.457092	726.903503	3710.455078	1295.765137	19.066593
718.780212	728.240967	3652.053467	1286.328613	19.087669
719.103210	731.361633	3602.567627	1281.424683	19.157909
719.426208	733.219238	3571.434814	1269.982178	18.911985
719.749207	742.655701	3525.812744	1269.090454	18.915022
720.072083	744.290344	3482.940186	1269.090332	19.162725
720.394958	738.271790	3447.051758	1266.935669	19.516678
720.717773	734.853943	3407.745361	1255.567383	19.481279
721.040527	738.866272	3363.164063	1242.638794	19.196468
721.363281	740.872375	3328.984619	1238.329224	19.220837
721.685913	741.392578	3296.737549	1240.260986	19.522547
722.008545	743.250183	3280.316406	1233.648071	19.329330
722.331055	747.633972	3253.196045	1221.313843	18.905134
722.653503	741.763977	3233.431641	1210.911499	18.828655
722.976013	735.151123	3217.604736	1223.840088	19.685724
723.298401	738.717590	3189.889893	1228.000977	19.961199
723.620789	745.553528	3182.385742	1226.886475	19.752403
723.943115	745.404968	3167.822266	1208.830933	19.130724
724.265381	741.095398	3156.528076	1201.400757	19.056850
724.587585	738.346130	3139.141357	1197.611328	19.129711
724.909790	739.237793	3142.039307	1201.846558	19.252892
725.231873	738.123291	3146.646240	1208.236572	19.518738
725.553894	746.296570	3165.890625	1216.335571	19.426359
725.875916	796.748047	3217.605225	1259.356812	19.109297
726.197937	802.915222	3233.877686	1261.808960	18.877039
726.519775	798.011230	3231.276611	1261.585938	19.051548
726.841675	748.377014	3193.679688	1225.771973	19.522940
727.163513	747.633972	3203.264893	1229.115601	19.607248
727.485291	742.284119	3220.354492	1231.270386	19.732542
727.806946	737.974609	3239.672852	1238.031860	19.988712
728.128662	733.219238	3254.979248	1250.143188	20.498539
728.450256	729.875671	3264.638428	1254.675659	20.704107
728.771790	731.584656	3269.691406	1246.576782	20.290405
729.093323	734.705322	3281.951172	1235.208374	19.648792
729.414795	739.757874	3297.034424	1239.369263	19.536854
729.736145	744.661865	3300.155518	1259.282471	20.137815
730.057495	741.318298	3297.034424	1263.146362	20.418077
730.378845	737.305908	3299.412109	1255.641602	20.230843
730.700134	735.522644	3292.427734	1245.090698	19.929096
731.021301	739.089172	3290.793213	1244.124756	19.792091
731.342468	745.107727	3272.885986	1247.394043	19.870663
731.663574	743.250183	3273.703857	1241.078369	19.673475
731.984680	745.256348	3269.617188	1242.713013	19.706242
732.305664	739.683594	3279.127686	1248.211426	20.025164
732.626648	736.785828	3284.997314	1261.957397	20.609419
732.947571	733.739441	3295.919922	1271.988281	21.007452
733.268433	734.779602	3300.526611	1269.610596	20.845039
733.589233	743.101501	3303.795898	1259.728394	20.175266
733.909973	739.014832	3292.353516	1247.319824	19.907465
734.230713	741.987000	3255.945068	1246.576904	20.071533
734.551331	733.590759	3218.571045	1242.861694	20.493963
734.871948	740.203796	3175.846924	1232.905151	20.228800
735.192505	738.049011	3143.227783	1228.223999	20.379982
735.513062	741.987000	3106.225342	1219.902100	20.214336
735.833435	735.894226	3056.516602	1214.849609	20.639091
736.153931	737.677429	3016.467529	1194.193481	20.033266
736.474304	742.432800	2977.384521	1182.007813	19.668211
736.794617	743.398743	2961.186523	1178.069702	19.599302
737.114807	741.764099	2942.982422	1174.800415	19.672575
737.434998	733.813660	2932.059814	1171.233765	19.898596
737.755188	737.231628	2921.063232	1170.936646	19.859819
738.075256	738.940613	2920.022705	1179.630005	20.205082
738.395325	741.243958	2930.945313	1181.859009	20.122152
738.715271	740.055115	2939.341553	1183.419434	20.159462
739.035278	736.860046	2951.229736	1187.506104	20.350986
739.355164	742.804260	2954.276123	1190.181030	20.229818
739.675049	738.866211	2971.588623	1191.146973	20.256918
739.994873	742.581360	2978.201416	1189.214966	19.978064
740.314636	735.448303	2984.294189	1194.193359	20.399132
740.634277	742.432800	2969.731201	1202.515259	20.656527
740.953979	734.556641	2942.090576	1191.592773	20.703470
741.273499	733.367859	2910.066406	1182.825073	20.648575
741.593140	722.445313	2882.722656	1164.918091	20.482222
741.912598	731.807434	2863.701172	1159.865479	20.078770
742.232117	734.631042	2813.769775	1152.583862	20.102209
742.551453	738.717590	2775.949951	1148.199951	20.099934
742.870850	739.609314	2746.971436	1143.370239	20.114006
743.190063	746.890930	2724.532227	1134.379639	19.593477
743.509338	753.355286	2682.254150	1130.515869	19.553154
743.828552	754.989990	2633.139893	1138.466187	20.417763
744.147705	751.423523	2604.236084	1138.912109	20.913534
744.466797	750.160339	2585.808838	1127.543823	20.558592
744.785828	747.039551	2563.146729	1110.602783	20.018820
745.104858	743.250183	2546.948486	1106.218872	20.123581
745.423706	746.296570	2537.660889	1103.915527	19.963497
745.742615	738.940613	2530.082031	1099.903198	20.152658
746.061401	739.832214	2526.292725	1093.884644	19.818655
746.380249	731.807434	2508.459961	1096.411011	20.521940
746.698975	740.129395	2505.636475	1103.618286	20.588356
747.017639	746.519470	2502.813232	1105.475830	20.438288
747.336304	744.736145	2494.193604	1104.955811	20.590364
747.654907	743.770264	2494.119385	1102.578125	20.499216
747.973389	734.705322	2472.348877	1102.503784	21.166508
748.291931	735.374084	2477.029785	1099.754517	20.921495
748.610352	730.915955	2465.884521	1084.968262	20.406843
748.928711	734.185242	2478.441650	1084.893921	20.106487
749.247070	742.729980	2487.655029	1079.767090	19.315277
749.565308	743.027161	2498.948975	1089.723633	19.744413
749.883545	738.494690	2495.085205	1085.488525	19.753826
750.201782	738.866211	2497.165771	1090.243896	19.983950
750.519836	743.993164	2482.379639	1092.844482	20.067535
750.837952	746.370789	2465.810059	1093.513184	20.189280
751.155884	740.278015	2435.123047	1089.723755	20.618155
751.473877	741.392578	2416.918945	1087.791870	20.674057
751.791809	749.045715	2411.420654	1081.921875	20.024132
752.109619	748.451355	2391.656006	1084.225220	20.434088
752.427490	743.844543	2393.290771	1077.612305	20.235140
752.745300	738.494690	2395.668213	1081.996216	20.728155
753.062988	744.661926	2395.371094	1075.680420	20.053108
753.380615	742.804382	2385.860107	1067.358521	19.753082
753.698303	746.222229	2381.030518	1059.928345	19.189167
754.015808	745.776367	2383.854248	1062.826172	19.354990
754.333374	748.525635	2389.129639	1068.993286	19.533516
754.650757	747.188171	2371.742676	1073.079956	20.060379
754.968262	746.668030	2365.278320	1074.268799	20.239632
755.285583	745.702148	2345.588135	1072.188232	20.406834
755.602905	743.695984	2337.712158	1069.290405	20.426043
755.920105	740.575195	2338.083740	1068.547485	20.530237
756.237305	737.900330	2330.504639	1066.318481	20.621454
756.554443	740.798096	2327.458496	1064.683716	20.413040
756.871582	736.934387	2311.260498	1058.962402	20.454975
757.188599	737.900330	2323.594971	1066.912720	20.748787
757.505615	732.104736	2325.155273	1064.609375	20.872196
757.822510	731.510254	2351.978516	1067.655762	20.743727
758.139465	737.157288	2356.659424	1065.798218	20.292713
758.456238	741.987000	2377.018311	1075.531860	20.399908
758.773010	750.606140	2385.265869	1093.661743	20.986362
759.089783	752.983826	2386.380615	1100.571899	21.280077
759.406433	748.302673	2388.609619	1108.225098	21.942383
759.723145	744.736145	2389.129639	1095.222046	21.313992
760.039673	741.392578	2407.110840	1099.457397	21.496120
760.356201	737.008728	2414.095459	1097.599731	21.501036
760.672668	736.042725	2419.891113	1103.692505	21.833900
760.989136	735.002502	2423.160400	1098.268433	21.518480
761.305481	741.541199	2422.640381	1101.983643	21.440880
761.621826	741.689758	2421.600098	1099.308838	21.287985
761.938049	744.216003	2420.708252	1104.138428	21.468781
762.254333	745.107666	2436.163330	1105.178711	21.292679
762.570496	745.107666	2473.909180	1125.240356	21.988220
762.886597	741.392578	2542.119141	1149.685913	22.673811
763.202637	738.346130	2652.012695	1181.264648	23.145021
763.518677	737.751709	2790.141357	1208.533813	22.938242
763.834656	738.048889	2935.774658	1230.378784	22.401789
764.150574	738.420410	3054.659180	1262.551880	22.628559
764.466370	741.318176	3124.949951	1277.040894	22.475061
764.782288	743.250183	3158.385986	1281.499023	22.286484
765.097961	746.667969	3161.358154	1261.437378	21.318239
765.413696	742.729980	3117.965088	1247.617065	21.256300
765.729309	747.559631	3033.037109	1222.725586	20.790665
766.044861	749.565857	2916.753174	1200.806274	20.821478
766.360474	750.457520	2803.739014	1172.422607	20.550766
766.675903	741.318298	2690.873047	1152.583862	21.095360
766.991394	739.237793	2578.675781	1128.732666	21.174667
767.306763	743.993164	2472.645996	1103.246826	20.782291
767.622131	742.655701	2386.529053	1082.887817	20.696980
767.937378	733.367859	2319.285156	1066.318359	20.994192
768.252625	733.888000	2267.273193	1062.083130	21.403305
768.567810	735.596924	2220.090820	1054.801392	21.502579
768.882996	744.438965	2176.401123	1044.101929	20.926737
769.197998	739.089172	2141.850342	1036.374390	21.192860
769.513062	746.965271	2113.466797	1033.625244	20.977655
769.828064	745.627747	2083.968506	1032.584961	21.441265
770.142944	749.417236	2050.532227	1022.405457	20.981098
770.457825	743.398682	2027.721191	1012.226013	20.931450
770.772705	745.627747	2010.111450	1008.956604	20.825010
771.087402	737.751709	1994.582397	1005.687317	21.318354
771.402100	741.912598	1972.068726	1003.309570	21.249088
771.716736	746.668030	1954.013062	999.148682	20.912056
772.031372	755.287109	1946.434082	997.142517	20.304413
772.345947	749.120056	1922.137207	996.325195	21.074301
772.660461	743.472961	1904.824585	992.164246	21.413954
772.974854	740.352234	1884.168457	986.517273	21.521381
773.289246	744.661865	1878.595703	979.830078	20.739147
773.603638	750.680359	1867.450317	975.297546	20.113110
773.917908	748.525635	1846.794312	974.257324	20.553411
774.232178	745.553528	1845.976929	968.090149	20.222818
774.546265	741.392517	1838.323608	964.969421	20.382036
774.860474	741.838379	1830.893433	963.557617	20.358864
775.174561	739.832214	1805.258789	970.542175	21.654236
775.488586	738.271790	1783.859741	971.730957	22.328030
775.802551	739.534973	1774.200195	966.826904	21.967678
776.116516	741.392578	1767.290161	961.923035	21.496342
776.430359	740.798157	1757.556641	953.824036	20.951473
776.744202	738.569031	1753.395630	952.263672	21.057257
777.057922	741.987000	1744.404907	949.737366	20.724926
777.371704	736.711487	1737.717773	955.310059	21.837881
777.685303	741.318176	1731.327759	947.359680	20.812071
777.998962	733.293640	1720.256470	938.591980	20.801020
778.312500	735.374023	1729.544434	932.201904	19.798204
778.626038	728.835449	1714.683960	929.006897	20.304483
778.939453	734.185242	1722.708618	938.146179	20.632889
779.252869	738.420410	1718.621948	939.557922	20.520016
779.566223	737.008606	1723.748657	946.319397	21.212355
779.879578	737.900330	1704.578735	936.957275	20.591848
780.192749	738.494690	1697.148438	939.855042	21.004492
780.505920	743.027161	1706.882202	944.610535	20.914284
780.819031	744.810486	1701.903809	940.449524	20.440958
781.132141	750.977600	1703.910034	937.328796	19.555552
781.445190	753.281006	1690.906860	933.390808	19.209133
781.758118	748.376953	1699.303223	945.799316	20.761059
782.071045	744.141663	1682.882446	944.981934	21.394646
782.383911	742.284119	1663.712280	939.334961	21.385372
782.696838	749.268616	1644.244751	932.424866	20.464931
783.009583	741.020996	1622.028320	924.103027	20.780989
783.322266	739.386414	1610.065796	919.421875	20.677584
783.634888	734.036621	1595.502319	917.861511	21.338619
783.947510	735.076843	1600.852173	928.041016	22.288019
784.260132	737.008606	1601.595215	929.527100	22.267115
784.572571	735.819824	1600.406372	930.344421	22.499147
784.885010	739.386414	1584.802734	926.926453	22.183159
785.197449	737.974670	1576.183594	924.251526	22.223202
785.509766	733.219238	1566.821411	917.415710	22.096449
785.822083	735.745544	1563.329102	919.050354	22.149403
786.134277	735.374023	1552.852539	926.109070	23.332117
786.446533	747.336731	1555.453125	929.898621	22.591040
786.758606	743.844543	1555.676147	931.310242	23.091698
787.070740	749.565857	1559.168335	930.344299	22.329285
787.382690	748.599915	1566.004028	937.774658	23.143356
787.694641	748.154114	1577.075195	933.836609	22.400503
788.006653	745.404968	1606.127563	932.201965	21.702347
788.318481	737.677429	1624.108887	935.396973	22.305113
788.630310	735.819824	1647.365723	948.771484	23.361595
788.942017	740.575195	1654.350098	958.282288	23.825024
789.253784	742.878601	1668.467651	959.545471	23.408539
789.565430	746.445129	1668.541992	952.040833	22.296541
789.877014	743.175842	1665.495483	951.223389	22.556990
790.188538	741.838379	1657.545044	946.765320	22.379103
790.500061	740.278015	1653.458496	939.037842	21.765667
790.811462	736.860046	1637.334839	940.003845	22.559631
791.122925	737.825989	1614.078125	935.471191	22.555746
791.434204	732.476257	1584.876953	932.053284	23.413523
791.745483	735.671204	1563.923706	924.994568	22.858170
792.056702	738.866211	1537.843384	919.198975	22.570452
792.367920	745.924988	1529.075684	916.895691	21.831137
792.678955	750.085938	1512.060547	905.973145	20.458321
792.990112	747.633972	1509.831421	904.932861	20.637550
793.301086	745.627869	1497.348511	909.465332	21.794992
793.612122	735.076843	1487.911987	910.802734	23.341883
793.922974	737.677429	1485.311401	904.338379	22.291784
794.233826	742.135559	1478.624146	896.610840	20.974566
794.544556	743.398743	1482.265015	894.307434	20.424358
794.855286	748.377014	1478.549927	893.787415	19.914516
795.166016	746.816711	1485.757446	898.468506	20.522863
795.476624	750.011719	1497.422852	907.533447	21.075647
795.787292	741.392578	1505.224609	918.604492	23.200377
796.097778	738.717590	1506.339233	918.604492	23.434319
796.408264	743.844543	1503.738647	914.815125	22.499264
796.718689	749.714539	1508.196655	911.248535	21.297009
797.029053	745.553467	1523.057251	916.449768	21.980125
797.339355	740.129395	1528.332642	917.638672	22.520750
797.649658	738.643311	1537.769165	918.530273	22.510468
797.959839	743.398682	1522.611328	912.288818	21.674461
798.270020	746.370789	1515.255249	915.186707	21.955954
798.580078	747.262451	1494.673462	910.802734	21.880903
798.890137	750.234558	1476.469360	913.329041	22.457542
799.200195	743.993164	1459.974121	911.322815	23.370684
799.510071	739.980774	1455.590210	913.403320	24.234245
799.820007	735.076843	1456.853394	900.994812	22.987442
800.129883	734.036621	1459.825562	894.233215	22.072063
800.439575	735.225403	1448.828735	894.084656	22.261562
800.749329	734.928223	1441.844360	894.901917	22.629799
801.058960	741.615479	1426.166382	893.415955	22.175192
801.368591	741.615479	1412.568970	883.162109	21.096340
801.678162	740.946777	1399.417358	886.728699	22.139473
801.987671	735.374023	1392.581665	885.762695	22.882977
802.297119	728.686829	1382.996582	888.586182	24.437868
802.606506	727.720886	1383.888306	875.063171	22.454983
802.915894	735.671204	1378.018188	865.106628	20.150391
803.225159	739.089172	1381.807617	867.187012	19.930630
803.534424	742.878601	1375.046265	874.691650	20.850964
803.843628	740.500977	1372.222656	873.056946	20.983286
804.152771	743.398743	1373.857056	863.694824	19.080736
804.461792	746.296570	1377.423828	865.329529	18.860374
804.770874	744.438965	1381.064575	876.252014	20.704956
805.079773	748.228333	1382.104980	881.973328	21.099531
805.388733	745.330566	1389.683716	885.539856	21.759697
805.697571	749.640137	1395.627930	893.787415	22.314241
806.006470	749.045715	1402.166626	900.474792	23.185459
806.315125	751.051941	1404.990234	902.257996	23.122374
806.623901	753.429504	1406.921997	898.542786	22.205807
806.932495	752.463623	1397.931274	894.827698	22.055958
807.241150	752.835144	1392.804565	897.056824	22.535715
807.549622	750.085938	1391.095581	899.137268	23.252588
807.858154	748.748535	1397.262695	891.038269	21.940884
808.166565	742.729980	1397.857056	881.453308	21.175026
808.474915	741.912659	1388.643555	873.428528	20.335485
808.783264	742.878662	1379.801758	881.453125	21.756859
809.091492	750.234558	1367.095825	883.830811	21.657423
809.399719	744.587585	1364.718018	879.224060	21.710993
809.707825	734.928223	1353.869751	872.982666	22.304924
810.015930	733.962341	1343.244507	872.388245	22.719507
810.323975	742.729980	1343.690430	876.772156	22.304659
810.632080	746.445129	1348.520142	874.914551	21.337776
810.939880	742.655762	1348.074219	873.279968	21.575855
811.247864	739.757874	1337.300415	870.976501	21.959713
811.555664	739.534973	1324.668945	878.555359	23.758728
811.863464	737.008606	1313.003418	873.651367	23.722916
812.171143	733.590820	1297.399780	869.639099	24.130209
812.478882	738.866211	1286.403076	862.728943	22.621807
812.786438	740.872375	1289.300781	865.924011	22.801815
813.094055	741.764099	1292.198730	868.450195	23.015648
813.401489	742.952881	1296.210938	870.827942	23.113094
813.708984	748.599915	1286.997437	865.775330	21.763737
814.016357	754.767090	1277.115234	868.227295	21.721184
814.323730	752.760925	1272.434082	864.586426	21.518429
814.630981	746.147949	1268.941895	864.809326	22.697542
814.938232	741.169617	1280.755981	857.527649	21.564302
815.245361	744.661865	1280.161621	857.824890	21.132227
815.552490	747.485352	1284.545410	861.242859	21.181524
815.859619	742.507080	1277.709595	860.425537	22.032494
816.166565	738.791931	1277.635254	861.614319	22.793711
816.473572	737.603027	1280.533081	861.762939	22.868492
816.780457	747.411072	1286.848877	862.803162	21.391176
817.087341	749.565857	1286.848755	865.403748	21.559944
817.394043	752.537903	1291.381348	870.233398	21.842243
817.700806	746.965271	1296.285278	878.035217	23.860399
818.007507	747.633972	1308.693726	879.595642	23.520075
818.314209	743.695984	1315.009521	874.840271	22.954872
818.620667	738.494690	1323.925781	876.177673	23.518223
818.927246	736.042725	1337.894775	877.515137	23.506178
819.233704	740.129395	1353.572632	886.505798	23.861443
819.540161	744.959045	1384.036743	893.044434	23.171734
819.846497	748.748535	1414.277954	897.948425	22.418226
820.152832	737.900330	1462.129028	908.573730	23.566231
820.458984	735.522644	1511.688965	924.846008	24.392113
820.765259	733.888000	1582.573730	944.090515	24.768003
821.071350	741.689758	1667.947632	965.266785	24.137665
821.377502	743.250061	1819.970703	1002.492371	24.077024
821.683472	738.866211	2095.039307	1083.482300	25.410923
821.989441	740.575195	2579.196045	1225.251831	26.360880
822.295349	738.420471	3241.233398	1411.974609	26.911884
822.601196	741.541199	4001.201416	1613.186401	26.740370
822.907043	736.711426	4655.140137	1786.534668	26.791945
823.212769	740.649597	5048.498047	1885.877319	26.584681
823.518494	750.829041	5123.841309	1896.874146	26.207226
823.824097	759.670959	4939.273438	1819.227905	25.350662
824.129700	757.813477	4622.966797	1713.495117	24.725582
824.435242	744.141785	4282.214355	1600.332031	24.199341
824.740723	739.312073	3978.018799	1508.493774	23.749655
825.046082	743.621582	3692.102295	1424.828979	23.103674
825.351501	742.507141	3395.337158	1351.269165	22.947645
825.656799	743.027161	3073.160400	1287.740356	23.376911
825.962036	737.083008	2781.076416	1225.474731	23.893997
826.267212	735.225403	2548.731934	1181.413208	24.603594
826.572449	733.590820	2416.770264	1148.125610	24.628080
826.877502	738.123230	2395.296875	1146.193726	24.624487
827.182495	748.228333	2481.265137	1170.936523	24.391182
827.487488	747.485352	2621.400146	1208.385132	24.595556
827.792419	746.742371	2717.176270	1240.558228	25.061275
828.097290	736.117004	2739.169922	1245.982300	25.454409
828.402100	734.259460	2680.173340	1231.790405	25.567984
828.706848	734.928223	2582.167969	1199.171631	25.131735
829.011597	742.730042	2425.538086	1156.298950	24.576118
829.316223	747.559753	2261.997803	1109.265259	23.883810
829.620789	744.587585	2123.274658	1068.175903	23.470760
829.925354	748.228333	2015.461426	1038.454834	22.902376
830.229797	745.999329	1905.047485	1010.814209	22.847618
830.534302	741.689758	1773.977539	987.928955	23.853735
830.838562	731.956055	1650.486450	955.458679	24.332632
831.142944	729.355469	1544.084961	931.013123	24.751486
831.447144	734.705322	1454.401367	909.465332	24.282475
831.751404	745.033447	1396.296753	901.217590	23.981720
832.055542	756.178772	1363.826538	892.227051	22.389332
832.359619	759.299500	1362.043213	879.075500	19.871796
832.663635	749.342957	1369.250610	881.230286	21.275318
832.967651	748.599915	1400.160522	891.855530	21.986538
833.271545	741.912598	1459.528320	914.517883	24.052607
833.575439	746.816650	1558.648071	932.350586	22.853752
833.879211	735.299744	1673.891602	965.192383	24.493355
834.183044	746.742371	1781.407715	998.851563	24.366257
834.486694	745.181946	1869.382202	1021.885315	24.613354
834.790344	753.355286	1918.942017	1029.612915	23.701166
835.093933	749.640137	1930.235962	1026.269165	23.431307
835.397522	751.720642	1880.304688	1023.594238	24.089798
835.700928	755.955872	1809.939941	1007.767761	23.891430
836.004395	756.773254	1742.918945	987.557434	23.402645
836.307739	756.476074	1684.888306	954.567078	21.336535
836.611023	752.315125	1624.406128	935.174011	20.967867
836.914307	745.702148	1551.143555	910.579773	20.470469
837.217529	742.284180	1477.732544	901.589172	21.660934
837.520691	740.203674	1403.355469	891.261230	22.778730
837.823730	738.271790	1344.359009	876.995117	22.888344
838.126831	736.860046	1291.009644	872.239685	24.430161
838.429749	733.219238	1254.155640	854.555603	23.291973
838.732727	734.185242	1218.044556	852.623718	24.477875
839.035522	731.881836	1210.242798	842.444275	23.112764
839.338379	747.856934	1198.279907	840.512390	20.570766
839.641113	750.383240	1192.781494	841.032471	20.490414
839.943848	749.045715	1195.456421	854.109802	23.535297
840.246460	732.253357	1215.295288	857.527649	25.934456
840.549072	726.606262	1244.421875	867.707214	27.249266
840.851563	736.637207	1253.115356	854.852844	22.888798
841.154053	738.643372	1260.842773	869.787659	25.113832
841.456482	745.181946	1255.641724	866.815613	23.828257
841.758850	742.878601	1239.592285	874.320129	26.462233
842.061157	740.055115	1212.100342	856.338867	24.634027
842.363403	742.358459	1180.447388	845.193542	23.473564
842.665588	744.438965	1166.701416	827.806641	19.743095
842.967712	752.537903	1154.515747	827.435120	18.632175
843.269775	747.931152	1138.912109	827.435120	20.334486
843.571777	748.525574	1114.095093	828.921082	21.991852
843.873840	745.850769	1091.581299	822.085266	22.050264
844.175659	750.903320	1074.417358	817.404236	20.555805
844.477600	754.618408	1063.717773	814.506409	19.375000
844.779297	753.578186	1042.244263	807.967773	18.841698
845.081116	746.742371	1033.402222	806.407471	20.813902
845.382751	741.689758	1028.201050	800.463196	20.513481
845.684387	736.117126	1024.411499	801.726379	22.757729
845.985962	736.711487	1020.027649	800.314697	22.449553
846.287537	738.123230	1004.424133	803.212463	24.441988
846.588989	747.856873	1010.962830	802.543762	20.785120
846.890381	750.160339	1009.328125	796.153625	17.746529
847.191711	749.937317	1012.374573	805.664368	21.234428
847.493042	737.826111	997.662598	802.469421	24.878458
847.794250	735.819824	991.941223	808.042053	28.198437
848.095459	733.367859	982.653503	798.159851	25.991064
848.396606	735.299744	982.802063	793.032959	23.326334
848.697693	739.089172	980.201477	784.116638	18.674892
848.998657	736.934326	984.213867	775.423157	15.564907
849.299622	742.432800	986.294250	782.184753	16.301041
849.600464	738.346130	981.687500	793.478760	22.656496
849.901367	739.534973	968.610291	792.884338	23.289007
850.202087	735.596924	964.077820	786.122803	22.113831
850.502808	733.219238	965.415283	773.937195	17.536024
850.803467	734.259583	976.040527	782.259033	19.852453
851.104065	739.163574	979.458496	791.844055	21.923260
851.404663	747.485352	981.018799	794.890564	20.299110
851.705139	749.640137	970.542175	794.964844	20.518013
852.005615	750.829041	965.861023	786.122803	16.413261
852.306030	748.822815	966.232605	790.580994	19.207129
852.606384	740.946777	972.176758	781.367432	17.480715
852.906616	733.293518	968.461609	781.218811	20.379166
853.206909	726.606262	962.591736	774.531555	20.308578
853.506958	730.247070	964.152100	782.779114	22.458706
853.807129	738.494812	965.043701	782.184753	19.284994
854.107178	745.033386	965.935364	781.218750	16.380733
854.407166	747.262451	955.904480	774.457214	13.034173
854.707092	742.432800	957.167542	779.212646	17.128036
855.007019	742.507141	944.759033	784.636719	20.830252
855.306763	746.519470	950.257507	784.710938	18.745378
855.606567	749.640137	947.136719	785.231140	18.021072
855.906250	745.702148	954.046875	783.596497	18.188292
856.205933	733.887939	948.697083	791.323975	26.738171
856.505493	736.711426	947.954102	789.689270	25.079140
856.805054	742.507019	947.805481	793.850281	25.009083
857.104492	748.971436	948.994324	785.156799	18.090612
857.403931	741.095276	948.622864	780.772949	19.119228
857.703308	736.340027	948.994324	780.029968	20.545055
858.002563	737.380188	953.972656	782.704895	20.926262
858.301819	742.804260	957.687805	787.534607	20.816088
858.601013	744.290344	953.526855	787.608887	20.703148
858.900208	737.454529	957.390625	791.546936	24.594603
859.199219	742.135559	952.115051	785.231201	20.523739
859.498291	739.757874	958.133606	784.488098	20.483149
859.797302	750.531738	947.285339	778.766785	14.350460
860.096191	746.742371	947.136719	782.481934	17.834616
860.395020	750.829041	941.638367	781.961853	16.316191
860.693787	752.092102	938.740540	783.150696	16.640158
860.992554	748.599915	930.715820	783.224915	19.012617
861.291260	743.027161	931.161682	783.076416	21.287563
861.589844	731.658936	932.350586	790.729492	29.433491
861.888428	730.470032	934.505371	795.559265	31.900961
862.186890	741.169678	938.889221	795.262024	27.358118
862.485413	745.776428	938.294861	791.472595	23.735996
862.783813	748.154114	947.508301	790.803894	21.393972
863.082153	745.702148	944.833435	785.751282	20.111923
863.380371	746.519470	948.920105	783.224915	18.135044
863.678589	748.599915	951.966492	787.980286	19.364229
863.976746	752.909485	949.143005	788.500488	18.137066
864.274902	758.259277	950.108887	792.587158	17.893120
864.572937	758.779358	952.189453	784.190918	13.138694
864.870911	750.085999	955.755920	798.234192	23.410419
865.168884	747.113953	955.830261	802.097900	26.343868
865.466736	748.674255	953.824036	801.726379	25.860191
865.764587	747.485352	950.777588	793.998840	22.880110
866.062317	742.581482	946.988098	783.447937	19.992725
866.360107	735.968506	943.421631	785.082520	23.674753
866.657715	733.293640	945.502136	785.082520	24.404715
866.955322	740.798157	950.108887	790.135071	23.571135
867.252808	741.466858	950.851868	788.351868	22.391769
867.550293	743.770264	947.731201	786.940125	21.165749
867.847717	742.284180	946.096497	786.940125	21.910326
868.145081	743.027161	940.969666	792.958679	25.225264
868.442383	747.708252	945.204895	787.831726	20.316029
868.739624	740.723816	942.158508	788.203308	23.570663
869.036804	739.386292	934.802551	784.413818	23.041853
869.333984	734.779602	934.356689	793.775940	29.560677
869.631042	738.643372	936.511536	799.943115	30.980095
869.928101	743.175842	942.158508	802.023621	29.574324
870.224976	744.438965	942.901550	799.571594	27.779861
870.521851	754.321228	949.588684	796.376648	21.537342
870.818726	747.633972	955.161438	796.599426	23.594687
871.115479	748.599854	959.099548	796.302307	22.661531
871.412231	743.398682	951.817871	794.519043	24.527666
871.708862	741.243958	951.446350	789.912292	23.153084
872.005493	741.243958	946.542297	787.906067	22.728928
872.302063	738.866272	951.743591	795.262024	26.492138
872.598572	744.364685	958.950928	793.107239	22.714668
872.895020	741.912598	960.882751	791.918396	22.836811
873.191406	739.980774	961.848633	783.745117	19.725409
873.487671	744.513184	961.848633	794.073242	22.803486
873.783997	748.822815	964.597839	790.878235	19.490402
874.080200	752.240723	974.182922	789.615051	16.839668
874.376343	748.525574	976.040527	787.088684	16.949703
874.672424	753.280945	978.715393	789.392090	16.018469
874.968445	750.977600	979.681335	794.073242	18.843435
875.264465	753.132385	969.947754	789.020569	16.552418
875.560364	749.120056	971.508118	796.525146	21.316383
875.856201	747.931152	964.746521	792.067078	20.356457
876.152039	745.776367	965.861084	796.525208	23.058775
876.447754	740.278015	971.656677	795.707825	23.956318
876.743469	739.683594	977.972412	799.720154	25.194870
877.039063	735.745605	981.390320	795.187744	24.198420
877.334595	733.590759	972.028137	790.506653	23.870375
877.630127	734.333740	970.096375	788.723389	23.069664
877.925537	738.346191	980.201477	794.741882	23.317949
878.221008	742.804260	992.758606	799.720215	22.770540
878.516296	744.810486	992.981506	805.292908	24.371267
878.811646	738.346191	990.826721	801.577698	25.044111
879.106812	738.271912	998.257080	797.119568	22.635006
879.401978	745.776428	1012.300293	796.153625	18.901571
879.697083	756.921875	1037.265991	800.017395	15.372365
879.992126	756.996094	1055.321533	810.271179	17.858044
880.287109	750.457520	1088.609009	815.843933	19.336426
880.582031	745.850769	1140.398193	843.558838	24.764595
880.876892	743.695984	1252.149536	878.926941	26.596521
881.171753	735.596985	1447.342651	932.573486	27.675125
881.466492	738.717590	1735.860229	1005.464539	26.751133
881.761230	738.643311	2090.432617	1097.674194	26.559677
882.055786	749.863037	2436.609131	1200.806274	26.734507
882.350403	747.039551	2701.201172	1271.542480	26.840305
882.644958	752.240723	2833.906006	1294.576294	26.052967
882.939453	741.689758	2834.648682	1273.697144	25.418911
883.233826	754.172668	2744.742432	1241.969971	24.505411
883.528137	753.503906	2624.594971	1204.521362	24.104517
883.822449	757.516296	2500.657959	1175.394653	23.972713
884.116577	745.999329	2392.547607	1142.032837	24.052347
884.410828	745.702148	2276.115234	1115.060913	24.134579
884.704956	744.513184	2133.379639	1073.674316	23.699984
884.999023	744.438904	1956.019165	1017.129944	22.507053
885.292969	740.129395	1762.980835	964.597961	21.945374
885.586914	738.346191	1600.480835	929.452698	22.166666
885.880798	734.408020	1469.633423	905.155762	23.223864
886.174622	737.157227	1369.919312	878.481140	22.334448
886.468384	737.974609	1289.300781	856.636169	21.522932
886.762085	737.008606	1230.898804	840.512390	20.956841
887.055664	735.374023	1179.035522	837.317383	22.977734
887.349304	737.974609	1150.280396	826.394958	21.445333
887.642822	742.135559	1120.484985	821.416687	20.954473
887.936340	743.473083	1100.274780	816.884094	20.574738
888.229736	747.559631	1071.891113	805.441467	17.846506
888.523071	744.513245	1062.306030	800.463196	17.605797
888.816284	744.513245	1061.488647	800.983398	17.815311
889.109619	737.900330	1059.111084	813.912048	23.664125
889.402710	738.717712	1043.953247	818.147278	26.022385
889.695862	739.312073	1015.123718	813.094666	26.751080
889.988892	739.312073	987.854675	805.070007	26.457409
890.281921	736.488525	966.975464	798.011230	26.692492
>>>>>End Processed Spectral Data<<<<<
