Jaz Data File
++++++++++++++++++++++++++++++++++++
Date: Fri Jun 04 16:09:29 2021
User: jaz
Dark Spectrum Present: Yes
Reference Spectrum Present: Yes
Processed Spectrum Present: Yes
Spectrometers: JAZA3586
Integration Time (usec): 33500 (JAZA3586)
Spectra Averaged: 10 (JAZA3586)
Boxcar Smoothing: 1 (JAZA3586)
Correct for Electrical Dark: No (JAZA3586)
Strobe/Lamp Enabled: Yes (JAZA3586)
Correct for Detector Non-linearity: No (JAZA3586)
Correct for Stray Light: No (JAZA3586)
Number of Pixels in Processed Spectrum: 2048
>>>>>Begin Processed Spectral Data<<<<<
W	D	R	S	P
191.335022	0.000000	0.000000	0.000000	0.000000
191.713211	343.427155	341.792572	334.882324	522.753052
192.091385	684.030823	687.671692	673.925659	-277.548126
192.469528	1030.727417	1035.779907	1024.114380	-130.886688
192.847641	1039.866577	1050.417603	1035.631348	-40.140453
193.225739	1060.745605	1062.231689	1053.092407	-514.990967
193.603790	1066.318359	1074.194458	1055.618774	-135.848801
193.981842	1072.485474	1075.606201	1059.854004	-404.760406
194.359863	1070.479370	1071.445313	1063.346191	-738.468323
194.737854	1075.234619	1068.770264	1062.603149	195.401840
195.115829	1072.708374	1068.621704	1066.615479	149.091934
195.493774	1072.931274	1069.661987	1065.946777	213.639755
195.871704	1075.457642	1070.850952	1072.485474	64.518524
196.249603	1074.120117	1066.764160	1076.720825	-35.355129
196.627457	1074.788940	1071.370972	1073.079956	50.000000
197.005310	1076.497803	1067.953003	1070.776489	66.956673
197.383133	1086.826050	1072.559814	1070.033569	117.707863
197.760910	1090.986816	1074.343140	1072.188354	112.946571
198.138687	1086.008545	1084.745483	1067.730103	1447.153809
198.516449	1084.745239	1086.751587	1064.906616	-988.792908
198.894180	1080.955933	1086.900269	1053.241089	-466.239532
199.271866	1083.779419	1085.191284	1052.200806	-2236.659180
199.649536	1076.051880	1079.024048	1050.343262	-864.978638
200.027191	1073.971558	1076.646484	1054.058228	-744.443909
200.404816	1073.897339	1070.776489	1055.321533	595.216309
200.782410	1070.776489	1086.751465	1058.293579	-78.140404
201.159988	1066.541138	1100.126099	1067.507202	2.876479
201.537537	1067.729980	1109.636841	1078.801147	26.418507
201.915070	1074.491577	1104.138306	1083.259399	29.574333
202.292557	1071.668213	1100.126099	1087.791870	56.657959
202.670029	1067.953003	1100.200317	1083.259277	47.465267
203.047485	1059.631226	1104.584229	1087.420288	61.818035
203.424911	1058.665161	1102.801025	1082.813599	54.713867
203.802292	1056.733276	1100.869141	1085.117065	64.310036
204.179688	1056.881836	1098.565674	1079.321411	53.832794
204.557037	1057.550659	1103.766846	1079.098389	46.623772
204.934357	1058.145020	1107.184814	1077.240845	38.939449
205.311661	1058.665161	1103.692505	1077.166626	41.089397
205.688934	1055.247192	1099.085815	1075.086060	45.254311
206.066177	1052.052246	1093.661743	1074.417358	53.750019
206.443390	1047.445435	1095.222046	1068.027222	43.079212
206.820587	1056.361816	1095.073486	1063.643433	18.809874
207.197769	1059.928345	1098.194336	1059.705444	-0.582503
207.574921	1066.169800	1103.692505	1059.705444	-17.227850
207.952042	1063.420532	1104.584351	1069.364868	14.440681
208.329147	1056.436035	1103.395386	1079.395630	48.892487
208.706223	1063.123413	1103.692627	1097.674194	85.165024
209.083267	1054.578613	1103.246826	1100.200317	93.740250
209.460297	1054.949951	1099.160156	1097.748413	96.806747
209.837280	1043.284424	1088.163330	1085.488403	94.039680
210.214264	1052.720947	1086.082886	1082.813599	90.200546
210.591217	1056.138916	1094.181885	1081.996216	67.968666
210.968124	1055.692993	1100.869263	1084.002319	62.664150
211.345016	1052.572388	1105.178711	1080.212891	52.542168
211.721893	1052.720947	1099.160278	1073.154175	43.999832
212.098724	1050.714844	1098.342896	1072.634155	46.021851
212.475555	1046.182373	1094.404785	1069.736206	48.844162
212.852356	1044.399048	1095.816528	1072.931274	55.491295
213.229126	1048.560059	1094.256226	1065.798218	37.723423
213.605865	1058.367920	1096.559570	1069.439087	28.988449
213.982590	1062.974731	1090.838257	1066.169800	11.466849
214.359283	1061.265747	1091.952759	1067.507202	20.339077
214.735931	1055.544434	1087.346069	1065.501099	31.308657
215.112579	1056.807617	1095.370728	1070.850830	36.416183
215.489197	1064.460815	1086.677246	1067.878784	15.384869
215.865799	1063.940552	1086.603027	1064.089233	0.656070
216.242355	1061.339966	1088.906372	1063.420532	7.547471
216.618896	1057.624878	1097.674194	1067.581543	24.861012
216.995407	1060.522705	1098.045776	1075.903442	40.990082
217.371902	1057.476318	1099.234497	1077.835327	48.754543
217.748367	1058.739502	1094.627686	1074.120239	42.857388
218.124802	1056.287476	1087.940430	1069.364868	41.314919
218.501236	1058.590942	1084.448120	1072.782715	54.885235
218.877609	1050.863403	1099.160156	1079.098511	58.461708
219.253983	1054.504272	1108.225098	1079.395630	46.334652
219.630295	1051.011963	1108.225098	1078.429810	47.922295
220.006592	1052.943848	1099.754517	1078.949829	55.555672
220.382889	1046.405273	1098.342773	1072.114014	49.499378
220.759140	1047.371216	1098.565674	1063.940674	32.365726
221.135391	1049.228638	1093.810303	1052.126587	6.500316
221.511581	1057.550659	1094.330444	1058.739502	3.232327
221.887772	1063.866333	1092.175659	1066.095459	7.874176
222.263931	1068.547485	1092.547241	1070.404907	7.739336
222.640060	1064.312134	1093.364624	1070.553589	21.483374
223.016159	1062.603149	1092.472900	1069.513428	23.134703
223.392212	1058.888062	1095.073364	1079.692871	57.495193
223.768265	1054.950073	1091.358398	1076.720825	59.796082
224.144302	1045.513550	1091.729858	1067.284302	47.106213
224.520294	1035.854248	1088.460571	1061.786011	49.294003
224.896286	1039.717896	1093.513184	1060.671387	38.950420
225.272217	1047.222412	1099.234497	1065.129517	34.428738
225.648148	1057.104614	1109.785400	1064.906616	14.809958
226.024048	1051.160645	1106.813354	1072.188354	37.783802
226.399902	1049.377319	1105.475830	1067.284302	31.920603
226.775772	1042.095703	1100.274780	1071.296631	50.191460
227.151581	1050.789063	1107.259155	1063.271973	22.105347
227.527374	1047.222534	1105.178711	1072.857056	44.230869
227.903137	1049.971802	1104.435669	1071.222290	39.017590
228.278870	1051.160522	1108.968140	1078.875488	47.943451
228.654572	1059.408203	1119.593384	1083.333618	39.753002
229.030273	1070.925171	1129.772827	1082.813477	20.201834
229.405930	1067.284302	1135.271362	1086.305664	27.977915
229.781555	1060.374146	1136.757324	1083.184937	29.863632
230.157181	1051.606323	1135.122681	1089.649292	45.551517
230.532761	1051.977783	1128.286743	1086.305786	44.985546
230.908325	1051.011841	1122.937012	1075.754761	34.400921
231.283859	1058.665161	1122.639771	1069.959106	17.653793
231.659332	1053.092407	1118.924683	1062.900391	14.898442
232.034821	1049.303101	1119.221802	1064.758057	22.104181
232.410263	1046.999634	1121.673828	1066.021118	25.472633
232.785690	1044.101807	1123.531494	1068.027344	30.121656
233.161087	1055.618774	1121.599487	1071.222412	23.648787
233.536469	1049.451660	1119.964966	1069.067505	27.818644
233.911804	1058.367920	1119.444702	1065.278198	11.314084
234.287140	1041.724243	1118.478882	1063.420532	28.267073
234.662430	1039.940918	1123.159912	1061.860107	26.339167
235.037704	1037.340332	1122.937012	1074.194458	43.055557
235.412933	1047.742798	1133.413696	1073.822876	30.442167
235.788162	1049.971680	1133.562378	1074.714478	29.599941
236.163345	1056.733276	1143.295898	1071.965332	17.596573
236.538513	1059.482544	1138.243286	1075.829102	20.754702
236.913635	1058.070679	1133.562378	1074.788940	22.145828
237.288742	1044.027466	1128.435425	1069.513306	30.193645
237.663834	1037.934814	1130.813110	1066.541382	30.800056
238.038879	1033.550903	1137.426147	1075.457642	40.343334
238.413910	1044.696411	1140.695435	1079.990112	36.764645
238.788910	1045.365112	1139.135010	1083.408081	40.570557
239.163879	1049.971680	1131.556030	1078.355347	34.790577
239.538834	1046.925293	1127.172241	1079.172729	40.185249
239.913757	1055.024292	1130.887329	1081.104614	34.378166
240.288651	1055.024414	1137.054565	1084.151001	35.507172
240.663528	1049.228638	1148.645874	1078.578247	29.521650
241.038361	1043.358765	1150.280396	1079.098389	33.425999
241.413177	1042.615845	1160.459839	1071.742432	24.716225
241.787979	1051.383545	1173.388550	1076.126343	20.280149
242.162735	1051.755005	1184.236816	1073.897217	16.713398
242.537476	1055.470093	1196.793945	1077.538086	15.615193
242.912170	1044.919067	1209.053833	1073.302856	17.292978
243.286865	1045.810791	1223.988647	1075.086060	16.430363
243.661514	1043.210205	1231.270386	1078.058228	18.530251
244.036148	1051.309204	1225.697754	1076.200562	14.273504
244.410751	1054.652710	1216.781372	1068.175903	8.341025
244.785339	1060.819946	1198.725830	1066.689941	4.256523
245.159882	1062.306030	1198.651489	1070.553711	6.049106
245.534378	1054.429932	1202.218018	1076.349365	14.831665
245.908890	1049.303101	1220.050659	1073.005737	13.881684
246.283356	1044.621948	1233.796753	1075.309082	16.221575
246.657791	1052.646606	1258.911011	1077.760986	12.175818
247.032196	1058.813721	1289.969604	1074.045898	6.589570
247.406586	1060.374146	1320.433716	1073.377197	5.000028
247.780960	1057.624878	1352.532349	1066.987183	3.174658
248.155289	1053.835571	1355.207275	1073.005493	6.360890
248.529602	1051.309204	1341.535522	1066.615601	5.273952
248.903870	1047.222534	1314.192261	1067.953003	7.765101
249.278122	1044.398926	1299.257324	1063.494751	7.492720
249.652344	1045.364868	1277.338135	1064.609253	8.295949
250.026550	1043.656128	1260.248413	1066.021118	10.325848
250.400711	1044.101929	1241.672729	1073.451416	14.855175
250.774857	1040.461060	1238.031860	1082.813599	21.436640
251.148987	1043.135864	1232.384888	1084.299561	21.751074
251.523071	1046.033691	1236.768799	1083.185059	19.477991
251.897125	1055.767334	1247.319824	1082.590576	14.003077
252.271164	1064.312134	1262.254639	1086.602905	11.261235
252.645187	1063.197632	1283.728149	1085.116943	9.939355
253.019165	1062.974731	1294.056152	1083.259399	8.778148
253.393112	1059.333862	1299.926147	1081.847534	9.357603
253.767044	1062.231689	1282.242065	1085.339844	10.503211
254.140930	1053.686890	1268.867554	1086.900146	15.435057
254.514801	1049.674561	1254.006958	1080.733032	15.199974
254.888657	1044.473267	1247.914185	1074.714478	14.864861
255.262466	1056.510376	1246.948242	1070.553589	7.374170
255.636276	1057.922119	1253.115356	1073.897217	8.184248
256.010010	1058.962280	1266.266968	1081.550415	10.896104
256.383759	1047.445435	1275.406250	1084.894043	16.427652
256.757446	1043.804565	1275.703369	1085.042603	17.782772
257.131134	1045.959351	1283.802368	1072.634155	11.215299
257.504791	1043.879028	1294.724976	1071.965332	11.196634
257.878418	1048.411499	1321.399536	1071.370972	8.410432
258.252014	1046.628052	1341.312744	1083.185059	12.405465
258.625580	1053.092407	1378.390015	1087.643188	10.621284
258.999115	1046.182251	1419.256348	1088.609131	11.372239
259.372650	1041.872681	1464.804077	1081.104492	9.276164
259.746124	1041.352661	1517.038696	1076.349121	7.357050
260.119598	1054.504272	1579.675781	1073.228516	3.565358
260.493042	1063.271973	1637.334595	1074.714478	1.993250
260.866425	1062.826050	1658.733887	1073.154175	1.733175
261.239838	1049.377319	1630.498901	1072.782715	4.027625
261.613159	1052.126465	1578.041016	1072.931274	3.955930
261.986511	1051.903442	1516.890015	1074.788940	4.921755
262.359802	1056.956177	1470.525024	1079.321411	5.407863
262.733063	1054.281250	1445.187866	1081.178833	6.880821
263.106293	1057.624878	1430.401733	1081.476196	6.398283
263.479523	1067.135742	1437.460449	1082.665039	4.193427
263.852692	1062.974731	1439.243652	1083.705200	5.509482
264.225861	1062.231812	1446.748413	1089.575073	7.111074
264.598969	1049.451782	1441.324219	1088.460571	9.954461
264.972076	1050.269165	1438.723633	1089.872192	10.195024
265.345154	1041.724243	1440.135376	1084.819702	10.816831
265.718201	1046.553833	1452.543945	1087.494629	10.084186
266.091217	1053.315308	1472.605591	1086.380005	7.885872
266.464203	1057.401978	1500.989258	1086.602905	6.582905
266.837158	1054.801392	1516.890015	1085.637085	6.673112
267.210114	1043.061523	1540.889771	1094.107544	10.253741
267.583038	1047.222534	1564.741089	1095.222168	9.274959
267.955902	1052.795166	1583.168091	1095.073486	7.971433
268.328766	1052.200806	1583.985352	1086.305786	6.413308
268.701569	1046.033691	1577.446777	1082.739258	6.907163
269.074371	1042.170044	1583.762329	1075.977661	6.242263
269.447144	1045.662231	1599.440430	1076.349243	5.541390
269.819885	1053.389648	1614.300903	1076.795044	4.172745
270.192596	1048.708496	1634.734009	1081.921997	5.667586
270.565277	1054.504150	1653.012573	1081.624634	4.531345
270.937927	1049.525879	1694.845093	1081.847656	5.008649
271.310577	1055.470093	1740.021118	1080.807373	3.701299
271.683136	1056.881836	1800.800781	1082.665039	3.465862
272.055725	1051.977905	1841.667358	1083.630859	4.008279
272.428284	1053.686890	1857.122192	1084.448242	3.828728
272.800812	1051.680786	1847.239868	1087.123169	4.455029
273.173279	1060.151245	1820.342407	1087.048950	3.538282
273.545776	1057.253418	1805.258911	1091.952759	4.638915
273.918152	1051.383423	1792.924683	1083.853882	4.378780
274.290558	1054.281250	1790.992798	1084.522461	4.104892
274.662964	1049.600220	1784.156860	1084.151001	4.703624
275.035278	1042.690186	1786.163086	1096.113647	7.185664
275.407593	1040.906860	1779.104492	1094.850586	7.307491
275.779907	1044.547607	1801.766724	1092.844360	6.378174
276.152161	1050.417480	1818.930664	1086.008667	4.631175
276.524384	1044.621948	1855.041870	1083.259277	4.767569
276.896606	1048.337036	1866.261353	1073.822998	3.115932
277.268799	1052.795288	1883.202515	1070.405151	2.120630
277.640930	1058.367920	1892.564453	1075.309082	2.030836
278.013031	1051.086304	1905.270142	1081.773315	3.592554
278.385162	1050.863403	1899.400391	1079.098389	3.327490
278.757233	1050.937622	1897.319946	1077.017944	3.081388
279.129272	1057.996460	1899.549194	1076.869263	2.242617
279.501282	1062.083130	1910.768921	1081.550415	2.293815
279.873230	1051.532104	1935.065796	1082.813599	3.540498
280.245178	1051.457764	1952.749878	1089.649292	4.237420
280.617126	1048.114136	2004.018555	1091.135498	4.500593
280.988983	1057.327759	2039.683960	1093.958984	3.728915
281.360870	1060.522705	2090.581299	1089.946777	2.856544
281.732697	1052.423706	2134.494141	1087.346069	3.227365
282.104492	1047.222534	2186.134521	1086.825928	3.477301
282.476288	1042.170044	2227.372803	1087.791870	3.849284
282.848053	1051.086304	2256.499268	1094.479126	3.599830
283.219757	1059.259644	2270.616943	1093.958984	2.864501
283.591461	1063.420532	2263.335205	1090.392456	2.247820
283.963135	1060.448364	2250.406494	1088.609253	2.366544
284.334747	1052.572388	2255.087402	1093.513184	3.404598
284.706360	1049.971802	2290.455566	1092.993042	3.468102
285.077942	1051.457886	2330.430420	1094.479126	3.363734
285.449524	1050.863281	2371.519775	1091.432617	3.071907
285.821014	1052.349487	2394.776611	1090.912598	2.872641
286.192535	1045.439331	2439.209717	1082.219238	2.638879
286.563995	1050.714844	2476.806885	1075.754883	1.755850
286.935425	1040.832520	2519.754150	1083.630859	2.893888
287.306824	1051.680786	2516.038818	1089.500854	2.582706
287.678223	1053.315430	2484.088623	1092.621460	2.747188
288.049561	1060.151367	2432.299561	1087.420288	1.987316
288.420898	1049.526001	2396.114258	1084.968262	2.632004
288.792145	1043.878906	2384.522705	1079.321289	2.643684
289.163452	1047.965576	2397.897461	1080.287231	2.394317
289.534668	1050.640503	2433.116943	1081.847656	2.257337
289.905914	1049.302979	2471.754150	1087.345947	2.674466
290.277039	1043.730347	2533.053955	1082.516235	2.604262
290.648193	1052.646606	2596.731445	1078.503906	1.674604
291.019318	1058.070801	2663.975586	1075.754761	1.101184
291.390381	1060.374146	2683.442871	1081.921875	1.327592
291.761475	1059.185425	2674.675049	1085.711426	1.641979
292.132507	1060.076904	2631.876709	1083.853882	1.512723
292.503510	1055.692993	2598.737549	1082.219116	1.719077
292.874481	1051.755005	2575.629639	1077.835327	1.711448
293.245422	1045.216431	2585.586182	1087.940430	2.773620
293.616364	1048.485840	2620.359619	1084.894043	2.316229
293.987213	1048.708618	2664.198486	1091.135376	2.626247
294.358093	1053.687012	2733.596924	1083.407837	1.769192
294.728943	1057.030640	2821.051514	1090.466675	1.895444
295.099731	1057.030518	2906.722412	1093.364624	1.964333
295.470490	1058.368042	2950.041016	1092.547241	1.806824
295.841248	1052.200806	2967.947998	1088.163452	1.877213
296.211975	1046.628052	3003.167236	1081.401855	1.777312
296.582642	1045.587891	3067.736328	1087.717407	2.083404
296.953308	1050.194702	3153.853516	1089.277832	1.857865
297.323883	1059.482544	3200.589844	1094.107544	1.617154
297.694519	1053.909790	3242.719482	1090.466675	1.670172
298.065063	1056.287476	3251.412842	1093.661743	1.702603
298.435608	1053.092529	3227.487061	1092.324341	1.804264
298.806122	1055.247192	3143.896484	1098.788574	2.084667
299.176575	1052.126587	3027.910156	1096.336548	2.237591
299.547028	1050.491821	2956.208252	1096.411011	2.409550
299.917450	1056.213257	2923.812256	1091.581177	1.893764
300.287872	1053.835449	2927.007080	1097.971313	2.356210
300.658234	1056.138794	2919.576904	1101.909424	2.456246
301.028564	1054.875610	2896.840088	1104.955811	2.718847
301.398865	1061.414307	2872.246094	1097.897095	2.014698
301.769135	1057.699219	2863.552734	1095.965210	2.118998
302.139374	1058.145020	2874.475342	1090.838257	1.799961
302.509583	1053.984009	2897.954834	1086.380127	1.756867
302.879791	1056.658813	2898.549072	1086.528687	1.621697
303.249939	1052.869507	2886.660889	1085.339844	1.770667
303.620087	1049.302979	2839.849854	1090.615234	2.307242
303.990173	1045.736450	2813.026611	1081.773193	2.039096
304.360260	1047.073853	2795.862549	1084.522339	2.141396
304.730286	1053.018066	2811.986328	1081.401733	1.613654
305.100281	1061.934448	2825.212158	1082.516357	1.167253
305.470276	1059.928223	2841.187500	1082.442017	1.263926
305.840179	1055.172852	2859.317383	1088.089111	1.824480
306.210144	1043.507324	2874.400391	1091.804199	2.637886
306.579987	1047.519653	2896.393799	1090.169434	2.306797
306.949890	1051.011963	2909.768799	1088.460449	2.014706
307.319702	1056.881836	2945.136719	1083.927979	1.432335
307.689484	1049.228638	2981.248047	1087.123047	1.961389
308.059265	1039.197754	3023.451904	1083.184937	2.216812
308.429016	1034.293945	3069.742920	1091.581177	2.814476
308.798737	1031.544800	3134.311523	1092.101440	2.879856
309.168396	1039.346558	3208.837158	1101.983643	2.887179
309.538055	1047.668335	3269.988281	1103.766968	2.524328
309.907684	1052.869629	3291.536133	1104.881470	2.323340
310.277313	1047.222534	3310.334717	1094.033325	2.068425
310.646851	1040.758179	3326.532471	1096.559570	2.441247
311.016388	1046.182251	3346.074219	1097.079590	2.213032
311.385895	1057.179077	3343.547852	1098.862793	1.823141
311.755371	1058.219360	3345.554443	1094.776245	1.598230
312.124817	1054.801392	3362.718018	1096.113647	1.790024
312.494232	1049.674561	3366.284424	1097.005371	2.043107
312.863617	1056.361816	3343.325195	1105.178833	2.134578
313.232971	1057.476318	3307.511475	1105.996094	2.156401
313.602295	1063.197632	3289.530029	1110.677124	2.132632
313.971619	1057.699219	3302.235596	1112.386108	2.436445
314.340820	1059.259521	3315.239014	1115.358154	2.486664
314.710083	1053.761230	3366.953369	1115.283813	2.659640
315.079285	1052.943848	3402.618896	1110.528442	2.450747
315.448486	1057.476318	3450.618408	1113.054688	2.322402
315.817596	1057.550537	3431.225342	1114.838013	2.413451
316.186707	1057.922119	3385.900391	1120.039307	2.668289
316.555786	1049.525879	3323.114990	1120.930786	3.140625
316.924866	1047.594116	3273.778076	1126.354980	3.537931
317.293884	1045.959351	3246.063232	1128.658325	3.758867
317.662872	1049.971680	3231.499756	1124.348755	3.409403
318.031830	1052.423706	3237.592529	1120.410767	3.111295
318.400757	1049.451660	3255.425049	1115.878296	3.011217
318.769684	1046.479614	3273.183594	1117.735840	3.200076
319.138550	1033.476563	3292.130859	1132.745117	4.395031
319.507416	1033.328003	3317.244873	1143.741821	4.834406
319.876190	1031.619019	3333.740234	1149.165894	5.106025
320.244995	1046.628052	3322.372070	1150.057495	4.544863
320.613770	1047.593994	3303.201904	1148.274170	4.463550
320.982483	1047.891235	3277.047607	1156.224487	4.859832
321.351166	1042.170044	3255.871094	1163.803345	5.494567
321.719818	1042.987427	3231.425537	1169.970581	5.802456
322.088440	1041.204102	3243.611084	1176.806396	6.157004
322.457062	1045.290649	3275.932617	1184.162476	6.225644
322.825623	1054.727173	3318.359375	1195.084961	6.200556
323.194183	1058.516602	3359.374756	1208.088013	6.500679
323.562653	1057.922241	3431.225342	1217.970215	6.743680
323.931183	1054.207031	3519.051025	1224.657349	6.915258
324.299591	1055.098633	3607.100342	1238.551880	7.188602
324.668060	1053.686890	3660.895264	1251.109131	7.572169
325.036407	1050.268921	3697.303467	1275.257568	8.499649
325.404755	1056.658936	3715.804688	1283.802368	8.541970
325.773102	1058.219360	3724.943604	1301.858032	9.136253
326.141388	1061.934448	3717.885010	1324.000122	9.867114
326.509674	1064.237915	3718.405273	1347.999878	10.691185
326.877899	1065.055176	3741.662109	1365.312378	11.217830
327.246124	1063.866333	3771.531982	1375.120483	11.495296
327.614288	1057.401978	3773.612305	1384.185425	12.030859
327.982422	1055.247192	3749.984131	1397.188354	12.689223
328.350525	1052.869507	3714.095947	1404.767212	13.223140
328.718628	1046.256714	3700.275635	1432.259277	14.544077
329.086700	1039.940796	3685.637939	1453.881348	15.645802
329.454712	1045.662109	3702.207275	1486.203003	16.583225
329.822693	1051.903687	3715.656250	1501.955078	16.895391
330.190674	1059.185181	3744.485596	1527.143921	17.426682
330.558563	1055.098633	3758.602783	1553.372681	18.430674
330.926483	1055.247192	3790.552979	1584.356812	19.343710
331.294312	1053.241089	3850.292725	1621.285278	20.308676
331.662231	1052.498047	3919.171143	1656.802124	21.080328
332.029999	1047.296875	3969.994385	1695.365234	22.173637
332.397766	1046.405151	4000.978516	1732.219360	23.211954
332.765503	1048.262817	4044.742920	1770.931030	24.117239
333.133240	1045.439331	4109.014160	1814.249512	25.095200
333.500916	1050.046021	4172.469238	1844.713501	25.450344
333.868561	1051.680786	4218.759766	1882.608032	26.236391
334.236176	1055.990356	4249.967285	1904.453003	26.564457
334.603790	1047.965698	4267.354004	1934.099976	27.524927
334.971344	1041.427002	4254.870605	1945.170898	28.123844
335.338867	1039.420776	4228.642090	1967.238892	29.092310
335.706360	1047.891235	4212.370605	2007.733765	30.331766
336.073853	1053.612549	4225.818848	2050.606445	31.429037
336.441284	1058.962402	4249.595703	2089.020752	32.283821
336.808655	1060.597046	4227.304688	2109.899902	33.135452
337.176086	1055.395874	4183.168945	2131.299072	34.398380
337.543396	1055.693115	4085.312256	2140.215576	35.797321
337.910706	1047.371216	4031.368408	2134.642822	36.436752
338.277954	1054.429810	4028.322266	2157.230713	37.082741
338.645264	1052.795288	4123.726563	2201.218018	37.396564
339.012421	1056.733276	4265.050293	2270.542480	37.833206
339.379669	1058.442261	4393.519531	2338.975342	38.395905
339.746796	1052.869629	4501.778809	2414.615479	39.483379
340.113953	1052.572388	4582.174316	2469.227783	40.136406
340.481018	1047.668457	4634.780762	2517.078857	40.963600
340.848114	1049.971802	4648.749512	2556.162354	41.852837
341.215118	1050.640503	4657.591797	2603.492920	43.051662
341.582153	1044.696289	4672.154785	2649.040771	44.227783
341.949066	1049.748779	4693.702637	2692.284912	45.075657
342.316010	1056.287476	4712.204102	2737.089111	45.974838
342.682922	1055.692993	4735.163574	2772.085938	46.647823
343.049835	1055.395752	4786.135254	2816.964844	47.217693
343.416656	1047.222534	4839.855957	2871.205811	48.092793
343.783478	1051.086304	4922.258301	2942.313477	48.854126
344.150269	1045.885132	5045.080078	3031.996826	49.662788
344.516998	1045.142090	5197.847168	3140.478760	50.457150
344.883728	1050.120239	5315.244629	3225.629639	51.006935
345.250427	1048.337036	5387.318848	3294.136719	51.758682
345.617065	1045.067749	5409.609863	3340.204346	52.585968
345.983704	1046.628296	5419.343262	3378.247803	53.322014
346.350281	1050.417603	5385.238281	3395.708740	54.103527
346.716827	1056.807617	5332.854980	3397.120361	54.730747
347.083405	1048.708618	5279.580078	3390.582031	55.352036
347.449860	1054.578491	5226.527832	3389.467041	55.966373
347.816376	1053.686890	5162.924316	3361.975342	56.173164
348.182770	1053.389648	5102.070313	3359.671875	56.963799
348.549194	1045.439331	5085.872559	3370.668701	57.549015
348.915558	1040.981079	5108.906738	3409.900391	58.234085
349.281921	1043.730225	5137.215332	3457.974365	58.977718
349.648193	1038.529175	5187.667480	3498.618164	59.291561
350.014526	1037.934692	5235.964355	3561.403564	60.110786
350.380737	1037.340210	5299.195801	3615.050537	60.483292
350.746948	1044.473267	5341.548340	3680.585205	61.346653
351.113159	1050.343262	5375.504883	3716.548096	61.644051
351.479309	1043.581665	5428.631348	3761.426758	61.979801
351.845428	1044.844849	5460.804688	3799.246826	62.373795
352.211517	1036.597168	5516.902344	3853.487549	62.872734
352.577576	1044.324707	5548.480957	3906.762695	63.551037
352.943604	1040.460938	5617.656738	3970.737061	64.019028
353.309601	1051.160522	5669.297363	4031.293945	64.531075
353.675537	1048.782837	5788.924316	4116.444824	64.716675
354.041473	1052.943848	5907.511719	4203.453125	64.897835
354.407379	1048.337036	6034.123535	4308.517090	65.389488
354.773254	1044.324707	6142.308594	4398.943359	65.802849
355.139038	1045.810791	6229.168457	4482.682617	66.305901
355.504913	1039.494995	6354.591309	4585.518066	66.716064
355.870636	1045.216431	6474.589844	4671.708984	66.793945
356.236389	1040.535278	6633.300781	4784.798340	66.948334
356.602081	1051.011841	6777.076660	4887.707031	67.004051
356.967804	1045.513550	6918.029785	5013.056152	67.561203
357.333405	1045.959473	7061.507813	5126.738770	67.837196
357.699036	1041.501343	7222.596191	5250.378418	68.092743
358.064606	1052.349487	7391.114746	5390.439453	68.437462
358.430176	1055.098633	7517.354980	5502.562500	68.822151
358.795654	1052.869629	7606.889160	5575.007324	68.997925
359.161163	1052.720947	7622.492676	5592.394043	69.099403
359.526581	1047.148193	7620.932129	5602.722656	69.299118
359.892029	1049.377319	7653.700684	5649.755859	69.657074
360.257416	1052.126587	7768.423828	5760.541504	70.104324
360.622772	1058.813843	8016.074707	5931.066406	70.031189
360.988098	1063.197754	8306.821289	6142.829590	70.125565
361.353394	1050.863403	8624.390625	6366.034668	70.180923
361.718658	1045.587891	8893.441406	6556.992188	70.228172
362.083893	1046.999634	9083.878906	6732.494629	70.742569
362.449097	1047.594116	9219.778320	6842.834473	70.914215
362.814209	1056.881958	9200.311523	6876.791016	71.467545
363.179382	1052.498047	9028.746094	6720.384277	71.059555
363.544434	1059.854004	8644.750000	6481.351563	71.477547
363.909546	1054.207031	8207.702148	6190.679688	71.803680
364.274536	1049.154419	7819.544434	5972.972656	72.725769
364.639587	1038.380493	7569.218750	5788.256348	72.729958
365.004517	1040.758179	7414.892090	5694.040527	73.002579
365.369507	1044.770508	7336.799316	5628.802246	72.854591
365.734344	1052.572388	7290.806152	5600.270996	72.900421
366.099274	1050.120239	7247.487793	5562.003906	72.803230
366.464081	1055.470093	7217.617188	5552.567871	72.979393
366.828918	1057.327759	7202.311035	5556.803223	73.221931
367.193665	1051.680664	7203.722656	5572.109375	73.478508
367.558411	1052.795166	7213.902344	5579.391113	73.470490
367.923126	1047.296753	7214.720215	5577.459473	73.453087
368.287781	1050.194702	7208.701172	5581.100098	73.571495
368.652435	1045.365112	7154.980469	5562.673340	73.937683
369.017059	1045.365112	7117.902832	5544.988770	74.097908
369.381653	1050.863403	7083.203613	5511.775879	73.949951
369.746185	1049.005737	7068.045410	5506.574219	74.057800
370.110687	1053.612671	7066.411621	5512.667480	74.159386
370.475220	1049.674683	7119.761230	5549.447266	74.130287
370.839661	1063.346191	7208.404297	5604.654297	73.901794
371.204041	1065.278198	7286.941895	5661.718750	73.877998
371.568451	1065.575317	7338.434082	5719.005859	74.183571
371.932770	1053.241089	7394.458496	5754.671875	74.140823
372.297150	1043.581665	7429.528809	5784.392578	74.238182
372.661377	1044.101807	7468.463379	5794.423340	73.942314
373.025696	1040.535278	7489.119629	5816.564941	74.063225
373.389862	1045.513550	7504.946777	5799.996094	73.605255
373.754059	1042.987305	7506.134766	5813.667969	73.813583
374.118225	1045.142090	7538.531250	5795.240723	73.152840
374.482361	1039.569336	7593.960938	5820.280762	72.939056
374.846436	1043.433105	7690.851563	5859.958496	72.457085
375.210510	1041.501343	7793.092285	5939.016113	72.538673
375.574524	1050.714722	7893.326660	6050.321777	73.065765
375.938538	1047.519775	8028.631348	6171.286621	73.394714
376.302460	1052.423706	8172.704590	6286.827637	73.514008
376.666412	1053.984131	8362.176758	6395.606934	73.090889
377.030304	1056.064575	8528.465820	6481.129395	72.601357
377.394196	1056.361938	8682.347656	6581.214844	72.447723
377.757996	1051.755127	8814.235352	6672.681152	72.411461
378.121796	1050.789063	8876.797852	6729.746094	72.565178
378.485565	1049.971802	8872.710938	6722.984375	72.519516
378.849304	1050.937622	8790.606445	6660.050293	72.472260
379.212982	1057.847778	8651.065430	6547.778809	72.300461
379.576630	1060.968506	8475.636719	6432.683594	72.447136
379.940277	1060.671387	8339.291992	6327.322754	72.357819
380.303864	1051.234863	8228.134766	6249.973145	72.437103
380.667450	1048.857300	8213.422852	6217.875000	72.146980
381.030945	1049.600220	8183.626953	6212.078613	72.364159
381.394501	1050.343262	8220.407227	6251.979004	72.546577
381.757935	1043.878906	8238.090820	6281.328613	72.800880
382.121399	1046.405273	8253.621094	6303.990723	72.948914
382.484741	1051.755005	8308.752930	6341.217285	72.887749
382.848145	1060.225464	8350.289063	6381.488770	72.993370
383.211487	1057.401978	8441.160156	6455.271973	73.104645
383.574768	1057.030396	8541.395508	6539.457031	73.251724
383.938019	1053.315308	8636.874023	6617.548828	73.372330
384.301270	1047.148315	8743.201172	6695.343750	73.390808
384.664459	1044.919067	8793.355469	6745.795410	73.574539
385.027649	1042.318481	8872.561523	6806.798340	73.618149
385.390778	1054.429932	8927.769531	6864.457031	73.793678
385.753876	1047.817017	8970.046875	6917.583496	74.092354
386.116943	1056.361938	8997.167969	6985.496094	74.666656
386.479980	1047.222656	9010.393555	7003.328613	74.795654
386.842987	1048.411499	9073.329102	7055.042969	74.849762
387.205994	1038.752075	9134.627930	7086.324707	74.699425
387.568909	1042.244263	9190.727539	7164.788574	75.137230
387.931793	1041.872681	9237.612305	7207.587402	75.230736
388.294678	1049.303101	9277.140625	7269.406738	75.598274
388.657471	1053.612671	9316.223633	7287.536621	75.447380
389.020294	1062.826172	9300.842773	7296.229980	75.666321
389.383057	1067.655884	9322.093750	7300.837402	75.513100
389.745819	1059.779663	9339.109375	7329.072266	75.722221
390.108521	1054.950073	9386.885742	7370.310059	75.797035
390.471191	1049.303101	9448.557617	7429.083496	75.956505
390.833801	1049.897461	9570.116211	7536.673340	76.133911
391.196442	1049.600220	9752.455078	7690.851563	76.311188
391.558960	1052.498169	9914.137695	7857.661621	76.793503
391.921509	1053.835571	10107.993164	8021.350098	76.953766
392.284027	1056.956177	10301.329102	8170.029785	76.944901
392.646484	1048.634277	10448.375000	8269.967773	76.824821
393.008911	1049.080078	10468.584961	8290.250977	76.874222
393.371307	1045.810669	10425.192383	8259.936523	76.914726
393.733673	1046.776733	10329.043945	8208.221680	77.151886
394.096008	1042.541626	10269.156250	8166.240723	77.208160
394.458344	1044.770630	10249.168945	8176.791504	77.484924
394.820587	1045.439331	10279.484375	8190.537598	77.377769
395.182831	1051.680664	10338.481445	8227.094727	77.264648
395.545013	1046.330933	10294.715820	8208.815430	77.445786
395.907196	1044.621948	10245.379883	8175.304688	77.501038
396.269287	1039.123535	10106.209961	8062.661621	77.461914
396.631409	1046.330933	9977.815430	7968.148926	77.499077
396.993469	1052.126465	9808.330078	7834.478516	77.457680
397.355530	1053.389771	9684.764648	7774.888184	77.872856
397.717499	1045.662231	9641.075195	7727.408691	77.736191
398.079468	1042.690063	9641.520508	7736.845215	77.849602
398.441376	1047.296753	9672.282227	7758.764160	77.814247
398.803284	1051.903564	9670.573242	7774.367676	77.998856
399.165131	1057.179077	9710.028320	7809.661621	78.037674
399.526978	1054.504272	9698.809570	7814.268066	78.199036
399.888763	1057.699219	9705.050781	7837.302246	78.400917
400.250519	1054.058350	9687.366211	7821.624512	78.389030
400.612244	1057.030518	9713.446289	7837.525391	78.329124
400.973938	1059.408203	9706.090820	7808.695801	78.056381
401.335602	1056.138916	9730.908203	7854.985840	78.374954
401.697205	1054.875732	9768.727539	7893.846191	78.483902
402.058807	1048.782837	9857.221680	7978.031250	78.666023
402.420349	1044.770630	9976.848633	8062.514160	78.567871
402.781860	1044.101929	10090.458008	8160.073730	78.661194
403.143341	1044.250488	10242.926758	8274.128906	78.596947
403.504822	1053.686890	10396.213867	8393.606445	78.564606
403.866241	1052.795288	10580.707031	8554.472656	78.733696
404.227631	1059.630981	10750.637695	8675.957031	78.591690
404.588959	1056.807495	10945.163086	8819.137695	78.499710
404.950287	1058.739502	11102.907227	8918.555664	78.252541
405.311554	1058.962402	11184.343750	9015.594727	78.581070
405.672821	1057.625000	11213.320313	9041.898438	78.618675
406.034027	1058.813721	11203.586914	9011.209961	78.389099
406.395203	1053.463989	11133.519531	8924.871094	78.088928
406.756348	1052.052368	11041.012695	8860.598633	78.171768
407.117493	1046.553955	10963.738281	8819.436523	78.377914
407.478516	1044.919312	10939.960938	8819.063477	78.566055
407.839600	1042.095581	10921.682617	8832.215820	78.850670
408.200592	1053.166626	10920.717773	8833.553711	78.848213
408.561554	1052.349487	10918.709961	8816.612305	78.694298
408.922485	1053.612549	10955.342773	8793.727539	78.169319
409.283417	1042.987305	10949.026367	8796.624023	78.271820
409.644257	1042.021362	11051.266602	8860.970703	78.117271
410.005096	1043.210327	11173.122070	8969.082031	78.242256
410.365906	1049.823120	11314.668945	9092.498047	78.351639
410.726715	1049.674438	11417.875977	9194.515625	78.555969
411.087433	1050.863403	11473.010742	9248.384766	78.654823
411.448120	1042.912964	11561.281250	9280.855469	78.319588
411.808807	1043.581665	11573.094727	9283.604492	78.256447
412.169434	1044.770508	11529.627930	9234.044922	78.105728
412.530029	1045.810791	11482.890625	9215.839844	78.278877
412.890564	1049.154419	11465.355469	9219.109375	78.435074
413.251099	1056.584595	11500.722656	9254.774414	78.495605
413.611572	1058.813843	11563.805664	9271.344727	78.177414
413.972076	1060.448486	11628.078125	9329.672852	78.250511
414.332489	1051.383423	11660.028320	9368.012695	78.394829
414.692871	1051.309082	11787.679688	9469.288086	78.406181
415.053223	1053.389648	11909.239258	9555.329102	78.316666
415.413574	1048.708496	12116.247070	9741.012695	78.538727
415.773834	1048.857056	12249.695313	9879.883789	78.842552
416.134094	1042.021362	12424.307617	9999.363281	78.695457
416.494263	1050.417603	12569.864258	10099.820313	78.557617
416.854462	1056.881958	12851.769531	10313.588867	78.480675
417.214630	1058.145142	13169.489258	10548.832031	78.361961
417.574738	1060.299927	13565.746094	10821.522461	78.055771
417.934784	1052.720947	13885.172852	11046.882813	77.881935
418.294861	1053.761108	14272.735352	11355.016602	77.927795
418.654846	1052.126465	14674.936523	11712.932617	78.257027
419.014832	1051.160522	15148.020508	12101.535156	78.388908
419.374756	1045.290649	15690.729492	12491.179688	78.153267
419.734680	1039.717896	16250.078125	12919.979492	78.106377
420.094543	1040.906738	16816.785156	13344.769531	77.991615
420.454376	1046.702515	17247.072266	13742.958008	78.370163
420.814148	1049.451660	17714.958984	14071.672852	78.138756
421.173920	1045.959473	18179.423828	14422.379883	78.071892
421.533691	1044.696289	18673.017578	14789.733398	77.971336
421.893341	1043.804565	19027.886719	15097.495117	78.145164
422.253021	1051.383545	19277.173828	15335.561523	78.373428
422.612640	1059.259644	19361.728516	15408.303711	78.399498
422.972260	1055.544434	19383.945313	15404.215820	78.286545
423.331757	1050.640503	19316.998047	15319.734375	78.116798
423.691315	1042.541504	19324.279297	15337.270508	78.191299
424.050781	1043.061523	19388.255859	15413.355469	78.332741
424.410248	1043.804565	19468.798828	15493.231445	78.422966
424.769653	1048.634277	19558.556641	15547.250000	78.328880
425.128998	1057.847778	19558.705078	15573.405273	78.458839
425.488373	1062.454712	19458.841797	15481.492188	78.379723
425.847656	1055.841675	19279.921875	15348.639648	78.428093
426.206940	1048.039917	19063.701172	15147.426758	78.261826
426.566193	1048.708618	18724.880859	14894.128906	78.328156
426.925385	1054.950073	18349.501953	14624.484375	78.461319
427.284576	1057.476318	17832.357422	14232.018555	78.537323
427.643677	1055.692993	17441.968750	13942.312500	78.642761
428.002777	1048.188354	17064.140625	13637.893555	78.607285
428.361847	1051.606323	16693.667969	13351.827148	78.635544
428.720856	1051.234985	16377.954102	13101.278320	78.621155
429.079865	1063.271973	16122.278320	12901.999023	78.615593
429.438812	1060.819946	15976.942383	12776.946289	78.546730
429.797760	1061.042847	15861.550781	12717.504883	78.757179
430.156616	1055.544434	15678.840820	12582.348633	78.824936
430.515503	1052.869507	15583.659180	12490.807617	78.715187
430.874268	1056.881836	15511.288086	12400.528320	78.478813
431.233093	1060.299683	15521.467773	12401.273438	78.423637
431.591827	1061.414307	15580.909180	12464.429688	78.535896
431.950562	1058.888062	15616.574219	12498.238281	78.579453
432.309204	1050.566284	15672.226563	12536.726563	78.555786
432.667877	1045.216431	15758.195313	12614.522461	78.633331
433.026459	1039.346558	15949.004883	12727.164063	78.390915
433.385010	1042.690063	16087.504883	12842.778320	78.432922
433.743561	1052.275146	16286.041992	12974.889648	78.264389
434.102051	1049.228638	16413.470703	13096.671875	78.412216
434.460510	1049.674438	16598.486328	13236.211914	78.376007
434.818939	1049.228638	16615.203125	13313.710938	78.790329
435.177338	1051.086304	16635.191406	13330.725586	78.795921
435.535675	1050.417603	16610.820313	13296.769531	78.702026
435.894012	1049.080200	16576.865234	13271.059570	78.710388
436.252289	1051.234863	16602.572266	13303.309570	78.784698
436.610535	1047.371216	16585.929688	13309.846680	78.916428
436.968719	1041.501343	16722.498047	13390.614258	78.752090
437.326935	1041.278320	16828.824219	13496.495117	78.892670
437.685028	1044.250366	16990.802734	13608.097656	78.787231
438.043152	1043.878906	17123.357422	13692.282227	78.661774
438.401215	1047.891357	17352.730469	13834.573242	78.422615
438.759277	1057.179199	17576.755859	14041.504883	78.599632
439.117249	1061.785889	17931.697266	14371.929688	78.898712
439.475250	1061.340088	18187.449219	14625.375977	79.200920
439.833130	1052.721069	18593.884766	14914.487305	79.024208
440.191071	1051.680786	18860.779297	15092.442383	78.840385
440.548889	1051.606445	19129.013672	15301.231445	78.825607
440.906708	1058.070801	19384.390625	15534.394531	78.991982
441.264496	1057.253418	19592.958984	15695.335938	78.972351
441.622223	1055.247192	19786.740234	15825.440430	78.852196
441.979950	1052.126587	19854.281250	15885.476563	78.891754
442.337616	1060.374146	19917.365234	15887.780273	78.630821
442.695251	1062.974731	19829.390625	15842.307617	78.754158
443.052887	1059.185425	19712.882813	15717.179688	78.579567
443.410461	1049.674561	19550.902344	15639.608398	78.859268
443.768005	1044.027466	19447.994141	15510.469727	78.605026
444.125458	1049.600220	19312.242188	15433.937500	78.763718
444.482941	1051.532104	19326.212891	15453.554688	78.808609
444.840393	1054.504028	19385.505859	15557.726563	79.118546
445.197754	1048.931519	19648.982422	15746.976563	79.021530
445.555084	1053.761108	19921.748047	15945.585938	78.926414
445.912415	1054.652832	20305.744141	16222.586914	78.789993
446.269714	1056.584595	20535.193359	16451.365234	79.034286
446.626953	1051.012085	20812.787109	16693.294922	79.154243
446.984161	1049.451660	21130.580078	16960.785156	79.235260
447.341309	1044.101929	21420.134766	17159.248047	79.088730
447.698456	1048.782959	21628.779297	17333.412109	79.128433
448.055542	1044.919312	21733.472656	17413.437500	79.118721
448.412598	1049.526001	21700.257813	17390.031250	79.127968
448.769653	1043.061646	21576.025391	17250.640625	78.934441
449.126617	1049.377441	21252.287109	16965.689453	78.782280
449.483582	1050.566162	20993.789063	16795.607422	78.949333
449.840515	1062.454590	20646.794922	16553.455078	79.098915
450.197388	1057.847778	20390.822266	16416.591797	79.443253
450.554230	1056.510376	20199.716797	16259.070313	79.414902
450.911041	1048.708618	20016.263672	16148.284180	79.607391
451.267822	1056.138794	19878.503906	16011.493164	79.455238
451.624573	1056.658936	19654.482422	15864.077148	79.619087
451.981262	1062.380249	19543.250000	15772.239258	79.595062
452.337921	1049.154419	19349.394531	15673.491211	79.913361
452.694580	1049.897461	19258.449219	15591.832031	79.863220
453.051147	1049.228638	19205.322266	15526.221680	79.736275
453.407715	1056.807617	19107.091797	15415.881836	79.550400
453.764221	1058.219360	19103.599609	15436.093750	79.676201
454.120728	1050.714844	18885.966797	15298.856445	79.887527
454.477142	1047.668335	18842.576172	15280.131836	79.980537
454.833557	1052.200806	18672.720703	15105.594727	79.755844
455.189911	1049.080078	18506.951172	14956.914063	79.665123
455.546265	1047.965454	18286.123047	14831.789063	79.961113
455.902557	1047.222534	18122.433594	14714.464844	80.041428
456.258820	1050.566162	18125.701172	14723.973633	80.077888
456.615051	1053.018188	18216.724609	14747.231445	79.785866
456.971252	1048.560059	18213.751953	14774.129883	79.961647
457.327393	1049.748901	18413.105469	14937.374023	79.982368
457.683502	1051.755005	18675.765625	15138.065430	79.926819
458.039612	1049.005737	19158.435547	15521.614258	79.917526
458.395630	1049.451538	19617.404297	15906.875000	80.016487
458.751648	1048.485718	20068.720703	16279.875000	80.079926
459.107605	1047.073975	20712.478516	16792.044922	80.064316
459.463562	1048.634399	21332.681641	17272.708984	79.984406
459.819458	1051.606445	21925.916016	17743.044922	79.961632
460.175323	1053.389648	22410.814453	18119.462891	79.906982
460.531158	1058.219360	22952.037109	18490.828125	79.623428
460.886932	1057.922241	23294.349609	18767.902344	79.643997
461.242676	1057.922119	23457.591797	18901.943359	79.661987
461.598419	1049.600342	23254.820313	18831.503906	80.079834
461.954102	1054.355591	22904.408203	18550.712891	80.074669
462.309723	1056.584717	22324.994141	18107.423828	80.169792
462.665344	1064.237915	21679.826172	17590.796875	80.165352
463.020905	1056.881958	21111.261719	17142.306641	80.209038
463.376373	1056.956177	20640.257813	16775.027344	80.262627
463.731873	1047.816895	20263.542969	16463.701172	80.225357
464.087341	1051.606323	19909.787109	16216.791992	80.417007
464.442749	1044.993530	19769.578125	16100.210938	80.403481
464.798126	1042.095581	19669.861328	16023.604492	80.425690
465.153503	1037.043091	19797.439453	16085.274414	80.212761
465.508820	1038.083374	19798.554688	16116.706055	80.374435
465.864105	1035.854248	19960.162109	16228.976563	80.283630
466.219330	1039.346436	20239.687500	16490.968750	80.475769
466.574524	1039.272095	20501.085938	16660.080078	80.263878
466.929657	1049.154419	20678.818359	16836.773438	80.427353
467.284790	1052.275146	20832.921875	16959.224609	80.416733
467.639893	1053.092407	21014.888672	17102.107422	80.398643
467.994934	1049.674683	21191.730469	17274.564453	80.552299
468.349945	1052.572388	21244.855469	17324.570313	80.585228
468.704926	1055.841675	21171.667969	17324.273438	80.873795
469.059875	1060.002563	20971.570313	17185.552734	80.985832
469.414764	1052.498047	20725.705078	16978.246094	80.951462
469.769653	1048.634277	20531.626953	16800.216797	80.847862
470.124451	1048.708618	20416.531250	16675.314453	80.683334
470.479248	1043.804565	20238.648438	16559.994141	80.835197
470.834015	1050.491943	20133.212891	16447.427734	80.685219
471.188721	1052.200928	20155.652344	16477.593750	80.746628
471.543365	1058.739502	20267.255859	16573.220703	80.768768
471.898010	1058.442261	20374.251953	16696.193359	80.958298
472.252625	1050.268921	20570.039063	16824.587891	80.812019
472.607178	1055.841675	20837.007813	17052.994141	80.870621
472.961700	1058.962402	21090.009766	17243.802734	80.798775
473.316193	1064.980835	21358.689453	17466.787109	80.822121
473.670654	1054.058228	21468.878906	17521.546875	80.664383
474.025055	1047.445435	21687.253906	17746.164063	80.905396
474.379456	1050.194702	21801.976563	17874.560547	81.074318
474.733795	1060.374146	22004.304688	18052.662109	81.132278
475.088104	1063.346313	22126.085938	18142.642578	81.087723
475.442383	1060.225586	22199.275391	18181.951172	80.995720
475.796570	1051.977905	22300.400391	18262.494141	80.996674
476.150787	1053.909790	22540.250000	18430.121094	80.870964
476.504944	1051.309204	22809.005859	18630.365234	80.794655
476.859070	1054.578491	23101.531250	18868.060547	80.797935
477.213135	1046.479492	23354.681641	19070.240234	80.794327
477.567200	1046.702271	23760.744141	19400.587891	80.804138
477.921173	1044.621948	24148.755859	19741.490234	80.924339
478.275146	1045.736450	24639.896484	20160.111328	81.013161
478.629089	1045.810913	24984.662109	20441.273438	81.020859
478.983002	1048.634277	25488.435547	20804.390625	80.834358
479.336823	1049.971680	25909.583984	21112.449219	80.703094
479.690643	1046.925171	26385.564453	21525.349609	80.818962
480.044403	1042.912964	26860.435547	21977.554688	81.086952
480.398163	1046.925293	27554.273438	22593.451172	81.285103
480.751862	1041.129761	28525.705078	23374.744141	81.258720
481.105499	1043.507324	29711.205078	24321.882813	81.200714
481.459137	1037.860352	31243.255859	25595.650391	81.302658
481.812744	1045.587891	33151.496094	27175.994141	81.388153
482.166290	1044.621948	35505.855469	29124.734375	81.483192
482.519806	1050.789185	38274.074219	31377.443359	81.472267
482.873291	1050.640503	41358.304688	33976.855469	81.687233
483.226715	1051.829468	44677.332031	36814.621094	81.976799
483.580139	1049.674561	47750.863281	39597.109375	82.540588
483.933502	1053.984131	50582.394531	42285.976563	83.249176
484.286804	1055.247192	52928.800781	44703.488281	84.143532
484.640106	1052.349487	54839.421875	46758.925781	84.976883
484.993347	1055.470215	56051.375000	48179.371094	85.686203
485.346558	1056.138794	56573.269531	48839.031250	86.068733
485.699738	1056.584595	56379.562500	48667.761719	86.060402
486.052887	1043.655884	55678.519531	47864.175781	85.697151
486.405975	1039.346436	54554.691406	46610.171875	85.154686
486.759064	1046.033569	53203.796875	45095.140625	84.453598
487.112061	1052.943848	51781.199219	43588.277344	83.849388
487.464996	1059.408203	50729.660156	42361.167969	83.151901
487.817963	1056.659058	50134.863281	41688.582031	82.790161
488.170868	1061.117188	49857.941406	41364.546875	82.594368
488.523743	1055.544434	49788.324219	41325.093750	82.633392
488.876587	1054.950073	49715.281250	41266.320313	82.636864
489.229401	1049.005737	49551.292969	41110.953125	82.598061
489.582153	1044.473267	49063.644531	40686.011719	82.553566
489.934845	1036.894531	48349.230469	40040.542969	82.438644
490.287537	1035.185425	47508.566406	39276.046875	82.285515
490.640198	1035.556885	46715.531250	38580.574219	82.191414
490.992798	1035.259766	45958.683594	37983.699219	82.247604
491.345337	1035.259766	45605.968750	37669.542969	82.193619
491.697876	1044.027466	45426.750000	37475.691406	82.085236
492.050354	1045.216309	45597.941406	37544.125000	81.922958
492.402832	1046.702515	45656.718750	37541.523438	81.808578
492.755219	1044.399048	45468.214844	37427.171875	81.899254
493.107605	1051.234863	44826.750000	36961.144531	82.031952
493.459930	1052.275146	43809.472656	36136.535156	82.054626
493.812225	1056.584717	42367.410156	34931.714844	82.000610
494.164490	1051.755005	40697.683594	33491.281250	81.823090
494.516724	1060.894165	38792.039063	31958.343750	81.888451
494.868896	1059.854004	37011.074219	30402.962891	81.619232
495.221039	1065.501099	35429.917969	29101.328125	81.583885
495.573120	1062.826172	34100.863281	27967.023438	81.433998
495.925201	1062.231812	33202.394531	27331.291016	81.732811
496.277222	1060.002563	32613.767578	26850.998047	81.736664
496.629211	1051.383423	32405.421875	26645.476563	81.629333
496.981140	1047.965576	32252.804688	26486.171875	81.520073
497.333069	1046.108032	32293.000000	26513.367188	81.503334
497.684967	1050.789063	32301.619141	26589.898438	81.722977
498.036804	1048.782959	32403.640625	26659.517578	81.680275
498.388580	1052.720825	32348.431641	26587.296875	81.591293
498.740326	1049.303101	32227.765625	26489.218750	81.594513
499.092072	1050.566284	31967.111328	26249.369141	81.505882
499.443756	1044.324829	31697.914063	26030.623047	81.511818
499.795410	1044.844849	31367.490234	25762.462891	81.515373
500.147003	1044.398926	30986.314453	25502.701172	81.685829
500.498566	1050.046021	30579.287109	25179.111328	81.712448
500.850098	1046.182373	30184.884766	24862.953125	81.735863
501.201599	1044.473389	29848.146484	24551.998047	81.612938
501.553009	1042.244263	29486.664063	24292.310547	81.738586
501.904449	1053.835571	29266.951172	24099.568359	81.684464
502.255859	1051.160645	29045.826172	23958.093750	81.826065
502.607178	1058.888062	29000.947266	23916.857422	81.804886
502.958405	1049.674561	28879.015625	23821.900391	81.828117
503.309692	1050.640503	28788.142578	23750.048828	81.836525
503.660919	1037.786133	28683.525391	23671.955078	81.872177
504.012115	1043.061523	28679.513672	23656.203125	81.823601
504.363251	1042.764404	28813.851563	23718.171875	81.651131
504.714294	1046.999634	28902.570313	23762.900391	81.548859
505.065369	1046.999634	28967.140625	23841.142578	81.640503
505.416443	1050.417603	28988.166016	23873.390625	81.692245
505.767395	1054.652710	28984.896484	23905.787109	81.815018
506.118317	1053.241089	28944.773438	23857.562500	81.760735
506.469238	1061.117188	28890.384766	23824.275391	81.795753
506.820160	1059.333862	28870.990234	23815.210938	81.821365
507.170929	1056.138794	28877.380859	23849.759766	81.928841
507.521729	1045.810913	28938.828125	23904.375000	81.950851
507.872498	1035.779907	29017.664063	23948.062500	81.882561
508.223236	1036.894531	29230.244141	24084.187500	81.747269
508.573883	1039.866455	29413.773438	24221.427734	81.700279
508.924500	1044.176025	29615.505859	24463.726563	81.968712
509.275116	1045.885132	29761.656250	24609.359375	82.057610
509.625702	1049.674438	29984.341797	24825.056641	82.169189
509.976196	1052.423828	30253.763672	25003.460938	82.020340
510.326660	1041.129761	30508.994141	25223.767578	82.064438
510.677124	1028.126709	30748.546875	25412.568359	82.046089
511.027557	1030.281494	30955.554688	25564.666016	81.985497
511.377869	1039.940796	31206.843750	25772.195313	81.984734
511.728180	1049.154419	31383.984375	25907.203125	81.945564
512.078430	1042.838745	31528.798828	26052.093750	82.035324
512.428650	1039.197754	31604.291016	26080.701172	81.928436
512.778931	1032.882080	31689.740234	26161.617188	81.967743
513.129028	1040.981079	31721.314453	26181.009766	81.941833
513.479126	1049.080078	31761.291016	26268.390625	82.114929
513.829285	1053.463989	31719.312500	26254.494141	82.179466
514.179382	1049.823242	31674.806641	26219.572266	82.186981
514.529297	1041.352661	31581.406250	26107.820313	82.077354
514.879272	1050.640381	31596.414063	26142.224609	82.144211
515.229187	1053.463989	31560.380859	26065.023438	81.986519
515.579163	1062.083008	31608.673828	26102.470703	81.974411
515.928955	1057.847778	31616.625000	26116.812500	82.002510
516.278748	1050.863403	31785.587891	26292.611328	82.127785
516.628540	1048.559937	32048.470703	26536.843750	82.220505
516.978333	1048.931519	32489.162109	26861.771484	82.101303
517.327942	1057.327759	33009.281250	27301.421875	82.136116
517.677612	1057.550659	33620.941406	27769.083984	82.029335
518.027222	1054.058472	34179.769531	28205.537109	81.964966
518.376831	1050.343262	34853.253906	28724.615234	81.869492
518.726379	1052.869507	35442.621094	29178.158203	81.783928
519.075867	1053.018188	35879.597656	29592.695313	81.947983
519.425293	1054.058472	36248.808594	29902.091797	81.966866
519.774658	1049.377319	36482.191406	30100.031250	81.987999
520.124084	1052.423706	36708.593750	30252.054688	81.892220
520.473389	1056.510376	36622.472656	30197.591797	81.935318
520.822693	1055.098633	36346.660156	30082.794922	82.251091
521.171997	1058.888062	35972.394531	29791.007813	82.295135
521.521240	1055.693237	35524.203125	29463.482422	82.416641
521.870361	1060.225586	35135.750000	29086.619141	82.247879
522.219482	1062.083130	34684.808594	28775.509766	82.424683
522.568604	1060.597046	34358.394531	28492.193359	82.382614
522.917664	1059.556763	34138.011719	28361.718750	82.537605
523.266724	1055.172974	34215.660156	28356.818359	82.331856
523.615662	1058.293579	34510.496094	28562.187500	82.218483
523.964600	1056.213257	34952.890625	28864.005859	82.036934
524.313538	1053.538208	35508.824219	29288.197266	81.945801
524.662354	1051.383423	36172.199219	29819.687500	81.912399
525.011169	1050.640503	37014.496094	30513.896484	81.924629
525.359985	1049.377319	37967.578125	31371.724609	82.133873
525.708740	1046.256592	39076.472656	32335.281250	82.274124
526.057434	1055.841675	40382.933594	33414.972656	82.282028
526.406067	1051.532104	41868.023438	34659.769531	82.339851
526.754700	1054.132813	43604.332031	36150.281250	82.481750
527.103333	1052.275024	45497.265625	37849.878906	82.793594
527.451782	1060.151245	47637.480469	39738.136719	83.040367
527.800293	1059.408203	49628.343750	41611.234375	83.493340
528.148743	1049.377319	51512.218750	43503.652344	84.129776
528.497131	1050.046021	53043.230469	45191.582031	84.898697
528.845642	1050.863281	54366.187500	46642.417969	85.513039
529.193909	1055.692993	55370.238281	47828.515625	86.114731
529.542175	1043.953247	56087.781250	48662.343750	86.509956
529.890503	1047.519653	56450.902344	49130.222656	86.786583
530.238770	1049.748901	56420.363281	49095.746094	86.771652
530.586914	1057.699341	56044.535156	48665.753906	86.580826
530.934998	1057.847900	55321.125000	47805.550781	86.149796
531.283142	1052.200806	54357.191406	46674.371094	85.587051
531.631226	1046.553833	52954.281250	45139.718750	84.945282
531.979248	1042.987427	51343.175781	43426.296875	84.260735
532.327148	1040.238159	49688.082031	41669.261719	83.516594
532.675110	1042.318604	48367.582031	40280.917969	82.912582
533.023071	1045.067749	47387.824219	39446.648438	82.864258
533.370850	1049.823120	46868.667969	38999.347656	82.825142
533.718689	1054.132813	46724.375000	38926.527344	82.925758
534.066467	1054.355591	46807.515625	38893.390625	82.702560
534.414246	1052.052246	46844.449219	38920.582031	82.696106
534.761963	1057.179077	46824.753906	38840.183594	82.554092
535.109619	1059.333984	46690.496094	38720.781250	82.534485
535.457153	1063.643433	46324.253906	38416.582031	82.528580
535.804749	1060.151245	45751.750000	37983.996094	82.619209
536.152344	1047.668335	44990.519531	37393.734375	82.712128
536.499817	1051.903687	44119.394531	36696.031250	82.763420
536.847229	1048.857300	43181.246094	35856.113281	82.614014
537.194641	1055.692993	42276.687500	35037.964844	82.439232
537.542114	1049.748779	41554.839844	34330.753906	82.164993
537.889404	1052.720947	40845.988281	33810.859375	82.320808
538.236694	1045.290649	40343.777344	33380.421875	82.280853
538.583984	1040.981079	40013.203125	33154.617188	82.401344
538.931213	1039.940918	39954.433594	33012.402344	82.160805
539.278381	1054.504272	39906.800781	33001.925781	82.227882
539.625488	1058.070801	40005.921875	33031.941406	82.094055
539.972595	1059.036743	40248.222656	33309.542969	82.294395
540.319641	1053.315308	40818.347656	33738.710938	82.196327
540.666687	1052.349487	41544.953125	34348.808594	82.228500
541.013611	1051.457886	42547.148438	35177.136719	82.239090
541.360596	1043.358887	43627.214844	36126.207031	82.385323
541.707458	1035.557007	44798.597656	37190.960938	82.616295
542.054260	1037.340332	45794.550781	38045.886719	82.687340
542.401062	1044.473267	46741.542969	38866.117188	82.766014
542.747864	1057.104858	47293.675781	39423.984375	82.979507
543.094666	1053.761230	47568.894531	39648.152344	82.971687
543.441284	1051.309204	47270.425781	39394.187500	82.958916
543.787903	1044.176147	46680.535156	38786.613281	82.702560
544.134460	1041.872681	45696.542969	37942.910156	82.636459
544.481079	1049.748657	44497.667969	36901.035156	82.515541
544.827637	1053.241089	43016.816406	35628.527344	82.393562
545.174072	1057.699219	41356.968750	34237.878906	82.334442
545.520508	1044.844849	39871.730469	32930.222656	82.121902
545.866943	1040.758179	38497.136719	31848.302734	82.249130
546.213318	1033.030762	37552.449219	31015.216797	82.099297
546.559631	1041.872803	36648.480469	30367.373047	82.359711
546.905823	1046.776733	35978.269531	29761.880859	82.204056
547.252136	1052.052246	35322.472656	29224.224609	82.205498
547.598389	1049.451538	34773.378906	28712.576172	82.028191
547.944458	1053.686890	34312.402344	28349.384766	82.070808
548.290588	1058.888062	33779.503906	27971.703125	82.250328
548.636658	1059.631104	33218.445313	27527.150391	82.302536
548.982727	1055.024414	32602.025391	26993.583984	82.221947
549.328735	1050.789185	32046.763672	26459.271484	81.973488
549.674622	1055.098755	31398.693359	25911.585938	81.916748
550.020569	1055.618774	30706.712891	25351.937500	81.940712
550.366455	1055.395874	29955.437500	24762.349609	82.030861
550.712280	1057.922241	29286.119141	24231.453125	82.093559
551.058044	1056.138794	28724.466797	23726.492188	81.936119
551.403748	1054.430054	28232.953125	23315.750000	81.907761
551.749512	1043.061646	27927.718750	23036.369141	81.806168
552.095154	1044.770630	27699.164063	22862.130859	81.852776
552.440735	1046.702393	27615.945313	22785.595703	81.819771
552.786316	1044.473267	27537.703125	22724.818359	81.833527
553.131897	1049.005737	27542.681641	22755.505859	81.930870
553.477417	1045.513550	27509.541016	22738.490234	81.971565
553.822815	1047.371216	27469.791016	22733.585938	82.075050
554.168213	1041.501221	27384.490234	22652.076172	82.035393
554.513672	1042.021362	27278.384766	22575.916016	82.076523
554.859009	1046.479370	27124.802734	22432.662109	82.007507
555.204285	1044.844849	26970.548828	22273.875000	81.884102
555.549500	1040.906860	26773.945313	22078.900391	81.754799
555.894714	1040.386719	26532.087891	21893.443359	81.803314
556.239990	1044.473267	26180.341797	21667.638672	82.046761
556.585022	1055.692993	25898.509766	21446.439453	82.079041
556.930115	1053.686890	25635.478516	21219.445313	82.035347
557.275146	1047.891235	25413.759766	21005.974609	81.910004
557.620178	1034.739746	25208.537109	20820.068359	81.846176
557.965149	1035.928589	25026.939453	20648.281250	81.748756
558.310059	1041.650024	24879.896484	20500.123047	81.627113
558.654968	1053.984253	24682.250000	20387.773438	81.824837
558.999756	1053.761230	24545.609375	20319.193359	82.009010
559.344604	1057.922241	24485.197266	20270.822266	82.010818
559.689331	1059.556763	24421.000000	20201.794922	81.939453
560.033997	1064.386597	24338.896484	20131.876953	81.924347
560.378723	1056.584595	24270.835938	20094.873047	82.011208
560.723389	1056.361694	24264.146484	20068.347656	81.920731
561.067932	1058.665161	24239.554688	20072.212891	82.022514
561.412476	1064.683716	24203.443359	20053.115234	82.063309
561.757019	1057.624878	24166.367188	20056.384766	82.214600
562.101501	1056.064453	24248.990234	20063.888672	81.955269
562.445862	1048.485718	24256.716797	20058.390625	81.910187
562.790222	1053.761230	24266.525391	20027.630859	81.738953
563.134644	1048.188477	24164.656250	20001.029297	81.988472
563.478943	1050.417603	24185.312500	19978.367188	81.815582
563.823181	1045.810669	24178.998047	19962.242188	81.771835
564.167358	1043.210083	24224.693359	19980.669922	81.692184
564.511536	1040.981079	24250.179688	20026.218750	81.800491
564.855774	1038.157715	24275.218750	20100.816406	82.035583
565.199768	1039.197876	24393.509766	20175.861328	81.940598
565.543823	1040.386719	24501.992188	20286.279297	82.031441
565.887817	1040.386597	24707.884766	20431.242188	81.930313
566.231812	1038.603394	24822.013672	20576.056641	82.147400
566.575745	1042.169922	24990.234375	20713.890625	82.143257
566.919617	1044.250488	25149.763672	20846.521484	82.148308
567.263428	1046.702515	25293.312500	20928.103516	81.996620
567.607239	1041.204102	25406.400391	21016.003906	81.980881
567.950989	1040.089478	25443.478516	21000.697266	81.794411
568.294678	1036.968750	25475.578125	21007.384766	81.716660
568.638367	1036.522949	25375.343750	20947.273438	81.806557
568.981995	1039.940918	25346.142578	20881.294922	81.630829
569.325623	1043.656128	25225.849609	20770.880859	81.577484
569.669128	1047.519897	25153.552734	20678.597656	81.436371
570.012573	1044.324829	24999.820313	20611.798828	81.682610
570.356140	1049.377441	24933.095703	20572.865234	81.743919
570.699524	1052.423828	24879.968750	20502.203125	81.627289
571.042908	1054.504272	24894.234375	20531.328125	81.699013
571.386230	1053.018066	24969.208984	20554.732422	81.541893
571.729492	1051.309204	25059.781250	20627.548828	81.538879
572.072815	1054.355591	25190.554688	20706.830078	81.423233
572.416016	1054.132690	25301.634766	20771.326172	81.316391
572.759094	1054.801392	25409.523438	20879.658203	81.400467
573.102234	1053.315308	25479.666016	20933.007813	81.386261
573.445374	1052.349487	25539.923828	21006.417969	81.486504
573.788391	1048.857300	25559.986328	21023.582031	81.492470
574.131409	1051.086304	25540.000000	21031.236328	81.588554
574.474365	1046.553833	25521.869141	21013.253906	81.578926
574.817261	1053.241089	25433.822266	20941.033203	81.572266
575.160156	1047.445435	25274.291016	20804.613281	81.550720
575.502930	1049.897339	25050.195313	20604.962891	81.478432
575.845703	1050.343262	24801.357422	20417.644531	81.543053
576.188477	1053.538208	24558.906250	20185.298828	81.393158
576.531250	1059.333862	24280.125000	19999.396484	81.565102
576.873901	1053.984009	24037.302734	19782.654297	81.488106
577.216431	1054.504150	23786.974609	19612.650391	81.637177
577.559082	1051.829346	23500.984375	19352.515625	81.520599
577.901611	1053.984131	23217.742188	19079.898438	81.330589
578.244080	1055.544556	22885.609375	18797.472656	81.272903
578.586487	1057.327759	22563.507813	18555.914063	81.365387
578.928955	1086.008667	22237.244141	18326.248047	81.509377
579.271301	1088.980591	21920.490234	18078.001953	81.554443
579.613647	1089.946533	21584.939453	17800.111328	81.532913
579.955872	1055.841675	21251.394531	17513.896484	81.493462
580.298157	1050.566162	20966.890625	17248.187500	81.328369
580.640320	1041.798462	20712.404297	17051.880859	81.390900
580.982483	1041.129761	20505.396484	16885.962891	81.404724
581.324524	1039.866577	20311.093750	16745.828125	81.499542
581.666626	1039.643677	20146.066406	16590.013672	81.388184
582.008728	1044.027466	20006.898438	16466.523438	81.329964
582.350647	1045.067749	19879.320313	16342.066406	81.219040
582.692566	1051.012085	19791.050781	16250.375977	81.106361
583.034424	1054.875854	19680.710938	16150.215820	81.045166
583.376343	1057.030518	19561.380859	16078.664063	81.178932
583.718201	1056.361694	19503.498047	16030.886719	81.175339
584.059937	1056.361694	19408.019531	15995.221680	81.403328
584.401611	1054.206909	19330.669922	15952.125000	81.514229
584.743347	1055.841675	19247.005859	15881.312500	81.498199
585.085022	1053.686890	19187.787109	15801.737305	81.327728
585.426514	1061.562988	19139.044922	15748.757813	81.245804
585.768127	1063.643433	19019.640625	15693.328125	81.475197
586.109619	1055.618774	18943.330078	15619.916992	81.420692
586.451172	1047.073853	18896.742188	15548.586914	81.242477
586.792542	1039.197876	18888.271484	15528.750000	81.178169
587.133850	1043.284546	18839.751953	15534.842773	81.429413
587.475220	1043.210205	18802.527344	15531.944336	81.583855
587.816589	1049.451660	18778.007813	15511.956055	81.577446
588.157776	1053.909912	18818.500000	15498.208008	81.309494
588.498962	1055.470215	18851.863281	15503.411133	81.184662
588.840210	1052.349487	18890.203125	15520.722656	81.110504
589.181335	1049.154419	18942.142578	15540.934570	80.991394
589.522400	1053.092529	18963.095703	15534.543945	80.856773
589.863403	1055.470215	18987.390625	15553.046875	80.847878
590.204407	1059.111084	18939.837891	15544.797852	81.012856
590.545410	1056.436157	18981.966797	15622.147461	81.256790
590.886353	1052.497925	18975.724609	15625.118164	81.305786
591.227112	1048.411255	18972.902344	15633.143555	81.367630
591.567932	1050.417603	18905.064453	15593.762695	81.454117
591.908752	1052.275146	18864.421875	15544.648438	81.362305
592.249512	1051.977905	18877.201172	15539.077148	81.273033
592.590149	1048.782837	18816.498047	15464.179688	81.132530
592.930786	1050.566162	18733.873047	15428.366211	81.307190
593.271423	1051.680786	18622.789063	15359.041992	81.425499
593.612000	1049.526001	18546.626953	15289.866211	81.386848
593.952576	1045.959351	18526.564453	15260.664063	81.317009
594.292969	1046.999634	18548.632813	15246.620117	81.133118
594.633484	1040.609619	18632.447266	15298.781250	81.049927
594.973877	1045.067749	18738.107422	15313.417969	80.643867
595.314209	1047.742676	18853.722656	15426.209961	80.750771
595.654480	1061.562988	18995.937500	15567.237305	80.881958
595.994812	1058.219360	19182.509766	15736.945313	80.989243
596.335022	1050.863403	19384.314453	15863.110352	80.793556
596.675171	1044.547607	19540.648438	15987.940430	80.792122
597.015320	1044.324707	19680.931641	16118.266602	80.883507
597.355408	1043.507446	19773.068359	16200.891602	80.927597
597.695496	1044.696167	19844.472656	16211.739258	80.676720
598.035461	1044.696289	19808.435547	16156.161133	80.535469
598.375366	1052.943848	19764.001953	16106.153320	80.450867
598.715271	1053.166870	19697.875000	16048.272461	80.425529
599.055176	1051.234985	19532.921875	15925.375977	80.480423
599.395081	1048.857300	19322.125000	15791.928711	80.681091
599.734802	1050.714844	19051.736328	15605.057617	80.852875
600.074524	1052.126587	18768.347656	15411.053711	81.049606
600.414246	1053.018188	18405.525391	15118.523438	81.057480
600.753906	1056.659058	18063.435547	14817.002930	80.910942
601.093506	1064.757935	17746.982422	14535.915039	80.751564
601.433044	1063.643555	17487.591797	14337.750000	80.821648
601.772583	1056.510376	17272.484375	14224.364258	81.202980
602.112122	1054.652832	17218.615234	14203.708008	81.347961
602.451538	1053.686890	17262.228516	14222.430664	81.245705
602.790894	1055.618774	17366.107422	14262.629883	80.972504
603.130310	1054.504272	17527.269531	14362.492188	80.787819
603.469604	1055.024414	17695.935547	14506.713867	80.835060
603.808838	1052.795288	17998.275391	14688.309570	80.466972
604.148010	1054.355591	18239.087891	14894.723633	80.538750
604.487305	1061.339966	18515.125000	15076.096680	80.296379
604.826416	1064.163452	18646.640625	15244.168945	80.648514
605.165527	1058.293701	18801.115234	15365.504883	80.636612
605.504456	1049.377319	18933.744141	15451.101563	80.526886
605.843445	1047.296875	19055.898438	15530.458008	80.423576
606.182434	1048.634277	19073.583984	15548.143555	80.441338
606.521423	1049.971802	18985.310547	15506.309570	80.602539
606.860229	1047.668335	18855.429688	15386.754883	80.521553
607.199036	1042.095703	18685.798828	15212.292969	80.313057
607.537903	1047.668335	18501.824219	15060.195313	80.281898
607.876648	1049.525879	18236.041016	14883.653320	80.494080
608.215271	1050.046021	17949.828125	14706.069336	80.805916
608.553955	1041.872681	17685.681641	14508.051758	80.908035
608.892578	1048.931519	17444.498047	14299.410156	80.817451
609.231140	1052.498047	17307.853516	14146.495117	80.551895
609.569641	1057.401978	17182.652344	14043.510742	80.532761
609.908081	1057.030518	17142.380859	14021.518555	80.598106
610.246521	1056.138794	17085.615234	13970.323242	80.565231
610.584961	1053.241089	17067.111328	13923.512695	80.369522
610.923340	1055.618774	17016.958984	13853.147461	80.178284
611.261597	1056.361816	16960.560547	13795.041992	80.096329
611.599854	1059.630981	16867.759766	13719.921875	80.087219
611.938110	1049.971802	16768.638672	13632.617188	80.049065
612.276245	1047.742676	16593.656250	13514.327148	80.192032
612.614319	1053.315430	16359.081055	13348.557617	80.330788
612.952393	1057.179077	16093.375000	13155.965820	80.464417
613.290466	1054.578613	15848.324219	12963.000977	80.496323
613.628479	1046.702271	15555.200195	12744.254883	80.625526
613.966370	1036.151367	15258.583008	12517.260742	80.725365
614.304260	1050.417603	14982.325195	12297.101563	80.726089
614.642151	1050.268921	14796.198242	12096.781250	80.362061
614.979980	1056.881958	14669.437500	11952.856445	80.043564
615.317749	1046.330933	14511.766602	11807.148438	79.914368
615.655396	1046.479614	14406.257813	11737.006836	80.020248
615.993164	1054.504272	14298.295898	11692.648438	80.325516
616.330811	1058.442383	14274.890625	11667.086914	80.268501
616.668396	1061.265747	14223.918945	11626.963867	80.270279
617.005859	1054.950073	14172.204102	11561.652344	80.098335
617.343445	1051.309204	14134.383789	11562.543945	80.342239
617.680908	1051.234985	14154.816406	11562.246094	80.214798
618.018311	1046.330933	14182.679688	11606.159180	80.386330
618.355652	1049.674438	14184.538086	11598.655273	80.312828
618.692993	1044.473389	14144.934570	11583.793945	80.449997
619.030273	1050.491821	14110.754883	11529.331055	80.234520
619.367554	1046.033691	14106.668945	11530.073242	80.272049
619.704712	1048.411499	14131.633789	11532.823242	80.136314
620.041870	1048.114136	14158.012695	11556.450195	80.155739
620.379028	1056.361816	14130.742188	11534.531250	80.142761
620.716064	1051.309204	14062.903320	11478.061523	80.134315
621.053040	1047.371216	13970.471680	11411.114258	80.195488
621.389954	1039.123535	13894.237305	11353.828125	80.238152
621.726929	1040.609497	13817.631836	11302.484375	80.315071
622.063843	1046.999634	13771.489258	11257.085938	80.239655
622.400635	1045.439331	13743.106445	11207.301758	80.029366
622.737427	1049.823120	13709.819336	11187.315430	80.075005
623.074219	1043.507324	13660.852539	11164.950195	80.218483
623.410889	1049.228638	13582.016602	11108.182617	80.261101
623.747559	1050.789063	13543.676758	11082.473633	80.299164
624.084167	1052.275024	13543.231445	11050.301758	80.042122
624.420715	1058.739502	13568.867188	11069.694336	80.022804
624.757324	1067.061401	13600.221680	11075.711914	79.857353
625.093750	1069.141968	13617.163086	11095.253906	79.901939
625.430176	1060.522827	13667.540039	11134.335938	79.906395
625.766602	1051.903687	13702.239258	11159.897461	79.902969
626.102905	1050.417603	13800.617188	11219.785156	79.758499
626.439209	1047.965698	13870.015625	11269.046875	79.714874
626.775452	1048.411377	13978.421875	11343.424805	79.621078
627.111694	1050.566162	14022.261719	11381.988281	79.645889
627.447876	1058.739502	14069.590820	11427.609375	79.694016
627.783997	1055.024414	14086.979492	11450.495117	79.769081
628.120056	1058.590820	14122.867188	11505.108398	79.962463
628.456055	1052.126587	14112.166992	11476.278320	79.817146
628.792053	1056.436157	14095.151367	11458.593750	79.779007
629.128052	1048.337036	14029.542969	11382.582031	79.609283
629.463928	1055.247192	13961.406250	11345.430664	79.730797
629.799744	1054.281372	13854.187500	11272.465820	79.830154
630.135559	1055.247437	13752.616211	11170.522461	79.664337
630.471375	1053.166870	13635.143555	11056.096680	79.502052
630.807068	1052.869507	13494.414063	10935.799805	79.434914
631.142700	1050.937622	13348.335938	10843.961914	79.634926
631.478333	1054.207031	13198.243164	10720.174805	79.594360
631.813965	1050.491821	13061.006836	10617.413086	79.654549
632.149475	1051.234863	12928.524414	10497.414063	79.531448
632.484924	1042.169922	12825.465820	10410.331055	79.503738
632.820435	1045.587769	12758.520508	10354.530273	79.475761
633.155884	1048.188477	12687.858398	10331.199219	79.753212
633.491150	1049.525879	12625.295898	10293.824219	79.859047
633.826477	1049.600220	12547.128906	10218.258789	79.744598
634.161804	1051.903564	12472.975586	10141.429688	79.585579
634.497009	1046.553833	12406.473633	10074.928711	79.475693
634.832153	1044.547729	12308.617188	10014.074219	79.629539
635.167297	1046.033691	12233.051758	9946.086914	79.556976
635.502380	1056.213135	12152.656250	9894.893555	79.653275
635.837463	1057.921997	12081.770508	9840.429688	79.668251
636.172424	1057.625000	12011.109375	9772.368164	79.561378
636.507324	1050.640503	11945.796875	9699.403320	79.381721
636.842224	1053.835571	11880.411133	9628.963867	79.204437
637.177124	1049.228760	11757.291992	9570.338867	79.576576
637.511963	1045.810791	11637.070313	9480.358398	79.636871
637.846741	1043.581665	11529.999023	9381.015625	79.506981
638.181396	1048.559937	11418.174805	9259.307617	79.180840
638.516113	1055.247192	11290.745117	9167.543945	79.256493
638.850769	1048.039917	11189.320313	9083.656250	79.236702
639.185303	1037.860352	11104.096680	9026.293945	79.358696
639.519836	1034.368164	11031.502930	8971.904297	79.398109
639.854370	1039.494995	10945.460938	8902.580078	79.377266
640.188843	1040.163696	10847.678711	8817.651367	79.301315
640.523254	1041.798462	10747.368164	8755.832031	79.480484
640.857605	1036.597290	10632.719727	8681.305664	79.664558
641.191895	1042.095703	10570.157227	8614.508789	79.474854
641.526184	1040.906738	10508.113281	8531.958008	79.126305
641.860413	1042.541382	10456.028320	8456.764648	78.761703
642.194580	1044.919067	10376.078125	8408.838867	78.917526
642.528748	1049.971680	10285.354492	8365.000000	79.206551
642.862793	1055.321655	10213.280273	8342.858398	79.575989
643.196838	1054.875610	10169.144531	8304.147461	79.537613
643.530823	1054.504272	10142.469727	8242.400391	79.092461
643.864746	1057.847778	10103.015625	8195.070313	78.906471
644.198669	1059.779663	10056.650391	8152.123047	78.831223
644.532532	1059.259644	10010.359375	8130.946777	79.003555
644.866333	1053.315308	9973.803711	8106.649902	79.068932
645.200073	1054.652710	9957.233398	8091.640625	79.044357
645.533813	1057.179077	9942.818359	8082.278809	79.061272
645.867554	1062.974731	9963.698242	8080.123535	78.837959
646.201172	1064.683716	9953.221680	8076.557129	78.886688
646.534729	1070.107788	9950.842773	8075.739746	78.885719
646.868225	1064.386353	9949.728516	8068.830078	78.831451
647.201782	1058.962402	9966.373047	8067.492188	78.682014
647.535217	1047.668335	9986.434570	8059.170410	78.439255
647.868591	1054.429810	9965.703125	8057.238281	78.583702
648.201965	1054.652954	9957.530273	8046.761719	78.537636
648.535278	1061.340210	9947.127930	8034.353516	78.473770
648.868591	1059.779663	9918.298828	8034.130371	78.730431
649.201782	1056.213135	9883.599609	8013.994141	78.820396
649.534912	1057.253418	9858.336914	8014.812012	79.053429
649.868103	1051.309204	9837.605469	7971.939453	78.766190
650.201172	1053.463989	9787.823242	7942.886719	78.877251
650.534180	1040.981201	9733.582031	7905.512207	78.969826
650.867188	1039.049316	9698.363281	7893.475098	79.156677
651.200134	1039.049194	9690.041016	7881.141113	79.090256
651.533020	1041.501221	9657.125000	7856.175781	79.096703
651.865845	1047.519775	9608.307617	7825.935059	79.179802
652.198608	1054.504272	9538.909180	7776.300293	79.225304
652.531433	1056.881958	9491.800781	7734.914063	79.171265
652.864136	1048.560059	9465.275391	7684.238770	78.839294
653.196777	1168.336060	9580.964844	7772.361816	78.501335
653.529358	1175.246094	9549.014648	7732.164063	78.303070
653.861938	1174.651611	9463.492188	7674.505371	78.416916
654.194519	1044.621826	9262.651367	7510.667969	78.681221
654.526978	1034.888306	9197.117188	7459.546875	78.712059
654.859375	1036.968750	9153.203125	7410.878906	78.532852
655.191833	1046.330933	9113.749023	7368.229004	78.363335
655.524170	1050.269043	9057.948242	7327.437012	78.389351
655.856445	1057.104858	8988.995117	7309.381348	78.824547
656.188660	1057.030396	8936.016602	7290.954590	79.120895
656.520874	1062.008911	8906.295898	7260.936035	79.024734
656.853088	1062.900513	8931.708008	7257.294922	78.720879
657.185181	1055.841675	8929.404297	7242.657715	78.577087
657.517212	1050.343384	8951.471680	7248.453613	78.445885
657.849243	1047.742676	8985.130859	7263.834473	78.314072
658.181274	1054.652832	9040.188477	7289.914063	78.081940
658.513123	1062.380371	9096.807617	7337.542480	78.103416
658.844971	1059.408203	9160.633789	7403.671875	78.312393
659.176819	1054.652832	9237.684570	7468.909668	78.384850
659.508667	1049.005737	9300.323242	7545.589844	78.733902
659.840393	1051.383423	9351.889648	7583.930176	78.700584
660.172058	1054.281250	9405.684570	7612.537109	78.528786
660.503662	1056.510376	9429.832031	7611.273438	78.281517
660.835266	1045.290649	9445.139648	7611.868652	78.174957
661.166931	1036.968872	9398.328125	7593.292480	78.412178
661.498413	1035.259766	9359.245117	7568.995605	78.492882
661.829773	1045.439331	9278.922852	7511.633301	78.535339
662.161194	1051.383667	9205.140625	7427.523438	78.198799
662.492615	1050.491821	9088.262695	7326.768066	78.084785
662.823975	1051.680664	8944.709961	7213.160156	78.062294
663.155212	1049.080078	8788.823242	7121.321777	78.455338
663.486450	1050.789063	8654.334961	7023.613281	78.553139
663.817627	1048.931519	8524.157227	6915.428223	78.479195
664.148743	1045.067749	8396.059570	6809.175781	78.412659
664.479858	1040.015137	8281.929688	6693.337891	78.063927
664.810913	1043.210083	8205.398438	6621.709473	77.888199
665.141907	1047.222534	8116.310059	6553.871582	77.897591
665.472778	1043.061523	8044.532715	6511.890625	78.109711
665.803711	1044.101807	7981.970215	6457.353027	78.024704
666.134583	1043.507446	7956.111816	6412.770996	77.673523
666.465454	1052.943848	7914.800293	6387.284668	77.739029
666.796143	1050.417603	7868.509766	6364.994141	77.948151
667.126831	1055.841675	7842.652344	6349.390625	77.997589
667.457458	1057.550659	7832.546875	6317.960449	77.644470
667.788147	1060.077026	7818.429688	6302.060059	77.563026
668.118774	1063.272095	7785.587402	6286.010254	77.692551
668.449219	1057.847900	7762.033691	6287.347656	78.003510
668.779663	1062.454590	7744.721191	6289.428223	78.221565
669.110107	1059.482422	7721.910156	6278.579590	78.336266
669.440552	1064.015015	7704.375000	6266.097168	78.340363
669.770874	1051.234985	7681.935059	6241.057129	78.269600
670.101135	1047.222656	7657.712402	6213.713379	78.155945
670.431396	1041.352661	7616.771973	6171.732910	78.023621
670.761597	1051.903687	7566.023438	6137.627441	78.072311
671.091797	1047.891235	7536.228027	6121.206543	78.191307
671.421875	1046.776733	7519.287109	6105.900879	78.163246
671.751892	1036.820190	7507.917969	6075.510254	77.864532
672.081909	1033.030762	7469.280762	6041.925781	77.823189
672.411865	1035.779907	7407.683594	5996.453125	77.852295
672.741821	1044.027466	7351.882324	5953.877441	77.837082
673.071716	1052.943848	7317.332031	5924.675781	77.768677
673.401550	1052.498047	7294.743652	5902.904785	77.702911
673.731262	1045.290649	7258.929688	5884.701172	77.883675
674.060974	1044.919067	7213.308105	5844.057129	77.802132
674.390625	1047.148315	7152.825684	5797.320801	77.799271
674.720276	1052.349487	7106.609375	5755.859863	77.689270
675.049927	1052.572388	7048.876465	5717.148438	77.790855
675.379395	1050.491821	7012.765137	5700.058594	77.983124
675.708923	1046.182251	6976.728027	5662.907715	77.846550
676.038330	1045.067749	6980.518066	5634.895020	77.329048
676.367737	1048.708618	6949.385254	5610.747559	77.313828
676.697083	1050.714722	6925.830566	5598.933105	77.414955
677.026428	1047.817017	6874.636230	5581.471191	77.806671
677.355652	1044.547607	6858.066895	5553.459473	77.559074
677.684875	1051.234863	6850.562500	5549.521484	77.565659
678.013977	1059.853882	6849.373535	5553.905762	77.623917
678.343079	1064.460815	6849.968262	5552.939941	77.581421
678.672180	1061.414429	6849.076660	5537.039063	77.330437
679.001221	1059.185181	6864.753906	5537.930176	77.145676
679.330139	1062.380249	6907.998047	5571.218750	77.131943
679.659058	1060.596924	6931.329590	5615.354004	77.584129
679.987976	1054.355591	6981.260254	5651.167969	77.558403
680.316772	1047.371094	7003.328613	5675.464844	77.705284
680.645630	1050.937744	7045.384277	5684.900879	77.304268
680.974304	1054.875610	7073.544922	5702.139160	77.214134
681.302979	1054.652832	7096.727051	5735.501465	77.470886
681.631653	1048.857178	7128.231934	5762.250488	77.530891
681.960266	1047.668335	7153.865723	5779.266113	77.488449
682.288757	1044.919067	7175.710938	5769.532715	77.063675
682.617249	1049.748901	7154.832031	5759.798340	77.149635
682.945679	1046.479614	7100.070313	5746.275391	77.636497
683.274109	1050.863403	7049.916016	5711.501953	77.689575
683.602478	1049.005859	7004.369141	5678.511719	77.736748
683.930725	1054.281128	6953.619629	5625.607422	77.488792
684.259033	1051.606323	6883.850098	5573.818848	77.538124
684.587280	1050.789063	6806.649902	5516.828613	77.591164
684.915344	1043.210327	6746.390137	5452.334473	77.309929
685.243469	1052.349487	6684.125000	5399.728027	77.193748
685.571533	1049.451660	6641.994629	5336.867188	76.663078
685.899536	1055.024414	6586.416504	5291.245117	76.585075
686.227539	1055.692993	6543.468750	5253.796875	76.499191
686.555420	1050.566162	6514.342285	5247.258301	76.809372
686.883301	1052.498047	6514.416504	5253.054199	76.906242
687.211121	1047.817017	6521.104004	5256.323242	76.891754
687.538940	1060.299805	6516.349121	5269.400391	77.145576
687.866638	1058.665161	6510.404297	5260.112793	77.066193
688.194336	1056.584717	6488.113281	5255.060059	77.298233
688.521973	1052.943848	6484.695801	5225.189941	76.812164
688.849609	1056.213257	6446.355469	5192.720215	76.742073
689.177063	1053.463989	6423.841309	5153.190918	76.339645
689.504578	1053.538208	6340.845215	5103.036621	76.589058
689.832031	1050.491821	6269.143066	5069.675293	77.015755
690.159485	1051.829346	6182.952637	5026.504395	77.462090
690.486816	1055.990234	6134.878906	4981.700195	77.294662
690.814087	1057.699219	6070.681152	4922.184082	77.089546
691.141296	1056.659058	6005.740234	4870.691895	77.065475
691.468506	1049.451782	5917.171875	4806.271484	77.178223
691.795715	1047.594116	5826.447754	4735.609375	77.173637
692.122803	1050.194702	5732.975098	4661.529785	77.119461
692.449829	1050.789185	5660.307129	4610.260742	77.220039
692.776855	1049.377319	5607.255371	4570.954590	77.263527
693.103821	1052.349487	5579.466309	4541.456543	77.071281
693.430664	1045.216309	5541.645996	4511.290039	77.085022
693.757568	1044.027466	5495.205566	4484.020996	77.282768
694.084351	1039.792236	5441.559570	4437.209473	77.183022
694.411133	1042.764404	5383.455078	4394.039551	77.206039
694.737854	1053.018188	5355.665527	4354.510742	76.731659
695.064575	1056.361694	5323.195313	4328.207520	76.680885
695.391174	1060.448364	5305.734375	4310.449707	76.555534
695.717773	1053.389648	5286.490234	4296.629395	76.616173
696.044250	1048.931519	5255.728516	4297.892090	77.231216
696.370789	1043.210083	5262.638672	4289.793457	76.943672
696.697205	1046.182251	5291.542480	4296.629395	76.564697
697.023621	1049.451660	5349.127441	4310.152344	75.835968
697.349915	1054.578491	5409.015137	4350.646973	75.694489
697.676208	1042.541504	5470.537598	4418.262207	76.235855
698.002380	1039.569336	5546.326660	4486.918457	76.492897
698.328674	1039.866577	5645.892578	4565.902344	76.552666
698.654724	1050.640503	5738.993652	4621.852051	76.171982
698.980896	1052.869507	5828.380371	4686.272949	76.084076
699.306946	1060.819946	5872.589844	4722.829590	76.105255
699.632935	1062.751831	5901.939941	4752.847656	76.254440
699.958862	1066.838379	5926.459473	4750.692871	75.805382
700.284729	1060.596924	5938.199219	4762.804199	75.902191
700.610596	1057.922119	5914.570801	4735.609375	75.724800
700.936340	1045.142090	5844.206543	4696.451660	76.083778
701.262146	1039.866699	5738.176270	4619.920410	76.198761
701.587830	1038.529175	5629.322754	4547.697754	76.439255
701.913513	1049.897583	5510.587402	4453.928223	76.311752
702.239075	1050.268921	5391.331055	4343.811523	75.869507
702.564697	1050.566162	5262.267090	4240.456543	75.738762
702.890137	1044.919067	5150.664551	4156.197266	75.778641
703.215698	1048.634277	5045.601074	4084.197510	75.946671
703.541016	1047.445435	4951.830566	4025.052734	76.263153
703.866455	1050.046021	4851.076172	3967.022461	76.741737
704.191711	1058.293579	4790.519531	3930.688477	76.961975
704.517029	1060.299805	4727.361816	3882.986084	76.974052
704.842163	1056.956177	4690.136230	3841.004883	76.628426
705.167419	1052.572266	4636.192871	3788.770264	76.352890
705.492493	1052.423706	4611.970215	3753.104736	75.871498
705.817566	1052.423706	4558.025879	3724.275391	76.216621
706.142578	1048.559937	4533.951660	3703.396484	76.170395
706.467590	1053.315430	4511.066895	3686.009521	76.138908
706.792480	1054.801392	4507.574707	3671.446045	75.783844
707.117371	1054.207031	4492.045410	3669.291260	76.067688
707.442200	1043.061646	4480.305176	3658.666016	76.095985
707.766907	1043.433228	4485.877930	3659.037842	75.981010
708.091675	1046.776733	4500.961426	3651.161377	75.397964
708.416321	1053.909790	4499.475098	3657.179932	75.554214
708.741028	1055.618774	4505.196777	3668.028076	75.731262
709.065552	1060.671387	4497.543945	3695.371826	76.659821
709.390137	1064.163574	4516.490723	3695.669189	76.224106
709.714600	1066.764282	4534.323730	3698.195313	75.887123
710.039063	1064.089355	4578.013672	3715.730469	75.460960
710.363403	1064.609497	4616.354004	3749.240967	75.586273
710.687744	1063.420532	4671.412109	3787.878662	75.511757
711.012085	1055.916016	4697.863770	3821.091797	75.925743
711.336304	1051.606445	4743.560059	3858.763428	76.034462
711.660461	1055.618774	4772.018066	3881.202881	76.030151
711.984619	1059.631104	4802.630859	3883.431641	75.442177
712.308716	1057.996460	4788.959473	3891.010498	75.932518
712.632751	1051.383423	4767.337402	3882.985596	76.201210
712.956726	1046.925293	4728.328125	3860.397705	76.423920
713.280701	1046.850952	4693.554199	3815.816162	75.930649
713.604553	1053.835571	4651.573730	3776.510010	75.677383
713.928467	1056.733276	4621.777832	3744.708252	75.398079
714.252258	1055.470093	4586.930176	3720.708740	75.471298
714.575989	1058.145142	4547.178223	3687.049561	75.347641
714.899719	1053.092651	4492.862793	3639.644531	75.195488
715.223267	1051.977905	4449.469727	3598.852295	74.963379
715.546936	1044.696167	4405.110840	3579.607666	75.434494
715.870422	1046.405151	4372.789551	3565.936279	75.743843
716.193970	1044.547607	4336.826660	3541.713623	75.849159
716.517395	1045.290649	4304.950684	3518.828125	75.883301
716.840820	1046.330933	4262.003906	3510.580322	76.632469
717.164124	1050.194580	4235.105957	3491.336182	76.647079
717.487488	1043.730347	4201.224609	3452.624268	76.291321
717.810730	1048.634277	4184.357422	3405.145264	75.150482
718.133972	1047.073853	4139.181641	3371.931885	75.186829
718.457092	1048.485596	4105.819824	3335.077881	74.790390
718.780212	1046.330933	4040.433594	3293.765625	75.062042
719.103210	1047.445313	3989.610352	3251.041748	74.897102
719.426208	1047.073853	3929.499268	3215.301758	75.222351
719.749207	1044.324829	3898.366455	3192.565186	75.270111
720.072083	1043.879028	3853.487549	3152.218506	75.040329
720.394958	1050.937866	3816.336670	3132.751221	75.280762
720.717773	1054.355713	3762.169678	3087.649414	75.089859
721.040527	1054.652954	3733.934570	3065.953125	75.068634
721.363281	1052.200806	3699.309326	3031.328125	74.765633
721.685913	1046.182251	3675.309814	3011.117920	74.737175
722.008545	1055.247192	3641.130127	2986.746826	74.694016
722.331055	1050.194702	3613.266846	2964.975586	74.706474
722.653503	1049.971680	3591.942139	2951.898438	74.820961
722.976013	1037.786011	3570.171631	2946.177002	75.359413
723.298401	1044.250488	3559.471924	2933.546143	75.114487
723.620789	1046.776733	3547.434814	2919.576904	74.892288
723.943115	1044.547607	3534.357422	2911.700928	74.991806
724.265381	1042.467163	3536.883545	2903.453125	74.606064
724.587585	1045.067749	3536.735107	2909.545898	74.828529
724.909790	1051.680664	3533.762939	2897.434814	74.363136
725.231873	1050.046021	3519.719971	2891.044678	74.544205
725.553894	1053.389648	3507.682861	2884.877686	74.623848
725.875916	1098.268433	3557.762695	2933.620361	74.623146
726.197937	1099.531738	3568.536865	2939.416016	74.519257
726.519775	1101.017578	3597.291992	2949.892578	74.065376
726.841675	1055.915894	3578.122070	2910.140381	73.515976
727.163513	1055.544434	3590.976318	2922.772217	73.645355
727.485291	1049.005859	3590.382080	2934.066162	74.174782
727.806946	1050.120239	3597.812500	2961.706299	75.032059
728.128662	1042.987305	3606.951172	2986.597900	75.804916
728.450256	1050.046021	3637.712646	3007.031250	75.627411
728.771790	1051.309204	3649.526611	3005.767822	75.223061
729.093323	1058.590820	3655.173828	3002.944336	74.881241
729.414795	1057.030396	3649.898438	2983.031250	74.280708
729.736145	1053.761108	3645.737305	2978.424561	74.254677
730.057495	1051.754883	3640.536133	2974.486328	74.271683
730.378845	1054.058472	3641.353516	2979.390625	74.414871
730.700134	1054.504272	3645.142822	2987.563721	74.617104
731.021301	1058.368042	3661.117920	2989.272705	74.187096
731.342468	1045.587891	3649.675537	2998.857666	75.007835
731.663574	1051.680664	3638.975830	3000.641357	75.328117
731.984680	1042.392944	3625.155518	3005.322266	76.001152
732.305664	1050.640503	3643.805420	3003.018799	75.289398
732.626648	1043.804688	3656.510986	3002.201416	74.956635
732.947571	1049.451660	3670.034180	3004.876221	74.617935
733.268433	1049.525879	3673.972656	3002.647217	74.420303
733.589233	1051.457886	3670.703125	2998.189209	74.324135
733.909973	1054.727173	3633.997314	2979.093750	74.608963
734.230713	1054.132690	3590.604492	2954.425049	74.918732
734.551331	1053.538208	3549.960938	2911.477783	74.424072
734.871948	1048.411377	3538.815674	2890.375977	73.962471
735.192505	1044.844849	3499.137939	2852.481445	73.652031
735.513062	1040.163696	3451.584229	2821.423096	73.867645
735.833435	1042.244263	3393.702393	2786.723633	74.187134
736.153931	1043.581787	3350.086914	2761.757813	74.492615
736.474304	1048.783081	3326.978516	2742.662109	74.351791
736.794617	1050.566284	3305.282227	2709.077148	73.557426
737.114807	1048.039917	3295.920166	2695.033936	73.268761
737.434998	1047.222656	3280.688232	2691.987549	73.641830
737.755188	1050.343384	3272.663330	2681.659424	73.405998
738.075256	1055.544434	3272.663330	2688.569824	73.655289
738.395325	1049.823242	3286.260742	2685.448975	73.135323
738.715271	1045.142090	3305.430908	2705.510742	73.458252
739.035278	1050.566284	3314.272705	2716.804688	73.606644
739.355164	1060.299927	3325.418213	2733.745850	73.878967
739.675049	1066.095337	3330.322266	2739.615479	73.911324
739.994873	1062.900391	3330.099365	2740.432861	73.991409
740.314636	1054.504150	3307.957031	2734.934570	74.571358
740.634277	1050.120239	3292.947998	2725.944092	74.719246
740.953979	1049.451660	3266.644775	2699.938232	74.440361
741.273499	1053.463989	3253.864502	2680.099365	73.924515
741.593140	1048.188477	3223.177490	2652.458496	73.759911
741.912598	1045.439331	3194.793945	2632.545166	73.841049
742.232117	1039.569336	3161.283203	2596.805664	73.395210
742.551453	1043.953247	3119.302490	2571.616943	73.609962
742.870850	1042.021362	3082.968506	2540.038574	73.398140
743.190063	1048.634277	3038.312500	2518.044922	73.851669
743.509338	1044.250488	3005.322266	2502.144287	74.341682
743.828552	1042.467163	2993.433838	2491.444580	74.269714
744.147705	1040.981079	2970.548584	2479.630615	74.558136
744.466797	1044.399048	2940.084717	2451.321045	74.217049
744.785828	1044.844849	2909.100342	2436.906250	74.671173
745.104858	1050.863403	2888.741211	2416.918945	74.327873
745.423706	1057.030518	2888.444092	2414.615479	74.127708
745.742615	1067.878662	2873.211914	2385.043213	72.959633
746.061401	1067.581421	2867.862305	2377.092773	72.739281
746.380249	1063.048950	2846.314453	2365.575684	73.041664
746.698975	1063.717896	2828.407227	2368.993652	73.966316
747.017639	1062.454712	2815.033203	2357.922607	73.917824
747.336304	1065.723999	2818.525391	2347.668945	73.136917
747.654907	1060.894165	2814.587158	2340.164307	72.947212
747.973389	1059.854126	2817.707764	2337.637939	72.690002
748.291931	1050.566162	2803.070313	2337.935059	73.458824
748.610352	1050.268921	2807.231201	2337.786377	73.280884
748.928711	1051.532104	2802.698486	2342.170166	73.701622
749.247070	1060.374146	2801.063721	2343.730469	73.726891
749.565308	1053.909790	2802.030029	2348.337158	74.046814
749.883545	1050.937622	2788.655518	2339.198242	74.135201
750.201782	1046.628052	2792.742188	2333.997070	73.727654
750.519836	1046.628052	2786.203857	2322.182861	73.325623
750.837952	1050.863403	2780.927979	2320.994141	73.415222
751.155884	1047.891235	2769.410889	2311.780518	73.417068
751.473877	1050.417603	2735.826172	2296.845703	73.954063
751.791809	1042.541626	2717.621826	2287.854980	74.343506
752.109619	1045.216431	2715.689941	2279.607178	73.894661
752.427490	1047.891235	2727.207031	2280.052979	73.372841
752.745300	1047.222534	2736.346436	2273.514648	72.599297
753.062988	1049.154297	2723.343018	2260.586182	72.359337
753.380615	1046.405273	2727.801514	2256.425049	71.965179
753.698303	1053.612549	2712.866455	2255.607910	72.441917
754.015808	1046.850952	2706.030762	2261.403564	73.201988
754.333374	1046.702393	2689.758545	2251.967041	73.355049
754.650757	1036.968750	2696.965820	2238.443604	72.378128
754.968262	1045.810791	2697.486084	2232.350830	71.838577
755.285583	1053.835571	2698.006104	2232.499268	71.687439
755.602905	1063.940674	2682.031006	2231.905029	72.181656
755.920105	1064.609497	2678.835938	2226.332275	71.967773
756.237305	1058.070801	2663.083984	2226.109619	72.774406
756.554443	1054.429932	2658.254150	2218.382080	72.573547
756.871582	1054.429810	2644.210938	2221.948730	73.438972
757.188599	1056.733276	2653.275879	2227.744141	73.346672
757.505615	1055.692993	2669.993896	2241.638916	73.464989
757.822510	1048.634277	2699.492188	2251.372314	72.855331
758.139465	1049.971802	2714.947266	2245.651123	71.813629
758.456238	1047.371216	2714.724365	2258.059814	72.611404
758.773010	1054.281250	2713.535400	2261.180420	72.737450
759.089783	1048.485718	2723.268799	2285.105957	73.837639
759.406433	1053.984009	2735.603271	2282.876709	73.077942
759.723145	1053.612549	2754.550537	2286.220459	72.466362
760.039673	1055.024292	2751.058350	2271.805664	71.742744
760.356201	1049.748657	2754.624756	2272.177246	71.701904
760.672668	1049.154419	2737.757813	2270.171143	72.309265
760.989136	1048.337036	2738.129639	2281.836670	72.997101
761.305481	1046.851074	2736.271729	2281.985352	73.109932
761.621826	1047.371216	2742.067627	2288.969727	73.263771
761.938049	1048.262817	2749.349365	2291.718750	73.097748
762.254333	1048.783081	2774.463623	2302.641357	72.658768
762.570496	1051.903687	2830.041992	2323.668945	71.522293
762.886597	1056.138794	2899.589600	2381.996826	71.922615
763.202637	1057.699097	3008.962891	2472.497314	72.506760
763.518677	1048.782837	3147.017578	2579.641846	72.959373
763.834656	1044.770508	3301.864502	2677.498779	72.337631
764.150574	1043.061523	3423.720703	2766.587891	72.397026
764.466370	1041.724121	3480.190674	2814.810303	72.713165
764.782288	1034.145142	3502.035889	2823.503662	72.505585
765.097961	1041.724243	3478.184570	2805.373779	72.385727
765.413696	1046.182373	3435.980469	2776.246826	72.393753
765.729309	1056.138916	3344.662842	2722.006104	72.792213
766.044861	1057.253418	3228.601807	2644.285400	73.089699
766.360474	1061.488647	3102.064453	2553.933105	73.138397
766.675903	1055.990234	2981.694092	2467.667725	73.307091
766.991394	1049.451538	2881.385010	2379.396240	72.597870
767.306763	1046.033691	2787.094971	2312.003418	72.712532
767.622131	1047.965698	2707.591309	2262.963623	73.209160
767.937378	1049.154419	2647.480469	2211.174561	72.702324
768.252625	1048.114136	2584.991699	2167.335938	72.824394
768.567810	1045.216431	2545.016846	2133.230957	72.543953
768.882996	1046.330933	2496.719971	2115.918701	73.744888
769.197998	1046.108032	2466.850586	2087.832031	73.322502
769.513062	1052.572388	2431.110840	2053.504395	72.608200
769.828064	1055.395874	2410.825928	2031.882324	72.042557
770.142944	1061.042847	2389.204102	2004.390259	71.026573
770.457825	1060.299805	2362.900879	1986.409058	71.096924
770.772705	1061.117188	2329.018799	1967.015991	71.448669
771.087402	1059.631104	2303.904541	1946.656860	71.288651
771.402100	1054.281250	2289.786865	1930.235962	70.898483
771.716736	1049.525879	2274.629150	1905.939087	69.905388
772.031372	1043.135864	2259.619873	1899.474731	70.394585
772.345947	1050.268921	2240.004150	1898.360352	71.284050
772.660461	1051.903687	2220.388428	1897.617188	72.376938
772.974854	1046.999634	2211.843506	1897.617188	73.024170
773.289246	1039.643677	2200.252197	1886.100220	72.932129
773.603638	1037.711792	2194.159424	1877.629761	72.629143
773.917908	1041.872681	2169.862549	1871.685547	73.565628
774.232178	1044.919067	2152.401367	1857.642212	73.384750
774.546265	1045.290649	2138.506592	1843.302124	72.996689
774.860474	1047.817017	2139.472656	1825.171997	71.208809
775.174561	1049.748901	2136.351807	1817.221680	70.630470
775.488586	1050.046021	2125.132080	1812.020508	70.875671
775.802551	1044.250488	2108.934082	1806.299194	71.575134
776.116516	1043.656128	2084.636963	1794.782227	72.155609
776.430359	1036.894409	2070.891113	1792.553101	73.081345
776.744202	1040.015137	2054.247314	1791.438599	74.087914
777.057922	1032.064819	2062.420654	1779.401489	72.531898
777.371704	1036.745972	2059.596924	1768.702026	71.560379
777.685303	1040.981201	2059.671143	1753.618530	69.956253
777.998962	1051.086304	2052.240967	1756.293457	70.439384
778.312500	1057.848022	2043.250366	1744.405151	69.672775
778.626038	1058.293701	2032.253540	1741.209961	70.117500
778.939453	1058.070679	2027.498413	1742.324585	70.583282
779.252869	1055.618774	2028.835571	1748.863159	71.232269
779.566223	1050.937622	2036.043091	1749.160278	70.877960
779.879578	1047.445435	2030.842163	1751.240845	71.567802
780.192749	1045.067749	2029.950562	1744.850952	71.052437
780.505920	1049.154419	2019.102173	1742.844727	71.518318
780.819031	1046.702515	2007.065063	1729.767212	71.125710
781.132141	1055.916016	2005.207642	1728.058472	70.804634
781.445190	1061.265869	2002.532593	1723.748901	70.382072
781.758118	1066.392700	2001.269531	1721.594116	70.084251
782.071045	1066.838501	1978.012695	1719.513672	71.630119
782.383911	1062.900391	1965.529907	1711.265991	71.830757
782.696838	1060.522827	1957.282349	1695.290894	70.784645
783.009583	1057.550659	1959.288452	1683.848267	69.454514
783.322266	1055.098633	1942.347290	1680.058716	70.437988
783.634888	1053.166870	1929.344360	1675.897827	71.073608
783.947510	1043.953247	1913.815063	1677.606812	72.845314
784.260132	1044.473267	1911.288696	1670.250977	72.192726
784.572571	1045.587891	1900.960815	1664.678223	72.376656
784.885010	1044.919067	1899.177612	1657.693726	71.731758
785.197449	1045.364990	1893.307617	1647.960083	71.065552
785.509766	1045.736572	1888.032227	1653.681274	72.177116
785.822083	1051.680786	1882.236450	1643.947632	71.309708
786.134277	1050.194702	1889.518188	1639.563843	70.219543
786.446533	1054.652954	1883.202515	1634.065430	69.930939
786.758606	1052.423828	1886.769043	1633.173828	69.605484
787.070740	1053.166870	1877.183960	1647.439819	72.119011
787.382690	1047.965454	1886.768921	1650.560547	71.839844
787.694641	1048.039795	1892.044556	1661.780273	72.717659
788.006653	1045.216309	1919.536499	1673.000000	71.802490
788.318481	1042.021362	1951.635254	1693.879272	71.663147
788.630310	1039.494995	1975.486450	1705.247559	71.128059
788.942017	1044.547485	1982.173828	1718.919312	71.923302
789.253784	1048.114136	1990.495605	1727.092407	72.049194
789.565430	1051.309204	1994.359375	1729.544434	71.919319
789.877014	1049.451660	1984.997070	1728.950073	72.631256
790.188538	1052.126465	1974.966187	1718.027466	72.157814
790.500061	1048.114136	1953.790039	1697.297241	71.679405
790.811462	1049.600220	1931.276245	1666.461426	69.964615
791.122925	1043.878906	1902.669800	1638.151978	69.198807
791.434204	1048.782959	1881.790649	1623.068481	68.941200
791.745483	1043.210327	1868.787720	1614.672363	69.219681
792.056702	1044.399048	1856.156250	1603.898438	68.924477
792.367920	1043.581665	1839.363892	1598.400269	69.719902
792.678955	1049.005737	1814.769653	1585.025757	69.998077
792.990112	1052.869507	1796.416992	1574.920532	70.210854
793.301086	1048.262817	1793.147583	1571.130981	70.194504
793.612122	1046.256592	1801.395142	1569.347656	69.270874
793.922974	1052.126465	1796.268188	1575.589233	70.344498
794.233826	1055.544434	1790.546997	1576.257935	70.845131
794.544556	1049.451660	1791.141235	1579.750122	71.498711
794.855286	1046.405273	1794.113403	1575.143433	70.714516
795.166016	1051.457886	1801.766602	1567.415894	68.766098
795.476624	1061.340210	1808.676758	1567.935913	67.786819
795.787292	1064.089233	1822.274414	1580.121582	68.061516
796.097778	1056.659058	1831.265015	1600.183472	70.167862
796.408264	1061.488647	1842.633179	1606.944824	69.827820
796.718689	1056.584595	1855.041626	1616.901489	70.174957
797.029053	1059.482544	1857.419434	1616.827148	69.848206
797.339355	1051.680664	1850.434937	1622.548462	71.469765
797.649658	1050.937622	1848.428711	1616.009888	70.856247
797.959839	1046.405273	1846.497070	1603.155640	69.585808
798.270020	1043.358887	1841.667358	1596.468262	69.285172
798.580078	1047.296875	1819.747925	1587.106079	69.882645
798.890137	1054.058228	1814.472534	1588.592163	70.295090
799.200195	1058.442261	1801.246460	1577.818359	69.920998
799.510071	1052.943848	1794.187866	1572.617188	70.108269
799.820007	1056.213257	1780.293335	1562.660522	69.943542
800.129883	1051.309204	1772.417114	1559.688477	70.499748
800.439575	1049.748901	1748.714722	1549.211548	71.457375
800.749329	1043.730347	1736.826172	1548.245728	72.791580
801.058960	1046.182373	1735.786011	1539.180786	71.490112
801.368591	1050.714844	1745.222290	1528.406860	68.781410
801.678162	1048.931519	1738.609375	1520.307983	68.347336
801.987671	1051.755005	1723.897461	1515.032349	68.925468
802.297119	1050.417603	1715.501343	1518.970337	70.450188
802.606506	1051.086304	1705.916016	1515.701172	70.952011
802.915894	1041.426880	1706.733398	1507.527832	70.058075
803.225159	1035.631348	1707.179321	1495.193726	68.433289
803.534424	1036.820190	1705.321899	1487.689087	67.444687
803.843628	1045.067749	1697.074219	1484.791382	67.441605
804.152771	1054.429810	1693.656250	1501.657837	69.963943
804.461792	1057.550537	1699.154663	1508.419434	70.272133
804.770874	1053.761230	1708.293945	1514.140747	70.337128
805.079773	1054.727051	1711.414551	1516.072632	70.253441
805.388733	1049.600098	1710.299927	1523.428711	71.716171
805.697571	1051.160522	1714.683960	1524.468750	71.332558
806.006470	1040.386719	1728.801392	1524.394531	70.307594
806.315125	1043.953247	1741.061401	1519.713501	68.247696
806.623901	1046.405151	1738.535034	1526.623657	69.382713
806.932495	1057.550537	1731.401978	1521.570923	68.860931
807.241150	1056.213135	1715.649902	1519.862183	70.309860
807.549622	1057.847778	1712.677734	1513.917969	69.647118
807.858154	1058.739380	1699.897827	1510.723022	70.494843
808.166565	1054.207031	1699.080200	1506.264648	70.100235
808.474915	1054.504272	1689.346680	1497.497070	69.779961
808.783264	1046.702393	1678.795776	1487.466187	69.730804
809.091492	1050.046021	1667.278809	1483.379517	70.205849
809.399719	1047.816895	1659.848511	1482.859375	71.081703
809.707825	1056.361816	1659.848267	1473.794434	69.170174
810.015930	1060.968628	1656.504761	1461.014526	67.174080
810.323975	1058.070679	1646.473999	1463.095093	68.834488
810.632080	1050.789063	1642.981812	1472.754272	71.254707
810.939880	1047.742676	1628.418335	1474.463257	73.486908
811.247864	1048.262817	1629.310059	1470.004883	72.583092
811.555664	1047.668335	1618.461914	1456.630493	71.647995
811.863464	1042.318481	1625.892212	1459.305298	71.454010
812.171143	1040.535278	1616.381348	1445.633789	70.348404
812.478882	1044.919067	1613.483521	1444.370605	70.256157
812.786438	1055.098511	1602.783813	1437.311890	69.787041
813.094055	1056.807617	1610.734375	1442.290039	69.590866
813.401489	1051.011963	1609.396851	1442.438843	70.099831
813.708984	1050.714722	1613.186401	1446.748413	70.409538
814.016357	1052.795288	1602.115234	1441.918579	70.837280
814.323730	1049.897583	1594.759399	1433.076538	70.325897
814.630981	1048.857300	1589.038086	1421.931030	69.064606
814.938232	1042.318726	1586.585938	1420.073608	69.406143
815.245361	1048.857178	1591.415649	1419.553345	68.323723
815.552490	1047.742554	1597.434204	1415.764038	66.950531
815.859619	1054.429810	1601.372192	1412.271851	65.425911
816.166565	1056.510376	1608.802612	1417.175781	65.303360
816.473572	1051.234985	1607.762329	1420.667969	66.381821
816.780457	1049.971802	1615.043945	1426.463745	66.627235
817.087341	1046.182251	1615.712524	1429.732910	67.345085
817.394043	1048.039917	1619.279175	1434.859863	67.715927
817.700806	1049.005737	1615.861328	1430.921753	67.374481
818.007507	1050.789063	1610.065552	1438.723633	69.363647
818.314209	1053.686890	1618.610352	1437.460327	67.933708
818.620667	1051.234863	1629.978882	1452.692505	69.367050
818.927246	1052.572388	1648.331543	1455.961914	67.710167
819.233704	1053.686890	1669.136353	1475.354858	68.513824
819.540161	1054.578491	1702.275391	1499.726196	68.727783
819.846497	1056.881958	1744.999390	1535.168579	69.506538
820.152832	1053.241089	1792.776001	1577.372437	70.873100
820.458984	1054.504272	1856.007813	1616.975708	70.177040
820.765259	1043.358887	1932.911133	1660.071411	69.328423
821.071350	1049.005859	2027.275391	1717.507324	68.335098
821.377502	1048.188599	2185.986084	1827.475464	68.490822
821.683472	1047.668335	2497.388672	2039.684082	68.428078
821.989441	1038.974976	3045.296875	2415.209961	68.594925
822.295349	1040.758301	3810.169189	2933.545898	68.346214
822.601196	1045.662231	4659.152344	3519.571289	68.463150
822.907043	1046.405273	5368.966309	4016.508057	68.711647
823.212769	1047.148315	5766.782715	4293.062988	68.774704
823.518494	1051.829346	5791.599609	4311.267090	68.767838
823.824097	1054.950073	5505.533691	4120.754395	68.885445
824.129700	1049.228760	5080.447754	3844.199951	69.333153
824.435242	1045.290771	4628.613770	3539.781982	69.613907
824.740723	1046.628174	4252.865234	3271.548828	69.393517
825.046082	1046.553833	3897.029297	3027.018555	69.478394
825.351501	1047.817017	3569.800049	2801.138428	69.521545
825.656799	1047.296875	3240.193115	2581.722412	69.972557
825.962036	1052.200806	2952.567139	2383.631104	70.061768
826.267212	1052.126465	2748.234375	2243.050537	70.215111
826.572449	1047.445435	2657.733887	2170.233887	69.725922
826.877502	1038.157593	2701.052490	2185.614502	69.003571
827.182495	1031.619019	2847.280518	2269.576416	68.182167
827.487488	1030.058716	3026.126953	2394.182373	68.340530
827.792419	1038.380493	3164.255859	2485.797607	68.085693
828.097290	1051.829224	3186.249268	2506.899658	68.171707
828.402100	1060.671265	3105.630859	2453.104492	68.090988
828.706848	1063.866211	2954.721924	2346.554443	67.836388
829.011597	1054.950073	2770.897217	2230.790771	68.524300
829.316223	1044.399048	2586.403564	2103.733154	68.698509
829.620789	1040.015137	2425.018066	2004.613281	69.645927
829.925354	1043.284546	2276.041016	1904.676147	69.875244
830.229797	1053.761230	2155.224854	1816.627319	69.259308
830.534302	1060.151245	2025.863647	1727.909790	69.146729
830.838562	1054.058472	1920.725220	1651.154907	68.895737
831.142944	1047.296875	1821.902710	1584.728516	69.381302
831.447144	1040.609497	1747.674316	1536.728882	70.166039
831.751404	1045.810791	1699.228882	1501.435181	69.729378
832.055542	1047.445435	1672.405640	1481.819336	69.504250
832.359619	1040.163696	1664.381226	1466.884399	68.360901
832.663635	1043.804565	1674.857788	1476.023560	68.491684
832.967651	1044.919067	1707.253540	1492.741577	67.612747
833.271545	1051.680786	1779.773071	1542.970337	67.476273
833.575439	1044.993530	1887.140625	1607.539429	66.799004
833.879211	1042.987427	2021.925781	1705.544800	67.681213
834.183044	1041.501343	2150.023438	1799.611938	68.389305
834.486694	1047.519653	2241.118652	1874.360352	69.272903
834.790344	1049.228760	2280.945068	1897.022827	68.830299
835.093933	1052.869629	2261.031982	1886.248657	68.979057
835.397522	1044.027466	2204.264648	1838.026489	68.434196
835.700928	1044.176147	2117.999023	1788.986694	69.360649
836.004395	1041.426880	2041.392944	1735.340210	69.393684
836.307739	1045.662231	1965.752808	1700.789429	71.202469
836.611023	1042.244263	1899.771973	1660.368652	72.082146
836.914307	1045.067749	1824.651978	1604.938843	71.816628
837.217529	1044.770508	1746.411133	1540.815430	70.697861
837.520691	1050.937744	1670.473633	1478.475586	69.009377
837.823730	1055.321655	1607.316406	1425.943481	67.142273
838.126831	1059.408203	1563.998047	1392.655884	66.043282
838.429749	1052.275024	1539.700806	1374.154663	66.036644
838.732727	1043.433105	1518.301758	1362.340454	67.156960
839.035522	1036.299927	1502.772461	1356.916260	68.732094
839.338379	1041.575562	1488.729370	1351.863770	69.391830
839.641113	1048.188354	1485.757324	1365.609741	72.542023
839.943848	1059.333862	1500.840698	1377.869629	72.147415
840.246460	1055.098633	1534.202637	1393.398926	70.611031
840.549072	1051.457886	1572.617188	1406.104614	68.049583
840.851563	1050.491821	1587.328979	1413.757813	67.667816
841.154053	1059.110962	1588.592163	1420.444946	68.243027
841.456482	1063.494751	1570.982422	1407.962280	67.877022
841.758850	1055.098755	1555.453125	1391.541382	67.240868
842.061157	1057.847778	1523.874512	1369.101929	66.788902
842.363403	1053.092407	1504.333008	1355.058716	66.919136
842.665588	1054.281250	1477.807007	1332.619263	65.719261
842.967712	1047.965454	1470.525024	1321.696777	64.779343
843.269775	1052.498047	1449.051758	1308.322266	64.511871
843.571777	1056.956177	1430.698853	1304.384155	66.202766
843.873840	1060.522827	1402.686646	1286.997437	66.188942
844.175659	1063.197632	1385.671387	1271.839722	64.700485
844.477600	1061.117188	1377.646606	1260.248535	62.910851
844.779297	1055.470215	1363.603394	1247.914307	62.454842
845.081116	1053.389648	1354.538452	1246.874023	64.248764
845.382751	1051.532104	1341.609985	1247.765625	67.648567
845.684387	1049.525879	1329.052734	1246.799683	70.574188
845.985962	1051.532104	1313.597778	1240.038086	71.930817
846.287537	1056.807617	1309.511108	1226.366333	67.097893
846.588989	1060.299805	1305.498901	1229.710083	69.090904
846.890381	1061.340088	1306.762085	1225.251831	66.787712
847.191711	1059.705444	1304.755859	1225.103271	67.495430
847.493042	1066.987183	1301.486450	1220.347778	65.399178
847.794250	1059.333862	1304.681641	1221.090942	65.929710
848.095459	1059.333862	1296.211060	1220.868042	68.193214
848.396606	1050.714844	1292.570190	1212.248901	66.789536
848.697693	1053.686890	1285.139893	1204.298462	65.072205
848.998657	1053.538330	1284.025391	1205.858765	66.086327
849.299622	1051.234863	1292.941650	1202.589478	62.619099
849.600464	1046.628052	1287.740479	1197.091064	62.403675
849.901367	1044.250488	1290.563965	1194.267578	60.904945
850.202087	1047.965576	1283.282349	1190.775391	60.688328
850.502808	1050.194702	1276.000610	1194.787720	64.034203
850.803467	1048.485718	1270.130737	1195.753784	66.443207
851.104065	1045.216431	1268.644653	1201.920776	70.136322
851.404663	1044.101929	1274.737427	1194.639160	65.270622
851.705139	1043.581787	1278.081055	1187.580444	61.406868
852.005615	1037.934692	1270.130737	1191.518433	66.143997
852.306030	1035.482788	1266.266968	1199.617310	71.120354
852.606384	1034.516724	1262.849121	1193.524536	69.638741
852.906616	1046.405151	1264.409546	1193.747437	67.586845
853.206909	1049.526001	1261.140015	1193.153198	67.872253
853.506958	1056.213257	1266.712769	1200.509155	68.549278
853.807129	1051.309204	1267.530029	1188.620728	63.505226
854.107178	1050.714844	1272.211060	1180.298706	58.503872
854.407166	1047.817017	1256.979126	1181.190430	63.765572
854.707092	1052.052368	1262.626099	1188.769287	64.925911
855.007019	1050.640503	1255.864624	1192.707275	69.225182
855.306763	1051.977905	1255.567505	1184.385376	65.036461
855.606567	1052.200806	1252.075195	1178.812622	63.345692
855.906250	1048.114258	1258.093750	1183.493652	64.472672
856.205933	1038.454712	1261.957397	1187.060181	66.489342
856.505493	1035.482666	1258.613770	1190.329468	69.397232
856.805054	1045.290649	1257.647827	1184.534058	65.570381
857.104492	1063.866455	1264.929565	1184.459595	59.977757
857.403931	1063.420654	1271.245239	1182.230591	57.168373
857.703308	1063.049072	1275.777710	1186.763062	58.155777
858.002563	1051.234985	1262.180298	1184.905396	63.367329
858.301819	1052.498047	1253.412476	1185.202637	66.050301
858.601013	1047.742798	1244.050415	1184.756958	69.795639
858.900208	1047.222534	1254.378540	1190.403931	69.117668
859.199219	1039.494995	1261.362915	1197.314087	71.132004
859.498291	1041.203979	1266.489990	1192.484375	67.150375
859.797302	1039.940796	1269.610718	1184.682617	63.021671
860.096191	1045.959351	1263.443604	1182.750732	62.897144
860.395020	1047.073853	1257.350708	1181.859131	64.098961
860.693787	1050.937744	1248.954468	1185.945801	68.180130
860.992554	1054.801392	1256.161865	1181.190430	62.767551
861.291260	1053.241089	1258.911011	1183.493774	63.330936
861.589844	1058.516479	1265.746826	1179.704346	58.479786
861.888428	1058.293579	1253.486816	1177.252319	60.944088
862.186890	1054.652832	1245.685059	1178.515503	64.838623
862.485413	1046.256714	1229.189941	1174.948975	70.349312
862.783813	1046.553833	1237.586060	1180.595947	70.167282
863.082153	1050.343262	1244.124634	1180.001465	66.909531
863.380371	1054.355591	1256.607544	1192.930054	68.515762
863.678589	1056.510376	1250.143188	1190.701050	69.301620
863.976746	1061.339966	1256.087524	1192.261475	67.226265
864.274902	1061.562988	1254.006958	1188.769165	66.100372
864.572937	1061.934570	1256.087524	1190.701050	66.322182
864.870911	1055.098755	1253.189697	1194.416138	70.330009
865.168884	1059.036743	1251.406372	1192.632935	69.447655
865.466736	1053.761230	1245.090698	1188.917847	70.640770
865.764587	1063.197632	1239.740967	1186.168701	69.654892
866.062317	1058.219238	1231.567749	1182.973633	71.967384
866.360107	1063.123291	1239.518188	1185.499878	69.376488
866.657715	1055.172974	1242.341675	1177.921021	65.581505
866.955322	1052.646606	1258.985352	1185.276978	64.277977
867.252808	1045.587891	1257.499268	1183.493774	65.077148
867.550293	1049.228638	1259.876953	1182.156372	63.104107
867.847717	1053.018188	1252.149414	1177.995483	62.761276
868.145081	1055.990234	1255.715942	1181.710449	62.946438
868.442383	1053.984009	1254.601318	1194.267578	69.925957
868.739624	1054.652710	1256.904785	1194.267578	69.030128
869.036804	1046.925293	1265.523926	1196.868164	68.592773
869.333984	1046.925293	1262.477661	1186.168579	64.598358
869.631042	1046.999634	1254.229858	1182.750610	65.507324
869.928101	1058.442383	1240.261108	1178.515381	66.039955
870.224976	1051.829468	1248.582886	1182.750610	66.540718
870.521851	1052.052246	1257.647827	1185.648438	64.980087
870.818726	1045.142090	1266.712769	1180.001465	60.865173
871.115479	1053.092407	1264.632324	1183.196655	61.503403
871.412231	1053.018188	1268.570313	1184.236938	60.875648
871.708862	1051.457642	1267.009888	1192.558716	65.460266
872.005493	1042.392822	1264.632324	1195.382202	68.839867
872.302063	1040.906860	1258.390869	1193.153076	70.003410
872.598572	1043.878906	1255.121582	1187.729004	68.097084
872.895020	1048.559937	1267.604492	1182.750610	61.261818
873.191406	1039.866577	1278.006836	1182.081909	59.719147
873.487671	1039.495117	1282.539429	1189.958008	61.907597
873.783997	1040.238159	1278.675659	1193.301636	64.194382
874.080200	1050.417603	1277.932495	1202.143677	66.688416
874.376343	1052.943848	1281.053223	1197.091187	63.192204
874.672424	1054.207031	1273.622925	1193.747437	63.596306
874.968445	1055.395874	1275.777710	1184.236694	58.462540
875.264465	1055.990356	1271.096680	1179.704224	57.512894
875.560364	1052.795288	1272.805542	1177.252319	56.568741
875.856201	1044.844849	1277.115112	1183.493774	59.692928
876.152039	1046.405273	1277.115112	1189.958130	62.222252
876.447754	1050.863403	1283.951050	1197.908569	63.085781
876.743469	1058.070679	1267.084351	1196.496704	66.228218
877.039063	1056.510376	1270.799438	1195.530762	64.875168
877.334595	1062.751831	1266.564209	1193.301758	64.053970
877.630127	1067.061401	1271.170898	1188.620483	59.555820
877.925537	1067.655762	1274.143066	1188.694946	58.618221
878.221008	1056.361694	1280.755981	1189.066528	59.139133
878.516296	1045.290771	1287.889038	1206.007446	66.248070
878.811646	1039.940918	1292.644409	1214.923828	69.244354
879.106812	1045.142090	1303.864136	1221.165161	68.035591
879.401978	1044.770630	1317.387329	1217.895874	63.505005
879.697083	1044.250488	1336.185913	1225.103149	61.949543
879.992126	1044.176147	1351.566406	1242.415771	64.491188
880.287109	1042.244263	1387.380493	1272.062500	66.587685
880.582031	1042.541504	1459.008179	1317.981567	66.137360
880.876892	1040.758179	1583.539673	1402.909668	66.721413
881.171753	1046.182251	1810.757446	1550.623535	65.976677
881.466492	1049.377319	2133.454102	1769.890747	66.463318
881.761230	1051.086304	2538.255371	2030.990601	65.890579
882.055786	1047.519653	2911.254883	2280.796143	66.172302
882.350403	1045.290649	3161.655273	2442.256104	66.007782
882.644958	1041.055298	3239.969971	2492.930664	66.026909
882.939453	1039.569336	3172.428955	2444.559570	65.873543
883.233826	1036.745850	3035.860596	2354.133057	65.898529
883.528137	1036.597290	2876.258545	2253.304443	66.137566
883.822449	1035.854370	2726.315430	2162.655273	66.656425
884.116577	1038.900635	2593.313721	2082.036621	67.108032
884.410828	1042.615723	2460.980225	1995.696777	67.195778
884.704956	1040.163696	2303.458740	1888.329468	67.139168
884.999023	1036.522949	2122.903076	1760.157227	66.609673
885.292969	1029.761353	1935.511597	1645.805176	68.014755
885.586914	1040.981079	1791.884399	1544.753540	67.088860
885.880798	1048.411377	1675.674927	1472.531250	67.614304
886.174622	1053.984009	1604.270142	1410.711304	64.825783
886.468384	1054.207031	1543.564819	1377.721069	66.109917
886.762085	1054.281250	1501.509399	1348.743042	65.841515
887.055664	1061.265747	1464.283691	1330.092896	66.703522
887.349304	1057.402100	1430.327515	1306.464722	66.786179
887.642822	1051.903687	1409.151001	1290.118164	66.680550
887.936340	1042.244263	1394.364746	1275.777710	66.322029
888.229736	1042.838745	1381.138794	1262.923340	65.056030
888.523071	1044.399048	1360.482666	1253.561157	66.173027
888.816284	1052.943970	1339.529419	1244.645020	66.891411
889.109619	1053.835571	1327.789551	1237.586304	67.073578
889.402710	1060.299805	1319.913574	1230.007324	65.369232
889.695862	1055.395874	1310.551392	1220.645142	64.764137
889.988892	1059.408325	1295.096313	1208.533813	63.272419
890.281921	1064.386475	1274.142944	1192.781616	61.211529
>>>>>End Processed Spectral Data<<<<<
