Jaz Data File
++++++++++++++++++++++++++++++++++++
Date: Fri Jun 04 16:23:40 2021
User: jaz
Dark Spectrum Present: Yes
Reference Spectrum Present: Yes
Processed Spectrum Present: Yes
Spectrometers: JAZA3586
Integration Time (usec): 69400 (JAZA3586)
Spectra Averaged: 10 (JAZA3586)
Boxcar Smoothing: 1 (JAZA3586)
Correct for Electrical Dark: No (JAZA3586)
Strobe/Lamp Enabled: Yes (JAZA3586)
Correct for Detector Non-linearity: No (JAZA3586)
Correct for Stray Light: No (JAZA3586)
Number of Pixels in Processed Spectrum: 2048
>>>>>Begin Processed Spectral Data<<<<<
W	D	R	S	P
191.335022	0.000000	0.000000	0.000000	0.000000
191.713211	293.792969	294.833221	288.740356	-485.710083
192.091385	587.957458	584.167969	586.471375	39.215939
192.469528	881.453125	885.093994	884.425293	81.633476
192.847641	891.186829	890.815247	889.923645	339.947449
193.225739	898.022644	906.567383	895.793640	-26.086273
193.603790	912.363098	906.567444	902.257996	174.356537
193.981842	916.672668	912.140137	919.198914	-55.735851
194.359863	932.350586	910.877014	927.446472	22.837904
194.737854	939.780823	918.158752	932.647705	32.989986
195.115829	942.901550	925.737610	924.920227	104.762207
195.493774	937.403137	934.802551	921.799561	600.002319
195.871704	935.842773	935.842773	921.873840	0.000000
196.249603	939.260681	936.139954	923.805725	495.235687
196.627457	937.403076	933.539368	923.954346	348.078278
197.005310	930.790222	937.328857	924.474426	-96.591957
197.383133	928.486816	933.836609	930.270081	33.333332
197.760910	936.957336	928.412415	929.749817	84.348572
198.138687	941.712708	922.096741	927.297913	73.485008
198.516449	933.687988	921.948181	922.022461	99.367279
198.894180	922.022400	928.783997	920.016296	-29.669081
199.271866	924.177246	933.316589	916.152527	-87.804115
199.649536	925.960449	932.796387	916.449768	-139.127686
200.027191	931.384583	941.638367	921.056458	-100.725006
200.404816	920.610657	941.712708	923.137024	11.972140
200.782410	918.976074	952.635254	925.960449	20.750282
201.159988	916.598328	958.653748	919.867676	7.773904
201.537537	922.468262	975.297546	920.833679	-3.094084
201.915070	919.570496	970.096252	921.650940	4.117592
202.292557	914.146423	967.049866	916.895569	5.196534
202.670029	918.307373	959.768250	916.523987	-4.301371
203.047485	921.502380	968.833191	911.842957	-20.408321
203.424911	929.304199	963.706238	918.901672	-30.238111
203.802292	923.137024	964.300598	921.205078	-4.693338
204.179688	919.644775	962.517395	918.455872	-2.773108
204.557037	910.579895	958.579407	912.511719	4.024674
204.934357	901.960754	958.059265	903.000916	1.854169
205.311661	903.818298	952.189270	899.731628	-8.448600
205.688934	904.041077	957.687744	903.075378	-1.800109
206.066177	904.635559	950.480286	906.939026	5.024497
206.443390	905.229980	951.817871	912.957520	16.587011
206.820587	912.288757	947.211121	912.585999	0.851149
207.197769	914.072083	946.691101	907.979248	-18.678780
207.574921	910.728455	943.273132	903.223816	-23.059496
207.952042	899.657227	943.495911	899.657288	0.000139
208.329147	903.892578	947.434021	906.790344	6.655191
208.706223	927.520813	970.690735	935.248352	17.900286
209.083267	932.350525	975.446106	938.294739	13.793094
209.460297	931.533203	977.972412	936.585754	10.879926
209.837280	908.870850	960.288391	907.161926	-3.323619
210.214264	904.041199	953.972656	910.877136	13.690642
210.591217	904.784180	957.687805	911.248596	12.219232
210.968124	906.493164	965.786804	911.545837	8.521442
211.345016	914.592102	971.656738	906.864746	-13.541409
211.721893	912.214539	967.867188	905.378662	-12.283111
212.098724	910.431213	956.870422	907.161926	-7.039928
212.475555	907.830750	965.341003	908.870911	1.808653
212.852356	911.471497	965.192383	908.870911	-4.840921
213.229126	910.579895	970.319275	913.997742	5.721262
213.605865	904.115540	957.910645	903.743958	-0.690736
213.982590	898.914307	955.830139	897.725525	-2.088666
214.359283	896.685242	957.019043	891.706970	-8.251215
214.735931	893.787415	962.666016	898.617126	7.011919
215.112579	901.812195	967.198547	905.229980	5.227063
215.489197	904.561340	963.037598	912.214539	13.087702
215.865799	914.740906	957.762024	910.505554	-9.844820
216.242355	905.304382	949.737366	910.431152	11.538208
216.618896	912.660339	940.523865	903.298157	-33.600136
216.995407	904.709961	942.604309	901.663391	-8.039641
217.371902	903.000977	942.752930	894.976257	-20.186981
217.748367	894.158936	945.279236	891.261169	-5.668523
218.124802	897.279602	941.787048	895.719299	-3.505712
218.501236	902.183655	947.359680	901.366394	-1.809059
218.877609	904.784363	952.337952	917.415710	26.562344
219.253983	894.158997	958.579407	912.437317	28.373493
219.630295	885.094055	948.325623	910.059753	39.482967
220.006592	882.419128	938.666260	895.570740	23.381834
220.382889	895.867920	938.517639	900.771912	11.498298
220.759140	907.607727	949.142883	907.236145	-0.894621
221.135391	918.678894	957.019043	909.836731	-23.062412
221.511581	920.387878	953.675476	912.214539	-24.553709
221.887772	917.564270	953.303894	909.391052	-22.868786
222.263931	914.517883	965.192383	915.558105	2.052753
222.640060	916.598389	967.792969	909.168030	-14.513956
223.016159	911.694336	970.467834	910.877014	-1.390630
223.392212	910.877136	960.437012	903.966980	-13.943046
223.768265	904.338379	954.567078	903.372498	-1.922967
224.144302	910.951355	953.006653	894.679016	-38.692722
224.520294	904.932800	948.994385	890.369446	-33.052273
224.896286	907.161926	952.783752	893.415955	-30.130253
225.272217	901.812073	957.019043	897.874084	-7.133136
225.648148	900.846191	964.820801	908.796570	12.427397
226.024048	893.564636	964.152161	910.282654	23.684097
226.399902	897.205383	953.675476	907.979309	19.078995
226.775772	900.474609	955.087219	899.657410	-1.496357
227.151581	901.737793	961.031311	898.988586	-4.636606
227.527374	896.016602	968.387390	906.195984	14.065596
227.903137	900.549072	966.678406	914.369324	20.898821
228.278870	899.657410	965.117981	915.186584	23.722944
228.654572	907.830566	959.471008	909.985352	4.172670
229.030273	900.697571	955.607361	903.000916	4.194780
229.405930	904.784180	953.006775	900.771790	-8.320560
229.781555	904.709961	957.910706	902.332214	-4.469386
230.157181	907.830627	960.362793	910.133972	4.384637
230.532761	909.613953	962.145996	908.202148	-2.687510
230.908325	900.326111	962.145996	899.731628	-0.961636
231.283859	901.217712	961.848816	890.518127	-17.647024
231.659332	899.880188	961.254395	888.660583	-18.280651
232.034821	907.013245	962.443176	896.908203	-18.230297
232.410263	909.613831	956.499023	897.205322	-26.465729
232.785690	913.254700	956.053162	899.731628	-31.597097
233.161087	917.861511	959.694031	901.737793	-38.543503
233.536469	914.220703	965.786804	899.360107	-28.818537
233.911804	910.802795	969.427673	901.960693	-15.082508
234.287140	908.202209	961.105713	894.084656	-26.685480
234.662430	914.072083	963.334778	898.765686	-31.070969
235.037704	919.793457	965.192383	892.375671	-60.393028
235.412933	911.991638	968.387390	890.889648	-37.417694
235.788162	904.635681	957.316223	887.843201	-31.876059
236.163345	904.338379	953.155334	894.456116	-20.243505
236.538513	912.734619	947.879822	904.041199	-24.735723
236.913635	914.369324	957.167664	910.134033	-9.895923
237.288742	915.781006	959.842590	912.511719	-7.419813
237.663834	916.672607	968.610291	916.747009	0.143252
238.038879	920.164856	971.359436	921.279480	2.177231
238.413910	916.969910	976.114807	914.146301	-4.774053
238.788910	907.161926	977.229309	911.694336	6.468644
239.163879	899.211487	982.133362	910.356995	13.440974
239.538834	894.827637	970.319275	916.449768	28.641756
239.913757	900.697571	968.610352	914.517883	20.350090
240.288651	899.360168	963.780579	906.344543	10.841866
240.663528	905.155762	969.056091	905.378662	0.348825
241.038361	902.034973	968.833191	897.874084	-6.229042
241.413177	910.059753	969.278992	901.440613	-14.554629
241.787979	903.669739	968.164368	898.765686	-7.603816
242.162735	899.360168	973.216980	898.840027	-0.704257
242.537476	902.406555	972.251038	893.936035	-12.127687
242.912170	908.647949	984.659485	898.319824	-13.587576
243.286865	919.273254	976.932129	902.034973	-29.897013
243.661514	915.781006	980.201477	906.567444	-14.302227
244.036148	912.437317	977.526611	903.966858	-13.013597
244.410751	912.363098	987.557434	902.480774	-13.142379
244.785339	906.938965	982.876404	901.366394	-7.338371
245.159882	906.716125	977.972412	897.428406	-13.034246
245.534378	907.830750	978.418274	903.521179	-6.105286
245.908890	916.449768	987.483215	897.799805	-26.255186
246.283356	919.199036	994.616211	898.394226	-27.586302
246.657791	914.072083	992.981506	892.821472	-26.930384
247.032196	904.709961	999.000183	897.279602	-7.880307
247.406586	901.960754	998.480042	903.446777	1.539612
247.780960	907.979248	1004.795715	901.737854	-6.446624
248.155289	907.310547	996.919617	897.874084	-10.530700
248.529602	908.053528	998.479980	896.908203	-12.325293
248.903870	897.725403	995.730774	900.103210	2.426201
249.278122	903.075256	986.591553	902.480957	-0.711597
249.652344	907.533447	987.706055	898.765808	-10.935953
250.026550	913.180481	984.585388	890.072327	-32.362137
250.400711	913.106140	991.867004	895.422119	-22.452803
250.774857	912.734619	988.820557	893.341614	-25.488291
251.148987	911.025635	992.758606	898.171204	-15.727351
251.523071	910.059753	999.074402	895.867920	-15.943256
251.897125	906.938965	1004.572754	904.412781	-2.587408
252.271164	906.047424	1003.458252	909.465332	3.508755
252.645187	904.338379	1006.058838	908.796570	4.382787
253.019165	888.809082	997.439758	914.220642	23.392618
253.393112	892.152771	1005.018616	921.502258	26.003870
253.767044	890.443787	994.170410	918.530273	27.077414
254.140930	900.251770	996.770996	912.957520	13.163957
254.514801	895.124817	983.619385	911.620117	18.639902
254.888657	897.056702	988.894836	921.130859	26.213684
255.262466	904.189758	989.935059	917.861511	15.944609
255.636276	907.979248	996.919617	915.186584	8.103560
256.010010	915.038025	999.222961	906.790466	-9.796953
256.383759	919.347595	996.325134	904.858582	-18.822392
256.757446	929.006897	995.284851	897.799805	-47.085178
257.131134	931.013123	997.811218	900.326111	-45.939949
257.504791	924.994568	1011.111389	898.468445	-30.802488
257.878418	912.437500	1021.885254	903.000916	-8.621999
258.252014	907.533386	1027.978149	904.338379	-2.652674
258.625580	915.781067	1026.714966	908.499329	-6.564034
258.999115	919.198914	1020.622131	913.329102	-5.787444
259.372650	909.985352	1024.337280	908.945129	-0.909667
259.746124	899.657410	1035.334106	906.195984	4.819232
260.119598	897.428284	1050.640503	897.502625	0.048521
260.493042	900.697571	1066.764160	907.904968	4.340065
260.866425	906.344666	1075.829102	915.483887	5.392366
261.239838	903.818359	1076.720703	918.678894	8.594756
261.613159	904.264160	1072.262573	913.254700	5.351562
261.986511	900.028809	1051.532104	906.567566	4.315917
262.359802	900.846191	1043.061646	902.257996	0.992722
262.733063	900.251709	1032.139038	903.818298	2.704270
263.106293	898.171326	1034.368164	906.938965	6.437476
263.479523	899.360168	1038.454712	911.620056	8.814068
263.852692	898.542786	1041.278320	911.545715	9.109805
264.225861	897.056824	1049.600220	912.288757	9.985312
264.598969	900.400391	1045.439331	914.294922	9.579863
264.972076	906.270264	1040.981079	904.041199	-1.654704
265.345154	916.672668	1039.718018	896.016541	-16.787411
265.718201	919.496155	1050.789063	890.072327	-22.410828
266.091217	919.496155	1056.064575	900.771912	-13.710522
266.464203	917.564270	1062.751831	901.366394	-11.156518
266.837158	918.307312	1057.699219	898.022705	-14.552213
267.210114	916.449768	1061.711548	892.524231	-16.470634
267.583038	910.579834	1063.271973	894.233215	-10.705606
267.955902	905.155762	1068.621704	900.623291	-2.772731
268.328766	903.223877	1076.126343	903.892639	0.386786
268.701569	899.583008	1080.361694	896.239441	-1.849536
269.074371	896.239441	1088.906372	904.264160	4.165073
269.447144	896.685242	1089.649414	902.926697	3.234515
269.819885	906.344543	1091.358276	919.347656	7.028188
270.192596	910.208252	1093.438843	911.025696	0.446128
270.565277	910.579834	1099.977417	918.604675	4.237035
270.937927	903.223816	1103.246704	910.951355	3.863328
271.310577	904.041199	1111.197144	908.870850	2.331408
271.683136	907.607666	1121.673828	903.669678	-1.839613
272.055725	912.065857	1136.162964	906.716064	-2.387265
272.428284	907.087585	1147.085449	907.384766	0.123826
272.800812	910.951355	1152.360962	900.474670	-4.339796
273.173279	905.973145	1143.741821	899.434387	-2.750050
273.545776	909.093811	1131.704712	900.549011	-3.838446
273.918152	901.291992	1120.782227	905.452942	1.895733
274.290558	898.765686	1120.633667	903.966980	2.344319
274.662964	899.583008	1129.772949	902.778076	1.388014
275.035278	900.920471	1138.169067	904.189880	1.378052
275.407593	900.771973	1137.351685	905.898743	2.167037
275.779907	901.440613	1135.419800	907.236267	2.476996
276.152161	905.675964	1131.035889	903.075256	-1.154024
276.524384	911.025696	1137.797485	904.412659	-2.916164
276.896606	912.660339	1140.398071	901.291992	-4.991859
277.268799	904.189758	1152.286499	898.245544	-2.395926
277.640930	899.805969	1162.911865	895.347717	-1.694471
278.013031	894.456116	1168.113159	899.434387	1.819164
278.385162	904.487061	1167.518677	903.892578	-0.226012
278.757233	911.917297	1164.992310	902.257996	-3.816774
279.129272	915.186584	1166.181152	903.075256	-4.825335
279.501282	911.991516	1176.880737	895.570740	-6.199111
279.873230	906.938965	1180.744507	896.908203	-3.663462
280.245178	909.762512	1184.682617	896.759521	-4.729734
280.617126	910.134033	1190.032349	899.211487	-3.902327
280.988983	909.316711	1208.830933	893.118652	-5.408110
281.360870	912.288818	1227.852417	891.335449	-6.639983
281.732697	910.208313	1237.288940	891.929932	-5.588341
282.104492	913.551941	1248.062866	899.508728	-4.198133
282.476288	906.790344	1253.189575	899.062927	-2.230783
282.848053	904.487000	1259.059570	907.979187	0.984901
283.219757	909.688232	1261.585938	905.527161	-1.182466
283.591461	911.620117	1264.409302	907.459167	-1.179444
283.963135	914.889404	1262.180298	904.264160	-3.059465
284.334747	911.025635	1262.106079	909.391052	-0.465586
284.706360	916.375488	1267.158691	911.545715	-1.376854
285.077942	918.827454	1277.189453	913.254700	-1.555063
285.449524	921.353821	1289.300903	909.985413	-3.089686
285.821014	913.849182	1300.520508	908.796631	-1.306679
286.192535	908.425049	1308.173706	899.137207	-2.323420
286.563995	904.338379	1315.381104	903.298157	-0.253069
286.935425	911.620117	1322.439819	905.452942	-1.501188
287.306824	915.038025	1333.882446	912.140198	-0.691862
287.678223	913.180420	1323.851563	911.917297	-0.307575
288.049561	909.168152	1322.885620	906.790466	-0.574712
288.420898	908.276428	1316.867188	905.081482	-0.781943
288.792145	909.762512	1326.377808	898.022705	-2.817901
289.163452	906.790344	1326.674927	896.462341	-2.459724
289.534668	903.000977	1333.956665	903.595398	0.137931
289.905914	902.183655	1341.758423	905.824524	0.828271
290.277039	905.007141	1353.647095	911.025696	1.341511
290.648193	912.660339	1375.566406	908.796692	-0.834650
291.019318	918.307312	1398.525879	908.945251	-1.949542
291.390381	920.759277	1406.847656	903.223877	-3.607451
291.761475	922.914124	1413.163452	897.428223	-5.198559
292.132507	922.171082	1399.491821	897.725525	-5.121411
292.503510	919.124695	1396.222290	900.103210	-3.986917
292.874481	919.347595	1386.637329	909.391052	-2.130700
293.245422	913.626282	1393.993286	911.397217	-0.464034
293.616364	909.614014	1401.572266	914.815125	1.057226
293.987213	902.926758	1414.649414	910.728516	1.524607
294.358093	900.771912	1434.934082	910.431213	1.808309
294.728943	901.440613	1463.614868	909.390930	1.414209
295.099731	899.285828	1490.215454	905.452942	1.043629
295.470490	899.508728	1506.859253	900.474609	0.159032
295.841248	901.143372	1520.530884	892.078430	-1.463533
296.211975	901.514893	1532.642212	890.443848	-1.754170
296.582642	902.109375	1546.611206	894.530457	-1.175934
296.953308	907.979248	1574.920410	900.846191	-1.069518
297.323883	912.363098	1587.997681	911.174255	-0.175959
297.694519	914.369324	1606.424805	910.654114	-0.536837
298.065063	912.734680	1599.514648	911.991638	-0.108192
298.435608	909.391052	1590.375488	900.994812	-1.232956
298.806122	912.363220	1570.908203	900.920471	-1.737580
299.176575	914.443604	1551.515137	893.861755	-3.230697
299.547028	909.019531	1545.199341	899.137207	-1.553385
299.917450	904.709961	1535.837280	896.908142	-1.236172
300.287872	897.651184	1527.441040	902.778076	0.814064
300.658234	901.291992	1515.849731	899.434387	-0.302267
301.028564	907.459167	1514.809570	901.366272	-1.003193
301.398865	908.796570	1514.809570	908.647949	-0.024524
301.769135	915.335266	1519.193359	914.443542	-0.147671
302.139374	915.112366	1518.673340	913.329102	-0.295457
302.509583	912.883301	1517.632935	906.195984	-1.105799
302.879791	908.796570	1510.797241	905.081482	-0.617124
303.249939	908.276367	1508.791016	905.230042	-0.507286
303.620087	911.471375	1501.360840	908.647949	-0.478636
303.990173	912.288757	1502.029663	912.140137	-0.025201
304.360260	912.437439	1502.178223	912.660339	0.037796
304.730286	906.864746	1509.756958	910.579834	0.616211
305.100281	909.688232	1513.843750	908.350769	-0.221377
305.470276	912.065918	1514.438110	911.545715	-0.086359
305.840179	918.827393	1525.880859	912.363098	-1.064864
306.210144	912.065918	1524.469116	911.099915	-0.157740
306.579987	905.304260	1533.979614	907.904968	0.413681
306.949890	897.651184	1540.295410	903.372498	0.890277
307.319702	904.338379	1560.282837	899.434387	-0.747623
307.689484	906.716125	1572.171387	897.353943	-1.406884
308.059265	912.883301	1581.830688	902.778076	-1.510616
308.429016	907.310547	1601.669556	904.784241	-0.363833
308.798737	909.242432	1626.338013	909.391052	0.020725
309.168396	908.499329	1652.938354	902.109375	-0.858358
309.538055	911.099915	1673.074341	901.291992	-1.287172
309.907684	906.938965	1683.996948	900.103210	-0.879697
310.277313	905.155762	1692.318726	908.499451	0.424777
310.646851	904.115417	1699.674683	916.152649	1.513053
311.016388	906.938965	1717.432983	920.982239	1.732681
311.385895	913.923523	1729.024292	921.650940	0.948032
311.755371	911.545837	1736.826050	913.329041	0.216072
312.124817	904.487061	1736.826050	906.716125	0.267807
312.494232	900.251770	1735.117188	897.874023	-0.284806
312.863617	901.960754	1725.234863	902.480774	0.063165
313.232971	913.477600	1723.451660	902.852356	-1.311801
313.602295	916.449707	1721.742798	908.053528	-1.042624
313.971619	918.530273	1723.897461	895.867859	-2.813923
314.340820	909.391052	1714.535278	896.833801	-1.559628
314.710083	905.304382	1725.829224	895.422058	-1.204391
315.079285	906.716125	1741.358765	905.007141	-0.204756
315.448486	909.613953	1760.157227	904.709961	-0.576572
315.817596	908.573669	1764.764038	903.223877	-0.624837
316.186707	907.533386	1754.138672	896.165100	-1.342808
316.555786	903.818298	1737.643555	898.691406	-0.614864
316.924866	900.920471	1716.913086	902.852356	0.236753
317.293884	893.267395	1705.916138	905.452942	1.499485
317.662872	896.165222	1710.300171	904.338379	1.003907
318.031830	900.846191	1710.597168	897.131042	-0.458801
318.400757	910.802734	1721.445435	907.459167	-0.412459
318.769684	912.660339	1727.166626	913.031799	0.045606
319.138550	909.019470	1740.541382	920.462097	1.376107
319.507416	909.539551	1747.228516	917.638611	0.966834
319.876190	907.087585	1741.953125	906.121643	-0.115700
320.244995	909.465271	1742.324585	909.316711	-0.017837
320.613770	901.143372	1735.934570	895.793640	-0.640847
320.982483	904.264099	1738.237793	905.007141	0.089097
321.351166	910.282654	1725.309082	900.994812	-1.139575
321.719818	906.567566	1720.628296	911.991516	0.666283
322.088440	904.189941	1733.259399	910.802734	0.797616
322.457062	901.886414	1757.928101	908.276428	0.746461
322.825623	908.053528	1785.345703	906.493225	-0.177854
323.194183	908.499329	1798.571777	898.468567	-1.126960
323.562653	904.412781	1826.138062	904.041199	-0.040314
323.931183	905.973145	1854.521606	905.972961	-0.000019
324.299591	904.487061	1887.660645	908.202148	0.377867
324.668060	907.756348	1905.121704	909.168152	0.141553
325.036407	908.870911	1929.864624	907.161926	-0.167384
325.404755	914.517883	1940.787109	907.756348	-0.658846
325.773102	913.180481	1946.805664	907.013367	-0.596649
326.141388	915.409485	1942.124512	903.669739	-1.143428
326.509674	920.685059	1947.177124	902.629456	-1.758962
326.877899	918.753113	1956.093384	899.062988	-1.898135
327.246124	913.626221	1953.344116	907.310547	-0.607441
327.614288	907.384827	1954.087280	910.951416	0.340745
327.982422	905.824463	1949.480469	903.966980	-0.177978
328.350525	910.282654	1953.938599	905.527161	-0.455657
328.718628	907.756348	1952.675415	906.418884	-0.127997
329.086700	908.870850	1958.025024	910.579834	0.162892
329.454712	904.487000	1968.576172	905.675842	0.111724
329.822693	901.663574	1968.204712	910.877014	0.863862
330.190674	902.629456	1977.418335	917.267029	1.361902
330.558563	913.774902	1989.158203	921.799500	0.746208
330.926483	912.437500	2007.733765	916.821289	0.400238
331.294312	911.545837	2020.513794	910.877136	-0.060299
331.662231	904.115479	2046.445435	902.257996	-0.162605
332.029999	905.973083	2071.782959	902.257996	-0.318670
332.397766	907.681946	2103.064209	911.843018	0.348095
332.765503	908.499329	2116.364502	913.700500	0.430609
333.133240	914.815002	2144.896729	907.830627	-0.567798
333.500916	915.112305	2165.107178	903.000977	-0.968910
333.868561	914.146423	2184.797363	907.756348	-0.502898
334.236176	909.911194	2198.171631	916.821289	0.536390
334.603790	912.288879	2203.893066	916.449890	0.322158
334.971344	907.384827	2207.905273	915.632507	0.634183
335.338867	908.573669	2209.391357	911.174316	0.199924
335.706360	911.471436	2213.404053	916.226868	0.365259
336.073853	914.146301	2226.703857	910.728455	-0.260396
336.441284	908.796631	2222.914307	913.923523	0.390139
336.808655	911.322815	2219.422363	910.208313	-0.085200
337.176086	916.301208	2201.069580	916.226868	-0.005786
337.543396	924.771667	2167.781738	922.616882	-0.173352
337.910706	918.233093	2136.871826	917.044189	-0.097560
338.277954	913.626282	2134.791504	913.477600	-0.012175
338.645264	912.214539	2189.106689	907.904968	-0.337505
339.012421	907.310486	2273.217529	915.038025	0.565744
339.379669	906.716125	2350.418213	921.948181	1.055069
339.746796	909.242371	2395.593994	919.124695	0.664871
340.113953	919.793274	2419.816895	916.449707	-0.222901
340.481018	923.285583	2433.711182	910.579834	-0.841203
340.848114	920.164856	2447.234375	911.397156	-0.574152
341.215118	911.025696	2456.299316	913.180481	0.139444
341.582153	905.824463	2469.302490	920.016357	0.907713
341.949066	905.601563	2476.658447	926.926453	1.357360
342.316010	906.418945	2499.023193	923.211365	1.054400
342.682922	914.443604	2512.620850	917.787170	0.209211
343.049835	912.065918	2535.431641	918.307312	0.384472
343.416656	919.273254	2554.156006	925.960449	0.409032
343.783478	908.722351	2583.134033	930.715881	1.313508
344.150269	912.660339	2654.464600	926.554871	0.797709
344.516998	905.230042	2717.993408	924.623047	1.069803
344.883728	910.208313	2785.832031	921.873840	0.621955
345.250427	906.344543	2813.100830	921.725281	0.806644
345.617065	908.499451	2832.568359	920.684998	0.633322
345.983704	902.778137	2831.230713	927.372253	1.275329
346.350281	900.177490	2822.537354	931.607605	1.634976
346.716827	897.576904	2808.568604	938.517639	2.142382
347.083405	901.589172	2802.327148	938.220520	1.927217
347.449860	919.644775	2801.881592	938.369141	0.994793
347.816376	925.811951	2790.438721	941.192566	0.824863
348.182770	928.115295	2770.451172	936.065735	0.431541
348.549194	914.146423	2752.321289	932.127625	0.978210
348.915558	914.146301	2757.819580	921.799500	0.415106
349.281921	911.248535	2770.525391	917.192688	0.319702
349.648193	907.533447	2788.803955	914.369324	0.363365
350.014526	902.332214	2822.537354	919.273254	0.882252
350.380737	905.601563	2858.053955	923.434143	0.913343
350.746948	905.824402	2900.926758	936.585754	1.541843
351.113159	898.171204	2925.892578	937.625977	1.945769
351.479309	892.301453	2945.805664	936.288574	2.142052
351.845428	894.010315	2960.146240	925.737610	1.535586
352.211517	897.502625	2981.768311	926.257751	1.379629
352.577576	896.165100	3008.219971	935.768494	1.875112
352.943604	899.137268	3049.755127	942.975769	2.038414
353.309601	907.087646	3090.324219	936.214294	1.334104
353.675537	916.895569	3151.104248	942.009949	1.124084
354.041473	916.672668	3220.502686	943.421692	1.161068
354.407379	913.180481	3283.214111	944.461914	1.319873
354.773254	912.288818	3339.164063	934.579651	0.918499
355.139038	907.979309	3394.371094	930.715881	0.914440
355.504913	911.694336	3458.866211	942.158508	1.196000
355.870636	910.505554	3525.292236	952.189270	1.594154
356.236389	910.579834	3586.369141	953.601074	1.607796
356.602081	909.613953	3665.055908	950.183167	1.472331
356.967804	905.081543	3745.748779	942.455750	1.315684
357.333405	907.161926	3811.432373	950.851868	1.504334
357.699036	909.242371	3900.223877	955.384460	1.542707
358.064606	915.186707	4004.545166	959.916809	1.447877
358.430176	914.740906	4100.767578	958.133606	1.361969
358.795654	908.796631	4159.986328	952.412292	1.341529
359.161163	913.551941	4169.051270	961.625916	1.476701
359.526581	914.815125	4173.435059	957.910706	1.322510
359.892029	918.976074	4181.534668	971.805359	1.619259
360.257416	910.505554	4246.177734	966.158264	1.668411
360.622772	905.155762	4349.235840	970.616394	1.900671
360.988098	899.954590	4498.955078	968.238770	1.897310
361.353394	902.034973	4643.027832	967.570007	1.751809
361.718658	913.403320	4809.912109	969.278992	1.433993
362.083893	914.889404	4922.406738	966.604065	1.290441
362.449097	907.459167	5024.350098	971.805359	1.562980
362.814209	903.075195	5050.355957	970.913574	1.635732
363.179382	901.366272	4975.830566	974.628723	1.798088
363.544434	904.412781	4804.859863	978.269592	1.893547
363.909546	897.799805	4574.818359	977.898132	2.178350
364.274536	907.384827	4408.752441	963.854797	1.612797
364.639587	913.626282	4260.369629	945.427795	0.950223
365.004517	915.335266	4186.363770	942.455750	0.829112
365.369507	908.945129	4124.692871	940.969666	0.995866
365.734344	918.381592	4097.720703	951.892151	1.054010
366.099274	918.530212	4082.265625	952.263672	1.066254
366.464081	917.489990	4056.557373	962.294434	1.427317
366.828918	911.025635	4057.374268	961.328552	1.598771
367.193665	913.477539	4057.300049	961.402832	1.524427
367.558411	913.180420	4082.785889	953.749695	1.279947
367.923126	896.165100	4096.680176	952.486572	1.759763
368.287781	894.084656	4097.794922	952.932312	1.836860
368.652435	889.552246	4092.816650	948.548523	1.841755
369.017059	900.028809	4076.247314	956.275940	1.770884
369.381653	905.230042	4065.993408	964.226379	1.866522
369.746185	910.282715	4065.621826	966.306885	1.775536
370.110687	911.248596	4087.169678	961.625793	1.586223
370.475220	900.325989	4120.234863	952.189392	1.610710
370.839661	903.446777	4145.423340	965.786804	1.922902
371.204041	898.542786	4178.933594	959.842468	1.868670
371.568451	902.332214	4217.422363	967.198486	1.956697
371.932770	902.480774	4269.137207	965.266602	1.864931
372.297150	902.703796	4314.981934	964.597961	1.813866
372.661377	903.743958	4339.056152	964.672180	1.773586
373.025696	894.902039	4350.869629	966.306885	2.066132
373.389862	893.638855	4355.774414	961.848694	1.970167
373.754059	897.651184	4363.724121	961.179993	1.832876
374.118225	903.669678	4395.525879	954.195496	1.446962
374.482361	906.716064	4421.085938	970.021973	1.801345
374.846436	906.270264	4471.314941	964.449402	1.631933
375.210510	907.236145	4539.302246	968.313049	1.681602
375.574524	910.654114	4636.638184	960.734192	1.344077
375.938538	908.350769	4738.061523	967.644287	1.548251
376.302460	905.824463	4820.463379	974.108643	1.744329
376.666412	907.533386	4913.936035	982.504883	1.871292
377.030304	912.957520	4996.561035	983.768005	1.734020
377.394196	918.010010	5097.314941	981.539001	1.520085
377.757996	920.016296	5184.770020	978.641113	1.374635
378.121796	913.031921	5251.122070	982.504883	1.601464
378.485565	907.682068	5264.421875	970.542175	1.442824
378.849304	892.227051	5233.363281	968.312988	1.752673
379.212982	900.771912	5167.382813	960.511230	1.400159
379.576630	905.527283	5057.711426	973.068420	1.626641
379.940277	914.963684	4973.526855	971.136536	1.384058
380.303864	912.734558	4909.849121	970.096375	1.435081
380.667450	910.059631	4907.322754	967.941589	1.448040
381.030945	909.242371	4908.140625	971.953918	1.568221
381.394501	907.756287	4923.669922	977.229492	1.729948
381.757935	907.087646	4953.093750	972.102539	1.606891
382.121399	908.053528	4967.731445	965.192383	1.407473
382.484741	906.493164	4990.914063	960.288391	1.317083
382.848145	906.939026	5027.395996	966.752686	1.451627
383.211487	907.533447	5075.321777	972.622620	1.561720
383.574768	910.059753	5160.397949	973.588562	1.494676
383.938019	901.217590	5217.313965	972.325378	1.647502
384.301270	902.629395	5300.533203	968.684570	1.501970
384.664459	899.360107	5356.260254	973.885742	1.672140
385.027649	903.149597	5388.804688	979.681335	1.706144
385.390778	903.521057	5434.798340	992.981506	1.974288
385.753876	904.115540	5458.500977	995.359192	2.003424
386.116943	907.013367	5521.063965	1000.188965	2.019388
386.479980	904.264099	5538.822266	998.702881	2.037709
386.842987	902.555176	5572.777832	993.204407	1.941005
387.205994	903.372498	5602.871094	985.997070	1.758157
387.568909	903.446777	5638.833496	981.836121	1.655395
387.931793	907.087646	5684.009277	985.774170	1.647222
388.294678	911.471497	5740.925781	993.353027	1.695461
388.657471	903.966980	5778.150879	993.947510	1.846063
389.020294	900.028809	5792.045410	993.501709	1.910723
389.383057	891.706970	5770.869629	986.071472	1.934031
389.745819	900.549011	5779.562500	988.077637	1.793982
390.108521	905.750183	5798.881348	990.232422	1.726547
390.471191	907.013367	5867.537109	995.582092	1.785471
390.833801	903.372559	5957.963379	991.272644	1.739015
391.196442	906.047363	6082.049316	997.811279	1.772873
391.558960	905.898865	6188.748047	993.204407	1.652622
391.921509	914.443604	6308.746582	998.479980	1.557873
392.284027	907.607727	6417.377441	997.737000	1.635808
392.646484	907.830627	6540.497559	998.034180	1.601436
393.008911	903.966980	6575.196777	1006.281738	1.804102
393.371307	907.904968	6601.722656	1004.126953	1.689938
393.733673	910.802795	6554.614746	1013.414795	1.818133
394.096008	910.505615	6523.853516	1005.464355	1.691660
394.458344	905.007141	6525.785156	1013.266113	1.926050
394.820587	905.304382	6547.481934	1011.185608	1.876602
395.182831	902.480896	6600.310547	1010.071106	1.888267
395.545013	907.161926	6581.437500	1003.161072	1.691831
395.907196	906.047363	6534.478516	1006.504700	1.784819
396.269287	910.877014	6440.856934	1014.826599	1.879746
396.631409	902.480896	6347.458984	1013.340576	2.035999
396.993469	897.576904	6264.239746	1004.127014	1.985407
397.355530	894.233215	6202.865234	998.702942	1.967922
397.717499	903.000977	6177.378906	1000.709045	1.852504
398.079468	918.455872	6171.212402	1007.990723	1.704531
398.441376	913.106140	6203.683105	1011.482910	1.859471
398.803284	909.539612	6233.701172	1006.058838	1.812853
399.165131	899.285889	6279.248535	1001.972168	1.908680
399.526978	907.384766	6306.220703	1000.560486	1.725848
399.888763	910.431152	6313.576660	1001.154846	1.679090
400.250519	912.288818	6328.139160	1003.978333	1.692985
400.612244	913.997742	6350.505371	1011.854431	1.799992
400.973938	912.660339	6385.130371	1018.690247	1.937515
401.335602	917.638489	6395.234863	1024.114380	1.943843
401.697205	916.152527	6415.520020	1021.513855	1.915881
402.058807	916.226868	6443.606934	1023.668640	1.943810
402.420349	910.505554	6530.169434	1017.575745	1.905277
402.781860	910.877014	6606.032715	1019.581970	1.908727
403.143341	910.431213	6711.170410	1020.176331	1.891916
403.504822	916.301208	6801.299316	1023.148438	1.815586
403.866241	913.254822	6931.478027	1026.269165	1.877869
404.227631	913.477722	7074.361816	1031.470337	1.915190
404.588959	905.304382	7238.422363	1035.482788	2.055518
404.950287	906.493164	7362.062012	1033.030762	1.960131
405.311554	911.100037	7439.114746	1031.619019	1.846181
405.672821	912.437439	7490.011719	1034.145264	1.850345
406.034027	911.397217	7484.810059	1031.173218	1.822128
406.395203	903.669739	7422.470215	1028.126831	1.909202
406.756348	896.239441	7352.923340	1030.207275	2.074871
407.117493	897.056824	7324.390625	1034.145386	2.132899
407.478516	899.805969	7346.235840	1037.563110	2.136952
407.839600	911.768738	7342.817871	1026.863647	1.789675
408.200592	907.384827	7357.529785	1029.166992	1.888053
408.561554	901.737793	7331.820313	1029.389893	1.985233
408.922485	899.285828	7351.288574	1038.083374	2.151232
409.283417	903.595398	7349.430176	1034.368164	2.028795
409.644257	903.298157	7426.556641	1030.578735	1.951181
410.005096	899.954590	7507.398438	1037.117310	2.075882
410.365906	898.022644	7608.227051	1039.940918	2.114962
410.726715	900.697571	7699.099609	1048.708618	2.177145
411.087433	902.555176	7789.822754	1046.925415	2.096190
411.448120	899.583069	7855.729004	1047.965576	2.133114
411.808807	900.994812	7875.567871	1043.804688	2.047579
412.169434	900.771790	7815.011719	1038.231934	1.988073
412.530029	901.143372	7784.102051	1035.036987	1.945292
412.890564	903.521057	7783.061035	1034.442505	1.903055
413.251099	903.743958	7816.126465	1037.563232	1.935936
413.611572	906.938965	7858.478027	1037.786011	1.882275
413.972076	911.322815	7914.576660	1036.002808	1.780315
414.332489	911.471436	7982.638184	1027.309448	1.638174
414.692871	920.239197	8089.708496	1031.098877	1.546275
415.053223	917.267090	8185.781738	1038.454834	1.667297
415.413574	917.564270	8353.780273	1054.875732	1.846523
415.773834	910.208313	8459.364258	1053.538208	1.898622
416.134094	907.607727	8569.407227	1057.030640	1.950233
416.494263	902.703796	8658.718750	1064.980835	2.092273
416.854462	905.378662	8851.459961	1071.147949	2.086177
417.214630	910.951355	9091.680664	1073.674194	1.989099
417.574738	913.403320	9334.948242	1071.742554	1.880168
417.934784	908.796570	9579.775391	1090.095215	2.090867
418.294861	906.418945	9849.866211	1093.290405	2.089479
418.654846	907.904968	10161.194336	1099.308716	2.068494
419.014832	915.260925	10510.863281	1098.491333	1.909525
419.374756	911.174255	10879.776367	1107.259155	1.967025
419.734680	909.613953	11311.920898	1107.704956	1.904299
420.094543	904.784180	11695.545898	1108.150879	1.884637
420.454376	901.812073	12054.352539	1114.615112	1.908113
420.814148	910.505554	12426.535156	1133.265137	1.934344
421.173920	903.966858	12828.066406	1145.302124	2.023929
421.533691	911.099915	13246.093750	1154.218384	1.970965
421.893341	904.041260	13536.543945	1155.704468	1.992188
422.253021	909.985413	13741.545898	1158.305054	1.935226
422.612640	904.412781	13768.590820	1163.877808	2.016958
422.972260	910.282654	13719.700195	1169.747803	2.025581
423.331757	910.802734	13638.339844	1166.255493	2.007087
423.691315	915.929688	13634.921875	1168.038818	1.982147
424.050781	913.477722	13736.493164	1153.995605	1.875673
424.410248	910.282532	13824.913086	1150.874878	1.862944
424.769653	910.877014	13953.010742	1152.509399	1.852706
425.128998	913.849121	14013.937500	1163.952026	1.909170
425.488373	912.808899	13980.428711	1171.085083	1.976459
425.847656	909.985413	13865.333008	1162.020142	1.945411
426.206940	909.539612	13710.413086	1158.230835	1.942768
426.566193	915.706787	13493.671875	1157.190552	1.919895
426.925385	911.545837	13250.627930	1155.555908	1.977538
427.284576	901.069153	12916.785156	1149.983276	2.071571
427.643677	895.719238	12676.934570	1143.518921	2.103346
428.002777	899.285828	12404.765625	1135.420044	2.052363
428.361847	900.549011	12122.339844	1128.064087	2.027440
428.720856	901.069092	11877.066406	1118.627563	1.982129
429.079865	899.880188	11705.204102	1122.119751	2.056760
429.438812	903.595276	11593.675781	1119.890625	2.023328
429.797760	906.864746	11499.385742	1115.358154	1.968308
430.156616	912.437500	11394.916992	1106.664673	1.852874
430.515503	911.768738	11337.109375	1103.246704	1.836659
430.874268	909.688232	11301.145508	1109.933960	1.927023
431.233093	903.149597	11312.664063	1121.748169	2.099988
431.591827	901.440613	11379.981445	1122.342651	2.108137
431.950562	909.093811	11422.186523	1125.611938	2.059509
432.309204	909.465332	11482.668945	1109.488281	1.891791
432.667877	910.951416	11554.965820	1109.488281	1.865244
433.026459	905.527344	11672.213867	1118.924683	1.982015
433.385010	903.892578	11796.002930	1132.150513	2.095626
433.743561	904.561279	11954.416992	1145.970825	2.184730
434.102051	899.954590	12105.622070	1145.450806	2.190822
434.460510	899.805908	12269.756836	1148.942871	2.191188
434.818939	895.050537	12305.273438	1147.011108	2.208200
435.177338	897.428223	12354.239258	1152.286621	2.224514
435.535675	900.326111	12309.731445	1146.119507	2.154305
435.894012	902.109375	12306.165039	1149.983276	2.173559
436.252289	901.291992	12308.542969	1142.627197	2.115630
436.610535	904.189758	12325.334961	1155.258667	2.198281
436.968719	913.997864	12394.362305	1156.596191	2.113159
437.326935	916.747009	12491.328125	1155.853149	2.065787
437.685028	916.524109	12597.432617	1149.017212	1.990368
438.043152	911.545715	12723.153320	1139.952271	1.933747
438.401215	902.183594	12889.887695	1156.150391	2.118561
438.759277	901.069092	13077.948242	1164.918091	2.166803
439.117249	904.784241	13364.532227	1182.230591	2.226741
439.475250	912.660400	13596.655273	1179.481323	2.103603
439.833130	914.592285	13918.237305	1180.595947	2.045609
440.191071	904.487061	14160.390625	1183.196533	2.102531
440.548889	897.205383	14441.476563	1183.939575	2.117014
440.906708	896.982422	14722.489258	1185.351440	2.085775
441.264496	904.932800	14914.116211	1184.236816	1.993721
441.622223	915.038025	15102.695313	1190.775391	1.943502
441.979950	909.613831	15202.632813	1201.475098	2.041985
442.337616	909.539612	15311.114258	1202.069458	2.031235
442.695251	909.911133	15235.698242	1202.663940	2.043537
443.052887	912.288879	15067.625000	1199.171509	2.026675
443.410461	910.951355	14887.961914	1206.527710	2.114732
443.768005	906.716064	14771.604492	1213.734985	2.214363
444.125458	904.561340	14690.317383	1205.858765	2.185570
444.482941	910.505554	14707.109375	1207.047729	2.149385
444.840393	909.390930	14784.680664	1199.245972	2.089002
445.197754	912.214539	15016.432617	1210.540039	2.115151
445.555084	904.635559	15248.551758	1202.738159	2.078251
445.912415	909.019531	15593.762695	1213.363403	2.072517
446.269714	906.641785	15863.183594	1213.363403	2.050752
446.626953	909.390930	16187.664063	1220.422241	2.035775
446.984161	913.477600	16497.134766	1223.765869	1.991113
447.341309	920.907898	16730.222656	1247.022583	2.062801
447.698456	919.273254	16892.203125	1260.248413	2.134706
448.055542	916.003906	16948.376953	1260.619995	2.149501
448.412598	916.895569	16908.474609	1241.672729	2.030926
448.769653	914.666504	16774.582031	1245.016357	2.082923
449.126617	916.524109	16505.904297	1237.957520	2.061874
449.483582	919.124695	16341.992188	1244.199097	2.107743
449.840515	924.102966	16095.083008	1229.487183	2.012950
450.197388	919.570496	15961.414063	1224.360352	2.026280
450.554230	912.734619	15751.953125	1222.279785	2.085994
450.911041	912.140198	15649.788086	1219.976318	2.088774
451.267822	908.499329	15498.433594	1221.610962	2.146080
451.624573	903.669678	15348.192383	1213.066162	2.141964
451.981262	893.936035	15172.541992	1209.945435	2.213167
452.337921	901.589172	15057.742188	1214.923950	2.213418
452.694580	902.183594	15027.206055	1212.917725	2.199884
453.051147	914.740723	15097.272461	1214.552368	2.113950
453.407715	914.443542	15071.565430	1207.493530	2.069983
453.764221	918.307312	15127.067383	1210.540039	2.056708
454.120728	907.682068	14958.772461	1216.410034	2.197181
454.477142	908.796570	14880.977539	1213.809326	2.183000
454.833557	907.756348	14697.002930	1217.598755	2.246986
455.189911	912.140198	14571.581055	1206.899170	2.157914
455.546265	904.709961	14414.208008	1203.927002	2.214864
455.902557	900.697571	14327.273438	1187.877563	2.138892
456.258820	903.298157	14331.062500	1194.119019	2.165817
456.615051	909.019531	14412.870117	1193.598999	2.107395
456.971252	912.734680	14413.464844	1201.177856	2.136501
457.327393	909.836853	14596.250000	1200.509155	2.123802
457.683502	907.384949	14811.504883	1212.471802	2.194219
458.039612	906.121765	15186.065430	1227.109375	2.247821
458.395630	910.654114	15504.972656	1245.313599	2.293081
458.751648	910.059753	15822.913086	1250.291870	2.281469
459.107605	917.415710	16351.577148	1256.756226	2.198633
459.463562	914.889404	16893.837891	1267.678711	2.207838
459.819458	920.982178	17511.888672	1279.046997	2.158199
460.175323	913.700500	18034.013672	1288.260498	2.187810
460.531158	912.957520	18651.025391	1286.551636	2.106171
460.886932	902.629456	19050.103516	1298.662964	2.182307
461.242676	908.722351	19245.148438	1300.817871	2.138342
461.598419	911.397217	19049.656250	1298.514282	2.134257
461.954102	916.821289	18629.773438	1279.418579	2.047074
462.309723	912.511719	18026.732422	1274.514526	2.115216
462.665344	911.545715	17397.388672	1262.923340	2.131390
463.020905	911.694336	16938.716797	1261.214355	2.180817
463.376373	907.682068	16629.767578	1249.103027	2.171601
463.731873	905.230042	16381.668945	1248.285767	2.216632
464.087341	899.211487	16143.752930	1248.359985	2.290318
464.442749	901.589172	15972.335938	1251.332153	2.320674
464.798126	902.480774	15854.121094	1257.499268	2.374445
465.153503	903.149597	15892.386719	1255.938843	2.353617
465.508820	903.000977	15944.324219	1260.099731	2.374118
465.864105	908.202148	16054.143555	1270.205078	2.390099
466.219330	909.242432	16282.473633	1285.065552	2.444659
466.574524	915.855408	16442.150391	1287.591919	2.394238
466.929657	909.316711	16679.845703	1280.235840	2.351976
467.284790	923.880066	16902.085938	1283.282227	2.249327
467.639893	913.254700	17177.451172	1288.037720	2.304344
467.994934	921.427979	17409.646484	1288.111938	2.223915
468.349945	907.310486	17512.111328	1282.093384	2.257076
468.704926	918.753113	17499.626953	1272.954224	2.136203
469.059875	915.409485	17307.630859	1259.876953	2.101408
469.414764	914.072083	17068.150391	1255.567505	2.113989
469.769653	905.750244	16846.136719	1260.917114	2.228094
470.124451	900.697571	16746.570313	1272.731323	2.347827
470.479248	907.607727	16616.615234	1273.920288	2.331863
470.834015	915.335266	16586.595703	1266.415649	2.240282
471.188721	918.753174	16632.591797	1267.678711	2.220498
471.543365	907.087646	16705.628906	1269.462036	2.293720
471.898010	907.310547	16784.761719	1278.601196	2.338478
472.252625	906.716125	16909.666016	1282.093506	2.345676
472.607178	916.152527	17130.121094	1293.313110	2.326146
472.961700	914.517883	17302.726563	1296.136597	2.328618
473.316193	914.443665	17573.039063	1297.919922	2.301972
473.670654	909.093811	17796.095703	1296.731079	2.295477
474.025055	902.778076	18102.371094	1301.932129	2.320718
474.379456	895.124939	18297.267578	1308.173706	2.373551
474.733795	900.846191	18448.324219	1309.065430	2.326370
475.088104	899.731628	18548.335938	1312.334595	2.337879
475.442383	912.883240	18539.123047	1314.415039	2.278034
475.796570	915.483887	18566.541016	1319.021851	2.286197
476.150787	919.941956	18683.123047	1331.207520	2.315270
476.504944	909.391052	18883.740234	1336.631714	2.376946
476.859070	907.236267	19188.900391	1339.752441	2.365847
477.213135	905.230042	19427.636719	1340.049561	2.347533
477.567200	900.623291	19834.294922	1348.074219	2.363255
477.921173	894.902039	20165.089844	1360.111328	2.414140
478.275146	892.152771	20631.412109	1372.074097	2.431304
478.629089	902.555115	20921.490234	1376.829468	2.369129
478.983002	906.864685	21302.439453	1386.265991	2.350516
479.336823	916.375427	21665.408203	1391.169922	2.288273
479.690643	912.808899	22080.835938	1409.225464	2.345124
480.044403	914.963684	22603.556641	1421.411011	2.335086
480.398163	908.276550	23203.103516	1447.714233	2.419564
480.751862	912.734680	24024.150391	1468.370483	2.404162
481.105499	916.598389	24994.099609	1501.509399	2.429284
481.459137	918.901855	26274.556641	1532.642212	2.420527
481.812744	915.038086	27772.572266	1581.310547	2.480766
482.166290	910.282715	29569.068359	1635.700195	2.531222
482.519806	910.356934	31660.466797	1697.148438	2.558662
482.873291	902.257996	34154.808594	1764.095215	2.591793
483.226715	898.988586	37164.441406	1838.472290	2.590575
483.580139	895.644958	40380.410156	1910.545898	2.570361
483.933502	911.248535	43945.230469	1992.204590	2.511866
484.286804	915.335266	47304.675781	2055.213135	2.457198
484.640106	911.471497	50362.015625	2109.677002	2.423038
484.993347	903.000977	52446.875000	2127.063965	2.374798
485.346558	900.400391	53389.406250	2122.457031	2.328214
485.699738	905.750183	52971.750000	2079.287109	2.253941
486.052887	903.372498	51337.906250	2023.560181	2.221073
486.405975	904.561340	48924.921875	1977.418091	2.234170
486.759064	911.843018	46348.175781	1939.895508	2.262622
487.112061	917.118469	44408.730469	1926.669556	2.321255
487.464996	913.106140	43463.300781	1914.409546	2.353229
487.817963	908.722351	43525.792969	1929.344360	2.394867
488.170868	913.997803	43949.394531	1930.979126	2.363127
488.523743	912.585999	44578.511719	1950.520874	2.376990
488.876587	910.728455	44945.718750	1940.712769	2.339013
489.229401	911.322815	44917.855469	1935.808960	2.328032
489.582153	913.700500	44116.277344	1888.998047	2.257499
489.934845	916.449768	42842.574219	1860.094360	2.250732
490.287537	909.168152	41350.652344	1824.354858	2.262990
490.640198	908.647949	40142.785156	1823.760376	2.332439
490.992798	908.499329	39238.894531	1818.261841	2.373476
491.345337	903.743958	38971.183594	1832.825195	2.440619
491.697876	904.561279	39109.457031	1840.849976	2.450704
492.050354	913.551941	39843.644531	1871.165405	2.459828
492.402832	921.948242	40642.921875	1874.583374	2.398318
492.755219	920.090576	41132.355469	1869.679321	2.361441
493.107605	906.195984	40913.980469	1834.682617	2.320765
493.459930	909.242371	39941.281250	1794.707886	2.268561
493.812225	911.025635	38239.750000	1751.463501	2.251451
494.164490	906.938965	36070.550781	1707.402222	2.276397
494.516724	894.381836	33802.683594	1667.873169	2.350445
494.868896	897.799805	31804.091797	1630.573242	2.370952
495.221039	902.852356	30358.531250	1605.013062	2.383787
495.573120	907.087646	29258.255859	1599.366211	2.441799
495.925201	909.613953	28709.158203	1597.359985	2.473947
496.277222	912.437317	28362.908203	1596.394043	2.491603
496.629211	911.991516	28357.412109	1590.746948	2.473110
496.981140	915.409485	28403.181641	1589.335327	2.451730
497.333069	910.802734	28553.271484	1599.291870	2.490693
497.684967	905.898865	28714.361328	1594.759399	2.477161
498.036804	894.827637	28845.728516	1591.341431	2.491919
498.388580	899.657410	28867.054688	1583.762573	2.446081
498.740326	901.960754	28783.388672	1584.654297	2.448560
499.092072	908.573669	28557.134766	1579.230103	2.425647
499.443756	905.378662	28227.603516	1571.428345	2.437758
499.795410	914.740784	27831.791016	1568.084595	2.427249
500.147003	912.363098	27475.509766	1567.118652	2.464902
500.498566	908.647949	27137.062500	1564.369507	2.500043
500.850098	904.115479	26809.757813	1549.880371	2.492758
501.201599	897.874023	26527.781250	1540.518188	2.507400
501.553009	906.344543	26240.228516	1530.784546	2.464841
501.904449	909.613831	26047.787109	1538.660767	2.502357
502.255859	922.988464	25831.490234	1539.329468	2.474420
502.607178	924.994568	25783.416016	1541.558594	2.480302
502.958405	917.861511	25666.833984	1538.809204	2.508984
503.309692	911.322754	25587.181641	1541.855835	2.555263
503.660919	905.155701	25590.896484	1533.459595	2.545210
504.012115	911.025635	25638.525391	1530.190308	2.503952
504.363251	910.877136	25761.201172	1529.818726	2.490678
504.714294	913.403381	25859.427734	1543.713257	2.526695
505.065369	912.363098	25966.273438	1551.515015	2.551106
505.416443	907.830627	26050.013672	1551.812378	2.561360
505.767395	898.840027	26060.267578	1548.245728	2.580957
506.118317	894.010437	26072.677734	1537.769165	2.556762
506.469238	889.180664	26078.248047	1533.236694	2.556887
506.820160	901.514893	26064.056641	1539.255249	2.534483
507.170929	908.870850	26076.242188	1551.589355	2.553777
507.521729	917.861511	26090.435547	1553.224121	2.524027
507.872498	920.462097	26205.603516	1556.121948	2.513966
508.223236	915.855408	26382.445313	1562.883423	2.540694
508.573883	916.226868	26615.085938	1573.062866	2.555896
508.924500	904.858582	26823.578125	1582.647949	2.615057
509.275116	904.338379	27041.435547	1581.904907	2.592356
509.625702	898.245605	27280.023438	1590.746948	2.624923
509.976196	903.298096	27557.244141	1590.895508	2.579721
510.326660	903.966980	27817.525391	1595.353638	2.568916
510.677124	910.134094	28048.533203	1605.013062	2.560501
511.027557	907.979309	28271.962891	1615.638306	2.586096
511.377869	908.499329	28484.095703	1631.093384	2.620411
511.728180	909.093750	28620.814453	1633.322632	2.613439
512.078430	918.158691	28676.466797	1643.278931	2.612264
512.428650	922.839844	28806.646484	1643.278931	2.583719
512.778931	920.462097	28941.578125	1651.377930	2.608447
513.129028	911.174316	29087.210938	1646.399780	2.609400
513.479126	910.802734	29139.593750	1652.938354	2.629003
513.829285	910.356934	29146.875000	1658.585327	2.649861
514.179382	912.511719	29084.164063	1657.619263	2.644884
514.529297	906.939026	28995.447266	1645.285156	2.628641
514.879272	905.081482	28992.250000	1645.359375	2.635644
515.229187	905.378723	28869.875000	1640.975586	2.630467
515.579163	906.938965	28885.033203	1641.570190	2.625737
515.928955	911.620056	28873.740234	1636.889038	2.593755
516.278748	909.613831	29075.992188	1645.805176	2.613724
516.628540	911.842957	29314.650391	1662.226074	2.641933
516.978333	915.483887	29670.710938	1669.656616	2.622733
517.327942	922.171082	30115.562500	1684.294067	2.610601
517.677612	924.028625	30611.458984	1708.293823	2.641742
518.027222	914.815125	31211.525391	1733.928223	2.703637
518.376831	898.691406	32020.015625	1752.132446	2.742303
518.726379	891.558350	32803.906250	1755.698853	2.707856
519.075867	896.462341	33501.906250	1758.819702	2.644826
519.425293	911.099915	34020.988281	1768.553345	2.589720
519.774658	912.660339	34380.093750	1773.903320	2.573376
520.124084	908.499329	34589.925781	1782.522339	2.594970
520.473389	898.245605	34449.566406	1766.621460	2.588202
520.822693	901.960754	34134.152344	1754.658813	2.565880
521.171997	905.750183	33603.332031	1738.757935	2.547613
521.521240	922.022461	33032.832031	1740.764160	2.549739
521.870361	923.805847	32546.451172	1738.832397	2.577351
522.219482	921.353760	32179.099609	1723.971680	2.567741
522.568604	910.356934	31911.085938	1723.080078	2.621626
522.917664	908.499329	31696.351563	1723.897461	2.648441
523.266724	912.660339	31653.103516	1739.946777	2.691199
523.615662	917.044128	31850.976563	1741.432739	2.664998
523.964600	916.523987	32215.056641	1749.606079	2.661729
524.313538	913.774841	32734.656250	1757.185059	2.650493
524.662354	907.013245	33359.542969	1788.392212	2.715902
525.011169	911.471497	34174.128906	1818.039063	2.725482
525.359985	913.552002	35149.496094	1852.589844	2.742842
525.708740	909.836914	36349.042969	1869.084839	2.706742
526.057434	911.843079	37734.042969	1909.654175	2.709809
526.406067	904.932922	39261.703125	1954.310181	2.735833
526.754700	912.883301	40906.542969	2006.247925	2.733845
527.103333	911.620117	42654.964844	2051.944092	2.731750
527.451782	908.573669	44568.703125	2099.051758	2.726694
527.800293	908.127869	46470.332031	2160.722900	2.749197
528.148743	898.022644	48456.890625	2227.818604	2.796105
528.497131	895.942200	50409.566406	2297.291504	2.830230
528.845642	896.462341	52352.808594	2357.551025	2.839472
529.193909	901.366272	54091.113281	2409.934570	2.836201
529.542175	910.431213	55492.246094	2448.423096	2.817774
529.890503	910.728455	56348.285156	2451.841064	2.779907
530.238770	906.493164	56516.582031	2415.581543	2.713695
530.586914	908.647949	55996.761719	2346.479736	2.610058
530.934998	908.647949	54670.082031	2281.613525	2.553811
531.283142	917.564270	52770.167969	2205.230469	2.483320
531.631226	915.483887	50308.890625	2155.893555	2.511286
531.979248	909.539734	47854.296875	2098.977783	2.533697
532.327148	896.165222	45808.593750	2075.497803	2.625849
532.675110	893.490234	44533.187500	2052.984131	2.656971
533.023071	901.143372	44074.738281	2060.488770	2.685312
533.370850	908.722351	44192.582031	2070.742432	2.684650
533.718689	911.620117	44732.839844	2097.491455	2.706158
534.066467	917.638611	45393.906250	2098.977295	2.656110
534.414246	911.620056	45914.917969	2106.036377	2.654064
534.761963	911.322937	46128.093750	2081.367920	2.587635
535.109619	907.756348	45945.609375	2072.897217	2.587026
535.457153	914.517883	45243.894531	2043.696289	2.547246
535.804749	909.539551	44154.687500	2019.473633	2.566609
536.152344	905.155701	42888.425781	1994.136353	2.593844
536.499817	910.134033	41646.824219	1982.470825	2.632361
536.847229	912.883301	40602.796875	1980.093262	2.688869
537.194641	910.728516	39857.687500	1979.127319	2.743215
537.542114	907.533386	39470.125000	1963.820801	2.739151
537.889404	908.647949	39191.640625	1944.725220	2.706364
538.236694	912.363037	38917.015625	1926.000977	2.667142
538.583984	906.418884	38567.199219	1912.329102	2.670975
538.931213	906.938965	38274.296875	1917.456055	2.704278
539.278381	901.514893	37939.789063	1910.545898	2.724293
539.625488	903.223877	37664.273438	1924.440430	2.777985
539.972595	907.682068	37604.609375	1934.471313	2.798025
540.319641	907.013367	37977.457031	1970.954102	2.870051
540.666687	908.499329	38825.550781	2006.916504	2.896895
541.013611	907.533447	40192.199219	2050.532227	2.909529
541.360596	912.140198	41743.566406	2098.828857	2.906312
541.707458	907.384827	43528.613281	2139.992676	2.892005
542.054260	907.756348	45098.855469	2185.391602	2.891160
542.401062	901.514893	46615.222656	2208.351318	2.858741
542.747864	905.007141	47636.437500	2214.146729	2.801411
543.094666	905.007141	48030.093750	2190.147217	2.727083
543.441284	910.802734	47551.656250	2151.509766	2.660130
543.787903	913.997803	46396.847656	2119.262451	2.649932
544.134460	911.397156	44834.261719	2075.720947	2.650837
544.481079	911.025635	43159.328125	2035.077148	2.660584
544.827637	908.425049	41384.386719	1995.325195	2.685298
545.174072	911.322754	39674.234375	1965.678589	2.720012
545.520508	907.013245	38146.718750	1944.502319	2.785975
545.866943	910.356934	36912.476563	1924.366211	2.816526
546.213318	907.682068	35982.949219	1907.202271	2.849644
546.559631	912.065918	35240.519531	1892.490601	2.856012
546.905823	910.505554	34658.652344	1878.521484	2.868353
547.252136	911.100037	34213.433594	1860.540161	2.850972
547.598389	904.932800	33854.402344	1849.989136	2.868199
547.944458	910.505554	33646.203125	1833.865356	2.820651
548.290588	914.072083	33287.621094	1807.413696	2.759480
548.636658	923.880066	32788.750000	1779.401733	2.684843
548.982727	908.350830	32079.904297	1761.568970	2.737169
549.328735	904.264160	31343.634766	1751.612305	2.783724
549.674622	895.199219	30525.861328	1728.578491	2.812557
550.020569	897.279602	29687.501953	1700.714966	2.790653
550.366455	897.948303	28833.244141	1677.458374	2.790413
550.712280	905.601563	28134.353516	1657.396484	2.761033
551.058044	915.706726	27574.037109	1652.195313	2.762696
551.403748	909.316711	27148.060547	1653.755493	2.837174
551.749512	907.087585	26835.021484	1659.031128	2.900129
552.095154	905.378662	26642.875000	1655.018677	2.912638
552.440735	915.855286	26594.650391	1663.043457	2.909748
552.786316	914.666504	26572.734375	1666.609985	2.930632
553.131897	915.855286	26651.345703	1663.415039	2.904782
553.477417	908.425110	26753.882813	1655.910522	2.892135
553.822815	910.579895	26910.218750	1653.384155	2.856979
554.168213	912.883240	26953.757813	1650.337769	2.831912
554.513672	916.969788	26922.773438	1644.542114	2.797731
554.859009	913.849121	26731.296875	1641.347168	2.817854
555.204285	910.951416	26535.583984	1637.557617	2.835577
555.549500	909.911133	26262.890625	1631.613403	2.846617
555.894714	911.545837	26011.228516	1621.210938	2.827387
556.239990	906.195984	25649.968750	1615.786987	2.867756
556.585022	906.790344	25359.224609	1616.084106	2.900708
556.930115	906.493164	25091.210938	1616.084106	2.934047
557.275146	907.013245	24870.460938	1614.672485	2.953078
557.620178	906.716064	24676.453125	1598.028687	2.908373
557.965149	908.870850	24494.187500	1587.849121	2.878818
558.310059	908.276428	24322.548828	1580.790405	2.872240
558.654968	908.796570	24181.599609	1584.208374	2.902151
558.999756	903.075378	24073.859375	1585.991577	2.947316
559.344604	903.892639	24069.400391	1583.539673	2.933875
559.689331	895.570740	23998.740234	1588.220703	2.998073
560.033997	901.291992	23930.601563	1580.047363	2.947355
560.378723	909.836853	23894.046875	1578.189819	2.907879
560.723389	920.536377	23905.337891	1572.839966	2.837978
561.067932	918.010071	23981.724609	1584.876953	2.891411
561.412476	911.025635	23951.779297	1585.917114	2.929121
561.757019	906.195984	23946.726563	1590.226685	2.968815
562.101501	908.499329	23964.335938	1580.864624	2.916248
562.445862	910.208313	24021.474609	1583.465210	2.913111
562.790222	910.877014	24023.630859	1575.217773	2.874347
563.134644	907.830566	24046.070313	1584.505493	2.924487
563.478943	906.567566	24011.962891	1583.019531	2.927680
563.823181	904.709961	23974.367188	1588.369263	2.963457
564.167358	900.549011	23929.041016	1584.951294	2.971980
564.511536	903.000977	23964.041016	1585.768677	2.960698
564.855774	898.171326	23967.085938	1588.666504	2.993185
565.199768	902.778076	24030.837891	1592.158691	2.980711
565.543823	899.954529	24148.013672	1601.372437	3.017103
565.887817	906.270325	24429.843750	1613.334961	3.005770
566.231812	905.304382	24682.771484	1623.960327	3.022424
566.575745	906.121765	24929.603516	1627.675415	3.003535
566.919617	906.047363	25182.529297	1623.365845	2.954787
567.263428	906.493164	25384.927734	1622.994507	2.927072
567.607239	900.846191	25574.849609	1626.115112	2.939405
567.950989	905.527161	25649.671875	1636.443237	2.953895
568.294678	911.099915	25666.759766	1641.718628	2.951320
568.638367	918.232971	25548.468750	1640.158203	2.931053
568.981995	916.078308	25359.521484	1621.285278	2.885056
569.325623	913.552002	25139.134766	1599.068848	2.829723
569.669128	912.585999	24932.576172	1589.558228	2.818370
570.012573	914.294983	24807.523438	1591.638672	2.834877
570.356140	915.335205	24760.119141	1606.350586	2.897973
570.699524	915.558105	24712.640625	1612.963501	2.930634
571.042908	909.836731	24770.890625	1617.124390	2.964193
571.386230	908.053467	24836.054688	1625.297729	2.997510
571.729492	908.573547	25028.869141	1636.442993	3.017664
572.072815	917.861511	25230.380859	1649.520386	3.009391
572.416016	918.381592	25391.693359	1654.721680	3.008747
572.759094	921.353699	25564.593750	1656.727905	2.984081
573.102234	911.768738	25641.052734	1648.628784	2.979707
573.445374	903.818298	25762.091797	1644.393555	2.979190
573.788391	903.075256	25782.822266	1641.718628	2.968854
574.131409	909.242371	25769.296875	1642.313110	2.948790
574.474365	916.821289	25702.423828	1634.808472	2.896791
574.817261	908.647949	25578.416016	1625.297729	2.904972
575.160156	907.607727	25413.609375	1620.096558	2.907405
575.502930	903.223816	25175.173828	1613.260742	2.925339
575.845703	905.675781	24997.218750	1605.756226	2.905918
576.188477	900.920410	24757.443359	1605.087402	2.951675
576.531250	907.979187	24574.361328	1595.873657	2.906631
576.873901	914.889343	24260.804688	1592.158691	2.901019
577.216431	920.016296	24040.646484	1579.973022	2.854406
577.559082	912.585938	23750.865234	1582.202148	2.931991
577.901611	909.093750	23486.343750	1576.926636	2.957990
578.244080	905.304382	23136.455078	1565.706909	2.970618
578.586487	913.180420	22777.052734	1550.028931	2.912789
578.928955	985.774231	22490.837891	1605.013062	2.879502
579.271301	985.997070	22156.328125	1606.127563	2.929243
579.613647	981.241699	21801.013672	1603.898560	2.990700
579.955872	905.973145	21394.576172	1532.270874	3.056810
580.298157	906.567566	21087.705078	1525.211914	3.065458
580.640320	904.487061	20840.724609	1519.639282	3.085598
580.982483	903.000977	20626.509766	1526.029297	3.158811
581.324524	902.035095	20425.072266	1513.769409	3.133397
581.666626	903.223877	20270.822266	1507.899414	3.122099
582.008728	906.047363	20173.857422	1495.639526	3.059985
582.350647	906.567444	20076.150391	1493.113281	3.059774
582.692566	904.635559	20006.677734	1492.667358	3.078371
583.034424	906.567566	19895.000000	1496.085327	3.104615
583.376343	901.663574	19822.109375	1492.741699	3.124018
583.718201	905.230164	19727.000000	1492.444702	3.119869
584.059937	906.344666	19664.439453	1485.311523	3.086491
584.401611	911.397278	19584.638672	1484.642700	3.069876
584.743347	909.391052	19512.193359	1477.212280	3.052342
585.085022	907.607727	19398.361328	1471.639648	3.050346
585.426514	905.229980	19290.845703	1481.076172	3.132047
585.768127	910.877014	19186.523438	1484.568359	3.139103
586.109619	906.195984	19112.146484	1494.896484	3.233561
586.451172	907.161926	19073.880859	1490.735474	3.212322
586.792542	901.217773	19053.447266	1490.141113	3.244358
587.133850	918.158691	19052.853516	1482.859375	3.113924
587.475220	920.387756	19050.251953	1483.973999	3.108607
587.816589	925.514648	19032.640625	1489.026733	3.112101
588.157776	912.808899	19046.609375	1489.175293	3.178409
588.498962	913.774841	19076.478516	1490.809937	3.177033
588.840210	909.390930	19132.951172	1488.357910	3.177024
589.181335	912.734619	19218.843750	1488.803711	3.146868
589.522400	910.802734	19282.226563	1488.506470	3.144578
589.863403	905.750183	19364.033203	1489.843872	3.164399
590.204407	905.230042	19354.076172	1496.159668	3.203071
590.545410	904.412781	19414.556641	1502.995483	3.233809
590.886353	913.626282	19412.996094	1507.676636	3.211193
591.227112	911.991638	19412.847656	1510.797241	3.236637
591.567932	913.700500	19385.283203	1492.964478	3.135974
591.908752	917.341370	19325.246094	1488.506470	3.102825
592.249512	918.232971	19341.591797	1482.785156	3.064328
592.590149	916.524109	19239.500000	1491.775757	3.139510
592.930786	916.375488	19193.507813	1488.134766	3.128277
593.271423	911.694336	19103.750000	1483.305298	3.142091
593.612000	912.288757	19041.783203	1480.258789	3.132851
593.952576	904.487000	19006.562500	1479.887329	3.178643
594.292969	905.601501	18999.798828	1479.887329	3.173867
594.633484	908.202148	19028.406250	1490.661133	3.214417
594.973877	909.985413	19075.439453	1492.072876	3.204365
595.314209	913.106140	19151.453125	1491.775757	3.172818
595.654480	912.734619	19314.992188	1498.091431	3.180897
595.994812	912.140198	19495.326172	1505.373047	3.192310
596.335022	914.146423	19706.046875	1514.512329	3.194812
596.675171	914.072083	19890.765625	1513.323364	3.157828
597.015320	915.038025	20108.619141	1522.239746	3.163566
597.355408	916.524109	20290.291016	1533.608032	3.185152
597.695496	923.508484	20481.470703	1540.221069	3.153256
598.035461	920.685059	20506.957031	1537.100464	3.147181
598.375366	916.524109	20524.195313	1524.914673	3.102819
598.715271	913.031799	20471.958984	1509.756958	3.050909
599.055176	919.124695	20323.353516	1498.388672	2.985246
599.395081	917.192688	20067.232422	1497.125488	3.028363
599.734802	909.985413	19681.380859	1481.298950	3.043533
600.074524	907.904968	19302.064453	1478.104004	3.099892
600.414246	907.384949	18855.652344	1472.011230	3.145854
600.753906	909.688293	18405.601563	1477.360962	3.244601
601.093506	909.985413	18014.472656	1463.540649	3.236316
601.433044	914.072083	17797.806641	1451.875122	3.185332
601.772583	911.099915	17678.400391	1444.519165	3.181307
602.112122	913.626282	17686.650391	1446.971191	3.179778
602.451538	906.790466	17665.623047	1448.308594	3.231240
602.790894	902.555176	17756.048828	1457.522095	3.292889
603.130310	895.347839	17931.400391	1454.475708	3.282027
603.469604	892.821472	18178.978516	1463.763672	3.302887
603.808838	903.966858	18450.406250	1467.553101	3.211969
604.148010	901.886414	18740.410156	1487.168945	3.281003
604.487305	912.065918	19050.919922	1494.153320	3.209064
604.826416	906.344543	19375.623047	1509.014038	3.263092
605.165527	906.344666	19636.351563	1509.311157	3.219254
605.504456	898.617126	19866.466797	1518.301758	3.267026
605.843445	901.217712	20018.490234	1514.066528	3.205733
606.182434	908.425049	20093.759766	1516.815796	3.171124
606.521423	912.585999	20010.689453	1511.243042	3.134641
606.860229	908.053528	19832.734375	1499.726074	3.126460
607.199036	909.390930	19541.392578	1486.425903	3.097010
607.537903	911.248535	19247.822266	1474.166016	3.069916
607.876648	917.712891	18830.986328	1465.844116	3.059916
608.215271	915.929688	18475.595703	1460.642944	3.102071
608.553955	917.341492	18115.298828	1458.116699	3.144415
608.892578	923.880066	17879.388672	1459.974121	3.161769
609.231140	921.948181	17726.251953	1464.878052	3.230898
609.569641	917.564270	17692.742188	1476.915161	3.334396
609.908081	905.007141	17735.761719	1479.961548	3.416094
610.246521	902.406555	17805.904297	1490.661133	3.480076
610.584961	905.304382	17856.207031	1491.032837	3.455441
610.923340	907.087585	17892.466797	1491.404297	3.440116
611.261597	911.842957	17852.195313	1483.379517	3.373818
611.599854	913.329041	17749.283203	1473.868774	3.329421
611.938110	913.849121	17623.341797	1471.862671	3.339500
612.276245	908.647949	17393.748047	1465.769897	3.379549
612.614319	907.236267	17113.033203	1453.732788	3.372229
612.952393	906.790466	16754.150391	1433.670898	3.324720
613.290466	910.282715	16446.908203	1423.714355	3.304654
613.628479	910.059814	16151.034180	1413.460571	3.302943
613.966370	910.059753	15892.164063	1410.934448	3.343153
614.304260	906.493225	15652.387695	1396.222534	3.321123
614.642151	902.183655	15429.925781	1390.575562	3.361788
614.979980	908.945251	15198.695313	1390.352539	3.368899
615.317749	911.917297	15004.541992	1393.844727	3.419714
615.655396	909.762451	14871.987305	1392.730103	3.459102
615.993164	904.264099	14815.739258	1386.265991	3.464779
616.330811	904.932861	14782.749023	1381.213257	3.431955
616.668396	901.291992	14738.463867	1374.005859	3.416261
617.005859	912.065918	14734.526367	1364.643799	3.274221
617.343445	915.260925	14717.140625	1363.900757	3.250571
617.680908	921.353699	14755.183594	1358.996826	3.163572
618.018311	915.483826	14778.588867	1367.913086	3.263549
618.355652	899.954590	14797.015625	1368.136108	3.368925
618.692993	909.985413	14800.062500	1379.727173	3.381851
619.030273	905.452942	14784.012695	1378.463989	3.408214
619.367554	914.369324	14784.606445	1382.030640	3.371689
619.704712	906.344543	14773.015625	1384.631226	3.449182
620.041870	904.635681	14805.041992	1384.928345	3.455242
620.379028	910.654114	14794.489258	1383.888184	3.408526
620.716064	905.527161	14735.567383	1377.498047	3.412650
621.053040	900.549011	14609.698242	1376.606445	3.472553
621.389954	898.171204	14531.160156	1365.089478	3.424915
621.726929	905.824463	14476.843750	1362.191772	3.362808
622.063843	912.883240	14431.296875	1356.916138	3.284652
622.400635	912.288818	14368.660156	1357.064819	3.305319
622.737427	914.220703	14329.799805	1356.544800	3.297093
623.074219	907.459167	14275.632813	1354.092773	3.341022
623.410889	901.737854	14225.106445	1351.789429	3.377911
623.747559	894.233215	14174.284180	1349.263062	3.426416
624.084167	896.462219	14124.948242	1354.018555	3.458871
624.420715	902.406494	14129.257813	1355.207397	3.423346
624.757324	909.242371	14133.715820	1354.241333	3.364965
625.093750	913.626282	14184.835938	1361.002930	3.371031
625.430176	915.781006	14182.606445	1368.358887	3.411350
625.766602	920.536438	14232.983398	1377.943970	3.435939
626.102905	923.211365	14314.047852	1374.303101	3.368660
626.439209	917.192810	14456.782227	1383.219360	3.441955
626.775452	909.168152	14577.301758	1384.259766	3.475907
627.111694	907.236267	14693.734375	1390.129517	3.502653
627.447876	920.833679	14787.132813	1381.510620	3.322278
627.783997	923.880066	14866.414063	1378.612671	3.261477
628.120056	923.137024	14953.867188	1378.984253	3.248920
628.456055	917.787292	14969.545898	1379.504272	3.285830
628.792053	916.301086	14990.127930	1391.392700	3.375710
629.128052	921.799561	14920.656250	1391.467163	3.355043
629.463928	918.010071	14836.618164	1390.129517	3.392002
629.799744	913.180420	14692.694336	1378.909790	3.379868
630.135559	905.601563	14554.120117	1377.498047	3.457492
630.471375	905.378662	14397.563477	1383.665039	3.544914
630.807068	910.134033	14215.299805	1375.937866	3.500925
631.142700	912.660339	14030.286133	1371.999634	3.501695
631.478333	909.762512	13850.843750	1354.241455	3.434635
631.813965	903.966980	13718.363281	1353.424194	3.507440
632.149475	904.932861	13596.208008	1340.421021	3.431398
632.484924	909.242432	13517.448242	1339.009277	3.408628
632.820435	910.802795	13409.188477	1326.749268	3.328001
633.155884	915.632385	13342.242188	1325.114746	3.295206
633.491150	917.638611	13300.410156	1337.523315	3.390878
633.826477	918.010071	13267.567383	1345.102173	3.458359
634.161804	909.836853	13176.325195	1350.897705	3.595657
634.497009	906.641785	13095.038086	1337.820435	3.537616
634.832153	912.734619	13026.901367	1333.510986	3.473424
635.167297	907.161926	12961.960938	1324.223267	3.459712
635.502380	906.864746	12870.643555	1321.845459	3.468642
635.837463	900.028809	12778.434570	1315.306763	3.496075
636.172424	903.892578	12742.174805	1309.511108	3.426329
636.507324	901.514954	12664.601563	1307.133423	3.448231
636.842224	902.332275	12597.135742	1304.012817	3.434692
637.177124	905.973083	12443.253906	1300.743530	3.421694
637.511963	906.195984	12289.075195	1291.975708	3.389123
637.846741	904.784180	12141.139648	1281.276245	3.350660
638.181396	900.846191	12038.674805	1280.087280	3.404982
638.516113	902.926575	11965.710938	1277.338257	3.384425
638.850769	908.945129	11874.911133	1276.149292	3.348580
639.185303	911.099915	11773.563477	1272.285522	3.325080
639.519836	911.099915	11663.743164	1267.604492	3.315506
639.854370	914.963684	11552.735352	1267.455811	3.313590
640.188843	914.072083	11452.352539	1261.140015	3.293402
640.523254	910.059753	11355.535156	1262.997681	3.378859
640.857605	903.521057	11263.920898	1264.260864	3.481910
641.191895	905.601501	11151.204102	1264.780884	3.505693
641.526184	901.960632	11070.214844	1261.808716	3.538937
641.860413	904.487000	10988.704102	1262.774780	3.552956
642.194580	902.926697	10926.885742	1265.003784	3.612117
642.528748	909.762512	10870.190430	1265.226807	3.568765
642.862793	908.945129	10801.535156	1262.403198	3.572958
643.196838	912.734619	10748.854492	1266.118408	3.592715
643.530823	912.437439	10673.065430	1262.328979	3.584724
643.864746	909.613953	10635.988281	1265.003784	3.653878
644.198669	903.372498	10603.592773	1252.446655	3.598621
644.532532	895.570618	10563.246094	1255.344360	3.721409
644.866333	897.428223	10493.773438	1249.846069	3.672417
645.200073	907.459167	10476.238281	1253.561157	3.616992
645.533813	921.502441	10472.894531	1249.177368	3.430651
645.867554	916.895569	10489.538086	1254.750000	3.529375
646.201172	911.099915	10456.325195	1256.161743	3.615020
646.534729	912.734680	10448.821289	1270.873657	3.755618
646.868225	913.403320	10450.083008	1261.065796	3.645530
647.201782	909.168152	10458.406250	1257.350586	3.646180
647.535217	902.183594	10459.817383	1236.768677	3.500710
647.868591	903.000977	10500.237305	1241.078369	3.522654
648.201965	908.276550	10495.259766	1239.889526	3.458992
648.535278	912.585999	10498.974609	1248.805786	3.507262
648.868591	914.146484	10452.535156	1248.508423	3.505434
649.201782	906.641785	10443.841797	1248.434204	3.583781
649.534912	905.229980	10427.420898	1241.152710	3.527788
649.868103	905.527161	10403.941406	1242.267212	3.545224
650.201172	910.951355	10381.501953	1242.118652	3.496811
650.534180	904.487061	10328.821289	1255.195801	3.721311
650.867188	902.332214	10309.577148	1254.675781	3.745449
651.200134	901.663574	10277.180664	1252.297974	3.739894
651.533020	899.657410	10247.311523	1242.861572	3.671554
651.865845	896.685303	10202.060547	1238.626343	3.674662
652.198608	902.555176	10153.020508	1244.942139	3.701295
652.531433	905.824463	10140.018555	1238.849365	3.606431
652.864136	906.641785	10100.489258	1238.106323	3.605286
653.196777	1205.338745	10396.436523	1533.013794	3.565135
653.529358	1221.908203	10346.059570	1554.933105	3.649927
653.861938	1224.583130	10270.493164	1560.059937	3.708602
654.194519	918.827454	9856.329102	1254.229858	3.752753
654.526978	908.425049	9789.309570	1231.121704	3.633609
654.859375	909.688171	9720.950195	1224.583130	3.573778
655.191833	908.722229	9689.891602	1228.966919	3.646948
655.524170	899.583008	9634.165039	1235.208496	3.842490
655.856445	897.428223	9597.161133	1231.716187	3.842509
656.188660	911.917297	9560.010742	1235.282593	3.739151
656.520874	918.381653	9509.485352	1223.691406	3.553790
656.853088	923.211243	9483.478516	1226.143433	3.538817
657.185181	909.390930	9474.785156	1215.889648	3.578337
657.517212	900.103210	9490.538086	1229.561401	3.835175
657.849243	892.004150	9537.125000	1225.326050	3.855607
658.181274	899.731628	9572.196289	1235.505615	3.871725
658.513123	903.075256	9620.865234	1232.087769	3.774036
658.844971	909.391052	9715.303711	1240.112427	3.755674
659.176819	903.743958	9839.909180	1238.626343	3.747495
659.508667	914.443604	9986.434570	1241.524048	3.605388
659.840393	910.431213	10106.358398	1246.205200	3.651334
660.172058	906.864746	10178.209961	1247.468384	3.673724
660.503662	898.840027	10238.394531	1244.793335	3.704174
660.835266	903.966980	10252.290039	1239.146362	3.585449
661.166931	908.796631	10222.642578	1239.072144	3.546070
661.498413	910.282654	10187.200195	1237.957642	3.532154
661.829773	913.774902	10106.061523	1237.883301	3.525873
662.161194	919.347473	9978.631836	1237.288940	3.509565
662.492615	919.941895	9807.214844	1235.654297	3.552410
662.823975	917.564270	9604.221680	1235.505737	3.660113
663.155212	908.276428	9451.157227	1221.833862	3.670395
663.486450	905.750183	9269.413086	1211.951660	3.661093
663.817627	904.041199	9117.538086	1198.800049	3.588713
664.148743	909.539612	8980.895508	1196.719604	3.558014
664.479858	909.093811	8864.685547	1204.669922	3.715325
664.810913	912.511719	8771.584961	1210.985718	3.797827
665.141907	915.929688	8686.656250	1213.586426	3.830488
665.472778	916.969910	8617.035156	1199.543091	3.669750
665.803711	920.462097	8558.856445	1200.360474	3.664361
666.134583	918.307312	8516.281250	1193.598755	3.623222
666.465454	918.753113	8487.301758	1200.954956	3.728612
666.796143	908.276550	8440.417969	1184.608276	3.668701
667.126831	902.406555	8423.848633	1193.896240	3.875449
667.457458	897.948425	8400.815430	1185.202759	3.828594
667.788147	900.028809	8381.125000	1190.998413	3.889398
668.118774	902.778076	8352.219727	1185.797119	3.799198
668.449219	906.121643	8323.316406	1189.660889	3.822729
668.779663	914.889404	8337.731445	1186.540161	3.659660
669.110107	917.935791	8307.043945	1187.357422	3.646199
669.440552	921.130798	8270.784180	1190.775391	3.668807
669.770874	911.099915	8241.137695	1183.790894	3.720185
670.101135	908.053528	8226.648438	1178.292603	3.692499
670.431396	914.666504	8207.106445	1166.329834	3.451017
670.761597	914.369324	8155.243652	1170.787964	3.541266
671.091797	916.449707	8116.457520	1174.057251	3.577879
671.421875	911.917297	8080.644043	1175.394653	3.675372
671.751892	920.090576	8052.408691	1183.716675	3.696219
672.081909	922.022400	8004.260254	1174.577515	3.566036
672.411865	916.375427	7955.369629	1182.602173	3.782170
672.741821	911.545715	7882.033203	1174.726074	3.775638
673.071716	905.973083	7829.649902	1174.874634	3.883797
673.401550	905.527161	7804.238281	1165.512573	3.768609
673.731262	902.778015	7799.631348	1156.150269	3.673737
674.060974	898.617126	7764.263184	1157.116211	3.765110
674.390625	899.731628	7722.653809	1162.094482	3.845315
674.720276	898.022705	7677.254395	1170.193481	4.014773
675.049927	904.412781	7636.685059	1174.131470	4.006354
675.379395	900.697571	7586.531250	1171.010864	4.043076
675.708923	905.007141	7529.763184	1166.849854	3.952488
676.038330	903.892578	7478.345703	1154.144165	3.806424
676.367737	906.418884	7430.123535	1150.057495	3.734667
676.697083	909.613953	7413.702637	1160.534180	3.857884
677.026428	913.254822	7397.281738	1161.425781	3.827420
677.355652	915.186707	7390.371582	1161.277222	3.800517
677.684875	913.403381	7388.514160	1148.125610	3.624992
678.013977	905.898743	7383.461426	1155.630249	3.855331
678.343079	907.979309	7379.746094	1157.265015	3.851896
678.672180	908.945129	7348.390625	1158.082153	3.868921
679.001221	911.100037	7359.387207	1155.110107	3.784107
679.330139	914.294983	7382.644531	1159.568237	3.791898
679.659058	910.431213	7418.012207	1172.348267	4.024799
679.987976	914.220703	7479.980957	1185.276978	4.128330
680.316772	910.431213	7528.500000	1188.917847	4.207974
680.645630	907.756348	7601.094238	1185.945679	4.156212
680.974304	912.957520	7637.725098	1181.636230	3.995361
681.302979	912.363098	7671.161621	1177.252319	3.919176
681.631653	913.254700	7692.857910	1172.645630	3.826049
681.960266	910.654114	7708.981934	1164.100708	3.728073
682.288757	913.774841	7736.548340	1158.379395	3.585119
682.617249	910.654114	7745.984863	1157.339233	3.608971
682.945679	900.177429	7728.969238	1159.271118	3.794137
683.274109	896.016418	7723.173828	1164.918091	3.938706
683.602478	904.784180	7656.746582	1166.181152	3.871422
683.930725	913.180481	7581.254395	1171.456665	3.873325
684.259033	908.648010	7476.339844	1174.057251	4.041134
684.587280	903.223938	7402.928223	1169.004639	4.089120
684.915344	901.217712	7340.812012	1166.924194	4.126137
685.243469	903.743958	7269.183594	1161.648682	4.051641
685.571533	903.966858	7177.643066	1164.620850	4.154725
685.899536	898.171204	7075.922363	1161.203003	4.257728
686.227539	896.090820	6996.344238	1162.391724	4.365407
686.555420	903.595398	6959.490234	1163.877808	4.298001
686.883301	901.069092	6965.137207	1164.323608	4.341219
687.211121	900.697571	6965.880371	1163.432007	4.331847
687.538940	893.044434	6962.982910	1168.633179	4.540223
687.866638	902.555176	6954.809082	1168.856079	4.400029
688.194336	906.121643	6934.673340	1165.140991	4.296544
688.521973	903.595398	6930.437500	1162.391724	4.294062
688.849609	908.053528	6903.392090	1153.623901	4.096022
689.177063	909.613953	6904.580566	1154.961426	4.092557
689.504578	914.369324	6867.800781	1145.599243	3.883977
689.832031	911.768616	6839.490723	1145.227783	3.938430
690.159485	914.072083	6763.925293	1137.648926	3.821922
690.486816	918.084473	6690.365234	1128.732544	3.649304
690.814087	923.434143	6583.295410	1132.744995	3.698162
691.141296	922.022461	6489.079590	1131.407593	3.761146
691.468506	917.712891	6383.644043	1129.698608	3.878309
691.795715	904.932800	6302.876465	1119.593384	3.976710
692.122803	903.372498	6227.013672	1110.453979	3.889847
692.449829	902.406555	6173.664063	1112.014526	3.976432
692.776855	903.000977	6102.705566	1109.711060	3.975420
693.103821	900.177429	6024.984375	1110.974243	4.113263
693.430664	903.075256	5928.911621	1108.893799	4.095210
693.757568	902.332214	5867.165527	1110.454102	4.191921
694.084351	905.750183	5810.769531	1110.900024	4.182447
694.411133	904.561279	5774.732910	1107.407715	4.165078
694.737854	910.356934	5728.739746	1097.822632	3.890635
695.064575	909.093811	5706.300781	1096.559570	3.907810
695.391174	916.301208	5690.474121	1094.999146	3.743014
695.717773	916.895569	5670.412109	1099.754517	3.846814
696.044250	922.171082	5653.917480	1104.064087	3.844099
696.370789	908.425049	5659.489746	1104.435669	4.125615
696.697205	907.904968	5666.474121	1103.841187	4.117545
697.023621	902.852295	5698.646973	1101.909302	4.150657
697.349915	919.050354	5741.148438	1102.578003	3.805971
697.676208	920.536316	5815.599609	1106.962036	3.808443
698.002380	924.177185	5904.912109	1104.732910	3.625082
698.328674	911.025574	6020.006348	1107.259155	3.840954
698.654724	907.310547	6118.903809	1109.934082	3.887938
698.980896	899.954590	6234.146484	1120.039185	4.125922
699.306946	906.790466	6334.083984	1134.379639	4.193419
699.632935	902.480896	6458.466797	1141.958496	4.310263
699.958862	908.350769	6528.385254	1140.398071	4.128930
700.284729	906.047363	6558.032715	1131.036011	3.980701
700.610596	915.632507	6532.992188	1125.389038	3.734077
700.936340	912.511719	6457.946777	1121.748169	3.773129
701.262146	906.493164	6333.267090	1115.358032	3.848785
701.587830	903.520996	6184.363770	1113.872070	3.983286
701.913513	904.487000	6036.278809	1114.243652	4.087396
702.239075	913.997803	5897.406738	1113.723511	4.007813
702.564697	907.682068	5749.990723	1098.194214	3.934325
702.890137	902.555176	5587.490234	1088.609131	3.971324
703.215698	891.186829	5445.646484	1079.767090	4.140563
703.541016	893.267273	5310.043457	1083.333618	4.303282
703.866455	895.347839	5216.793457	1080.733032	4.289888
704.191711	899.062927	5133.500488	1081.253174	4.302584
704.517029	900.771912	5079.779297	1072.411133	4.107177
704.842163	902.480896	5031.334473	1064.609253	3.926716
705.167419	900.994812	4991.359863	1062.677490	3.952769
705.492493	900.549011	4942.542480	1061.488647	3.981690
705.817566	900.325989	4896.846680	1062.603149	4.060461
706.142578	903.000977	4852.710938	1054.875854	3.845216
706.467590	915.929626	4836.884277	1068.547363	3.892362
706.792480	918.381653	4821.058105	1066.838501	3.803975
707.117371	921.205078	4806.494629	1069.959229	3.828650
707.442200	910.877014	4800.550293	1066.466919	4.000076
707.766907	918.753113	4810.135254	1068.919067	3.858936
708.091675	916.672668	4811.026855	1074.566040	4.054417
708.416321	915.706726	4814.667969	1072.188232	4.013415
708.741028	910.728455	4813.701660	1075.606079	4.224411
709.065552	913.329041	4847.955566	1077.835327	4.180989
709.390137	913.329041	4856.797852	1077.166504	4.154654
709.714600	906.938965	4877.974121	1078.504028	4.320412
710.039063	906.567566	4887.633301	1084.373901	4.466300
710.363403	912.140198	4930.877441	1089.649292	4.417037
710.687744	911.025696	4976.647949	1091.432617	4.437376
711.012085	912.214539	5030.145996	1087.940308	4.267331
711.336304	905.824402	5071.829590	1088.757690	4.391096
711.660461	914.740723	5111.804199	1093.736084	4.264776
711.984619	914.963684	5145.463379	1093.364624	4.217018
712.308716	913.254700	5169.314453	1094.479126	4.258033
712.632751	905.378601	5188.039063	1095.519409	4.439782
712.956726	907.607727	5177.562500	1100.497681	4.517377
713.280701	911.397156	5157.277832	1096.856812	4.367990
713.604553	918.455872	5101.847656	1092.472778	4.159709
713.928467	914.220703	5061.873047	1085.042603	4.118520
714.252258	914.443665	5001.761719	1083.630859	4.139320
714.575989	906.641846	4962.083984	1080.213013	4.279957
714.899719	906.864746	4879.905762	1071.519653	4.144304
715.223267	903.818298	4830.791504	1067.284302	4.162646
715.546936	904.115479	4774.172852	1063.494751	4.118267
715.870422	902.778076	4752.104980	1066.838501	4.262055
716.193970	900.623352	4706.036621	1067.953003	4.397148
716.517395	900.846191	4653.207520	1065.352417	4.384072
716.840820	897.056824	4621.777832	1064.906616	4.506372
717.164124	898.022644	4591.388184	1060.002563	4.385700
717.487488	900.920471	4560.329590	1053.835571	4.178683
717.810730	908.945129	4524.738281	1052.349487	3.966055
718.133972	908.425110	4473.023926	1053.984131	4.083461
718.457092	914.443604	4438.844238	1050.937622	3.872829
718.780212	906.864746	4386.980957	1046.999634	4.026730
719.103210	900.994812	4342.770996	1037.191650	3.957167
719.426208	892.078430	4256.134277	1041.352661	4.437329
719.749207	898.468506	4188.593262	1044.399048	4.435410
720.072083	909.093750	4122.091797	1039.420776	4.056243
720.394958	909.168152	4083.603271	1037.786133	4.051681
720.717773	905.527344	4022.600586	1030.875977	4.021357
721.040527	903.669739	3985.895264	1032.436401	4.177717
721.363281	905.229980	3940.198975	1030.207153	4.117906
721.685913	911.620056	3920.137451	1030.504517	3.951596
722.008545	917.341370	3895.691650	1030.950317	3.814492
722.331055	916.746887	3874.367188	1031.990601	3.896501
722.653503	905.230042	3835.358154	1031.396118	4.305821
722.976013	903.372559	3819.159912	1030.430176	4.357575
723.298401	907.533447	3811.729248	1029.910034	4.213786
723.620789	914.443604	3802.218750	1027.532349	3.916120
723.943115	915.781067	3777.104248	1021.067871	3.679654
724.265381	917.341370	3768.262451	1014.529297	3.409001
724.587585	914.889404	3753.253174	1017.947266	3.630890
724.909790	912.140198	3741.662109	1029.389893	4.143799
725.231873	906.493164	3744.559814	1032.361938	4.435018
725.553894	908.499329	3758.602783	1031.544556	4.317220
725.875916	968.238770	3847.915039	1130.961792	5.650740
726.197937	967.644348	3838.255859	1140.918335	6.036135
726.519775	970.319336	3842.193604	1135.865601	5.764398
726.841675	906.121765	3790.924805	1029.984375	4.293624
727.163513	908.276428	3815.221924	1020.993652	3.877514
727.485291	902.109314	3828.373291	1031.247437	4.413072
727.806946	906.418884	3842.268311	1041.352661	4.596073
728.128662	905.898743	3860.769287	1042.764404	4.631866
728.450256	910.876953	3866.119141	1034.219482	4.173686
728.771790	913.774841	3874.366455	1035.036865	4.095871
729.093323	915.409424	3877.339111	1039.717896	4.196875
729.414795	920.462097	3910.255127	1046.033569	4.200006
729.736145	919.421814	3919.914063	1041.724121	4.076075
730.057495	922.245361	3925.412842	1048.337036	4.198623
730.378845	914.443542	3924.669678	1049.154419	4.475108
730.700134	903.149597	3910.775391	1049.005859	4.849548
731.021301	899.583008	3893.165283	1037.637573	4.611684
731.342468	903.892639	3889.153076	1035.631348	4.412972
731.663574	918.976074	3899.481201	1039.940796	4.058531
731.984680	919.421875	3916.199219	1043.507446	4.140634
732.305664	913.180481	3917.536377	1041.352661	4.266212
732.626648	911.917297	3929.870850	1039.718018	4.234682
732.947571	911.397156	3946.291748	1042.467163	4.318767
733.268433	916.524109	3958.106201	1038.306274	4.003909
733.589233	905.304382	3950.527344	1032.064819	4.162600
733.909973	903.223816	3943.542725	1026.194946	4.044679
734.230713	899.805969	3922.589111	1034.070923	4.441766
734.551331	903.818359	3891.827881	1038.380493	4.503404
734.871948	903.298157	3842.416748	1040.535278	4.669329
735.192505	902.778076	3788.324463	1033.105103	4.516546
735.513062	904.709961	3744.188721	1031.693237	4.472063
735.833435	907.384766	3707.408936	1030.504395	4.397092
736.153931	915.260925	3657.625732	1028.423950	4.126476
736.474304	913.551941	3605.167969	1022.108215	4.033126
736.794617	911.768738	3545.651367	1018.244446	4.042538
737.114807	903.595398	3510.580811	1014.455078	4.252409
737.434998	905.675781	3491.782227	1019.136047	4.387300
737.755188	910.282654	3475.584229	1025.674683	4.498186
738.075256	905.378662	3480.785156	1035.482788	5.051790
738.395325	906.641785	3485.912109	1032.287720	4.871375
738.715271	907.979248	3516.896240	1028.795410	4.630893
739.035278	919.496155	3531.534180	1032.436279	4.323832
739.355164	923.805725	3537.701172	1032.510620	4.158731
739.675049	922.245361	3542.828125	1029.835693	4.105588
739.994873	923.508484	3548.772217	1026.046265	3.905809
740.314636	913.626282	3554.939453	1025.823364	4.247777
740.634277	915.038025	3540.747314	1021.290833	4.046633
740.953979	906.195862	3516.004639	1011.185730	4.022895
741.273499	908.127747	3481.974365	1007.544861	3.862589
741.593140	899.880188	3457.305664	1016.164001	4.546909
741.912598	900.697510	3425.058350	1020.622131	4.750692
742.232117	901.291992	3381.814209	1026.269165	5.038341
742.551453	902.109314	3328.167236	1021.588074	4.924811
742.870850	904.338379	3294.136719	1021.216614	4.890716
743.190063	906.121643	3260.254639	1014.678040	4.611311
743.509338	908.499329	3230.310791	1014.009277	4.544294
743.828552	910.877014	3195.314453	1016.981445	4.644663
744.147705	914.740784	3162.843750	1020.696472	4.713115
744.466797	917.118469	3130.670898	1013.117676	4.336884
744.785828	919.644775	3101.915771	1009.328125	4.109634
745.104858	909.836853	3091.884766	1002.863770	4.263285
745.423706	912.957520	3077.024170	1010.739929	4.518456
745.742615	911.991516	3060.231689	1012.597473	4.683180
746.061401	923.062683	3035.340576	1013.786377	4.295064
746.380249	920.090576	3017.284912	1006.430359	4.116919
746.698975	918.232971	2996.554443	998.777161	3.875444
747.017639	913.329102	2990.015625	997.365417	4.046654
747.336304	914.815125	2971.885986	1006.430359	4.453674
747.654907	918.010071	2970.028320	1016.386902	4.794150
747.973389	914.666504	2955.167969	1020.473572	5.185346
748.291931	917.935791	2947.960205	1013.712097	4.717988
748.610352	915.038025	2949.892578	1005.018555	4.421964
748.928711	913.403320	2949.149414	999.297302	4.219287
749.247070	910.282715	2960.740479	995.136414	4.138281
749.565308	912.214539	2954.945068	989.860840	3.801104
749.883545	910.282532	2961.929443	994.319031	4.096051
750.201782	911.917236	2954.870361	997.439697	4.186217
750.519836	908.276428	2939.118408	1000.931946	4.562419
750.837952	907.904968	2935.106201	993.873230	4.240736
751.155884	906.864746	2921.954346	991.272644	4.188791
751.473877	901.663513	2913.632813	992.090027	4.494428
751.791809	909.465332	2896.766357	997.662659	4.438046
752.109619	903.000977	2892.531006	995.953613	4.672090
752.427490	908.053528	2884.654541	995.136414	4.405688
752.745300	904.561340	2868.307861	1000.114563	4.865863
753.062988	899.805969	2857.459717	1004.572754	5.351650
753.380615	891.409729	2847.875000	1012.671814	6.198019
753.698303	895.793640	2839.998779	1008.659424	5.805241
754.015808	899.285828	2825.435547	1002.640930	5.365891
754.333374	909.019531	2823.875000	994.393311	4.458498
754.650757	906.790466	2824.097900	993.055908	4.499301
754.968262	912.883301	2826.326904	1000.411865	4.574400
755.285583	914.517883	2819.862549	1000.411804	4.508051
755.602905	912.065918	2806.116455	996.770996	4.472166
755.920105	909.019531	2803.664795	994.541931	4.513900
756.237305	902.332214	2788.878174	1002.343689	5.301301
756.554443	901.886414	2783.899658	1005.092957	5.483838
756.871582	902.555115	2766.884766	1003.086731	5.392374
757.188599	903.818298	2768.816406	989.563538	4.597605
757.505615	904.412781	2772.011719	988.597656	4.507653
757.822510	904.264160	2771.491455	990.975403	4.643850
758.139465	911.843018	2778.253174	994.244812	4.414989
758.456238	906.567566	2794.673828	996.993958	4.789264
758.773010	905.452942	2826.921631	993.501648	4.582365
759.089783	896.090820	2853.373047	998.257019	5.219799
759.406433	901.291992	2868.456299	1001.451965	5.091592
759.723145	908.276428	2861.917969	1005.761536	4.989918
760.039673	915.558105	2864.518311	1007.321960	4.708349
760.356201	918.158691	2867.713623	1005.241516	4.466805
760.672668	909.985413	2891.490234	1003.012512	4.694770
760.989136	902.183594	2890.598633	999.445984	4.891453
761.305481	903.000977	2890.747314	991.644043	4.459476
761.621826	910.059753	2871.948486	989.935120	4.071351
761.938049	924.028625	2876.778320	993.278809	3.546291
762.254333	927.000793	2882.425537	998.405701	3.651631
762.570496	925.143250	2925.669678	1005.390137	4.011289
762.886597	915.186584	2972.554688	1007.470520	4.485533
763.202637	907.756348	3055.922607	1016.535461	5.063813
763.518677	907.161926	3161.878174	1027.086426	5.318829
763.834656	908.425110	3311.895508	1043.730225	5.629572
764.150574	911.174316	3460.128906	1056.287476	5.693046
764.466370	915.186584	3599.744141	1068.696045	5.718240
764.782288	912.065857	3683.557373	1066.466919	5.571046
765.097961	913.180420	3736.609619	1064.683716	5.365932
765.413696	907.161926	3721.600342	1047.296753	4.979140
765.729309	906.418884	3655.991455	1037.563232	4.769627
766.044861	903.223877	3536.586670	1028.275391	4.748739
766.360474	900.028809	3388.723877	1033.550903	5.365145
766.675903	902.183594	3222.211670	1022.776917	5.197925
766.991394	910.059753	3065.135742	1016.609863	4.944147
767.306763	904.041199	2944.542236	996.845276	4.548102
767.622131	903.818359	2866.524658	997.811218	4.788942
767.937378	900.103210	2803.218750	994.170410	4.942801
768.252625	912.363098	2738.649658	996.102295	4.585217
768.567810	911.545715	2672.148682	989.637939	4.435538
768.882996	906.344543	2622.440430	978.864075	4.225843
769.197998	907.533447	2586.775146	977.972473	4.194693
769.513062	913.997742	2550.069580	982.430603	4.182754
769.828064	917.564270	2502.812744	988.969238	4.504339
770.142944	910.505554	2463.803955	983.470764	4.697437
770.457825	903.966980	2432.745361	987.334534	5.453214
770.772705	898.022705	2406.218994	980.052917	5.438962
771.087402	903.000977	2382.516846	978.789795	5.122542
771.402100	894.753357	2357.105225	968.164490	5.020073
771.716736	898.022705	2329.167480	971.433777	5.129535
772.031372	905.081360	2294.913818	972.176819	4.827593
772.345947	910.505554	2276.338135	975.966309	4.792737
772.660461	909.911133	2261.106201	973.217102	4.685184
772.974854	904.338440	2243.347656	978.938293	5.571272
773.289246	901.663574	2227.447021	978.566895	5.800594
773.603638	904.041199	2221.948486	982.876465	5.981853
773.917908	902.406494	2207.236572	970.616455	5.227498
774.232178	913.626282	2182.270752	961.774414	3.795242
774.546265	915.260925	2156.933838	960.288391	3.626355
774.860474	914.443542	2135.534668	968.313049	4.411588
775.174561	911.397156	2120.302490	972.845520	5.082976
775.488586	909.168030	2112.426514	979.532715	5.847844
775.802551	912.585999	2109.083008	979.235535	5.570389
776.116516	911.768738	2106.779297	981.390320	5.826023
776.430359	910.356995	2096.005615	968.833191	4.932000
776.744202	909.019531	2092.810303	970.913635	5.228467
777.057922	908.425110	2078.098389	973.588562	5.571081
777.371704	908.796631	2061.900635	974.851746	5.728461
777.685303	901.514954	2049.120605	963.037598	5.360957
777.998962	903.446777	2048.749023	961.031433	5.027900
778.312500	903.595398	2047.634766	965.341003	5.397158
778.626038	906.195984	2034.631470	969.130371	5.577136
778.939453	910.505554	2022.743042	967.570007	5.130599
779.252869	916.821289	2014.644043	970.765076	4.913706
779.566223	923.731445	2017.913452	973.068420	4.509028
779.879578	919.421875	2017.616089	970.467834	4.648172
780.192749	916.524109	2012.637695	960.957031	4.053679
780.505920	909.465332	2003.201538	969.799072	5.516297
780.819031	908.870911	1995.176758	965.341003	5.198360
781.132141	917.712891	1991.312866	978.046692	5.619766
781.445190	920.610779	1990.495483	968.312988	4.458631
781.758118	920.239197	1982.916626	973.960022	5.055233
782.071045	907.236267	1974.520508	967.421387	5.639091
782.383911	908.127869	1960.402954	962.814636	5.197003
782.696838	905.601563	1943.313477	969.724854	6.179296
783.009583	909.019470	1928.898560	966.158264	5.602507
783.322266	909.539551	1917.753296	970.244934	6.021083
783.634888	910.654114	1906.459106	957.985046	4.753032
783.947510	911.545837	1904.007202	949.737488	3.848175
784.260132	912.883240	1889.815430	953.229675	4.129911
784.572571	917.564270	1877.704102	954.789978	3.877113
784.885010	922.839844	1860.465820	951.817871	3.090574
785.197449	917.192810	1847.239868	945.799316	3.075813
785.509766	909.613953	1849.023071	945.279236	3.796566
785.822083	896.462341	1835.648560	952.412292	5.957280
786.134277	899.062805	1836.688843	953.229675	5.777023
786.446533	902.257996	1833.196655	950.257568	5.156040
786.758606	913.626221	1839.215210	946.839600	3.588351
787.070740	915.186707	1837.580566	946.542419	3.399384
787.382690	911.322937	1841.370117	950.926270	4.258207
787.694641	904.561340	1850.583496	952.858093	5.105246
788.006653	902.555176	1879.784546	957.093323	5.580895
788.318481	908.647949	1891.821655	958.950928	5.116388
788.630310	908.945129	1916.490234	963.854919	5.449859
788.942017	902.257996	1920.651001	963.334778	5.997369
789.253784	902.406555	1941.827148	961.923035	5.725928
789.565430	900.549011	1959.957153	968.090149	6.375365
789.877014	913.626221	1970.805298	963.186218	4.687947
790.188538	913.106140	1969.096313	964.226379	4.840977
790.500061	918.901672	1938.780762	959.099548	3.941435
790.811462	913.031799	1916.712891	950.183289	3.701523
791.122925	912.660339	1887.734863	938.889221	2.689936
791.434204	917.192810	1866.410156	935.842834	1.964779
791.745483	918.084473	1832.973999	948.028381	3.272954
792.056702	915.335266	1805.333374	954.418457	4.391379
792.367920	909.911133	1779.698853	949.365906	4.536138
792.678955	910.728516	1767.735962	946.913879	4.222293
792.990112	920.982239	1765.729858	947.508301	3.140117
793.301086	919.421875	1747.822876	949.291565	3.605704
793.612122	921.576660	1740.838379	945.576416	2.929437
793.922974	913.031799	1726.943848	946.913879	4.162868
794.233826	910.951355	1738.163574	946.839600	4.338457
794.544556	907.607727	1743.290405	955.607239	5.743749
794.855286	902.109375	1745.593750	959.693909	6.826983
795.166016	905.155762	1734.968384	958.950928	6.482809
795.476624	902.703796	1720.999634	952.709534	6.110961
795.787292	906.418945	1725.160522	951.520691	5.508667
796.097778	908.722351	1739.500977	954.789978	5.545115
796.408264	913.997803	1757.928101	953.601074	4.692719
796.718689	916.078308	1776.057983	952.560852	4.242257
797.029053	914.294983	1791.810181	957.836426	4.961902
797.339355	911.248535	1793.742188	959.173828	5.430667
797.649658	919.273254	1789.952759	957.539124	4.394943
797.959839	922.914063	1782.968262	943.570313	2.401738
798.270020	920.684998	1780.441895	943.124451	2.609977
798.580078	917.341370	1769.742188	939.557861	2.606343
798.890137	910.282654	1746.856934	950.331726	4.787271
799.200195	911.768738	1733.259399	945.799316	4.142540
799.510071	907.236267	1715.798462	947.879822	5.026646
799.820007	907.756348	1709.259766	934.876770	3.383694
800.129883	903.818359	1703.538452	941.192566	4.673411
800.439575	903.372498	1694.101929	939.112000	4.519814
800.749329	901.737793	1693.656250	949.663086	6.051796
801.058960	905.452942	1679.687378	946.542297	5.307095
801.368591	908.276428	1671.588379	949.365784	5.383036
801.678162	913.254700	1658.213867	952.337952	5.246362
801.987671	912.957520	1653.458496	955.012878	5.679312
802.297119	910.951355	1647.811523	957.242004	6.282148
802.606506	906.864685	1636.889038	957.836426	6.982197
802.915894	912.065857	1626.040894	960.065491	6.722873
803.225159	906.047363	1622.028320	951.966492	6.413456
803.534424	906.195984	1620.319336	940.523865	4.806996
803.843628	902.406555	1619.056274	932.350586	4.178336
804.152771	911.471497	1613.929565	939.632141	4.008872
804.461792	917.935730	1623.068726	948.697205	4.362507
804.770874	919.496155	1621.656860	953.824158	4.888910
805.079773	909.019470	1629.384399	949.737366	5.652399
805.388733	899.731689	1622.845703	945.056335	6.267981
805.697571	898.245605	1633.991211	939.780823	5.645323
806.006470	901.886414	1641.644409	937.328918	4.791094
806.315125	905.081360	1650.040649	933.910950	3.869955
806.623901	909.168030	1646.176758	937.551758	3.851207
806.932495	911.842957	1646.176758	941.118225	3.986643
807.241150	918.307312	1644.096313	941.861328	3.245298
807.549622	917.489929	1648.703125	946.988220	4.034157
807.858154	926.406311	1636.591797	956.201721	4.195441
808.166565	919.793396	1624.406128	967.049988	6.706747
808.474915	918.233093	1616.678589	965.118103	6.712766
808.783264	910.505554	1609.396973	959.768250	7.048691
809.091492	912.883240	1603.526978	951.892090	5.648187
809.399719	911.397156	1583.836914	949.737366	5.701657
809.707825	907.904968	1577.446777	945.873596	5.670837
810.015930	911.248535	1570.462280	942.381409	4.722728
810.323975	911.099915	1579.527344	937.626038	3.968437
810.632080	913.329102	1578.264160	933.465088	3.028264
810.939880	904.709961	1568.307617	930.641602	3.907735
811.247864	897.056702	1552.035156	934.653870	5.740214
811.555664	896.833801	1536.283203	932.053406	5.507802
811.863464	897.056824	1528.035522	932.127625	5.558159
812.171143	902.257996	1521.868530	920.536377	2.949979
812.478882	898.691406	1523.280273	924.251465	4.092301
812.786438	905.230042	1530.190308	922.914063	2.829623
813.094055	914.963684	1517.112915	933.242188	3.035544
813.401489	919.347595	1518.821899	932.647766	2.218639
813.708984	920.907959	1505.521851	939.706543	3.215555
814.016357	912.957581	1520.233765	940.746765	4.576037
814.323730	913.923523	1513.546387	940.449524	4.423781
814.630981	906.195984	1514.363770	938.443359	5.302382
814.938232	903.075256	1501.880859	943.198730	6.700584
815.245361	901.366394	1499.131714	946.913879	7.619627
815.552490	903.521057	1500.469116	945.427917	7.020185
815.859619	907.979309	1504.630005	937.700378	4.981318
816.166565	908.648010	1503.812866	931.607605	3.857687
816.473572	913.403320	1508.345215	931.979004	3.122268
816.780457	917.489990	1508.567993	935.768555	3.092412
817.087341	917.415710	1510.202759	938.963562	3.635007
817.394043	920.685059	1506.784790	939.483643	3.207404
817.700806	913.477600	1509.979980	936.660095	3.886405
818.007507	916.821289	1524.543335	945.130676	4.658279
818.314209	910.654114	1537.174683	944.164734	5.348686
818.620667	918.307373	1544.604858	946.988281	4.579439
818.927246	922.616882	1555.230103	943.570313	3.312202
819.233704	920.164856	1578.858521	954.195557	5.166393
819.540161	912.585999	1609.768433	951.669250	5.605886
819.846497	900.846191	1633.693970	950.257507	6.742371
820.152832	903.075256	1671.514038	947.656982	5.801598
820.458984	896.016541	1717.061523	953.229675	6.968331
820.765259	892.598633	1778.584351	957.464844	7.321361
821.071350	896.536621	1879.487305	959.693909	6.425275
821.377502	906.270264	2041.615845	971.582336	5.752616
821.683472	911.917297	2317.130371	995.507813	5.948600
821.989441	901.514954	2675.418213	1029.166992	7.196110
822.295349	895.867920	3138.918701	1080.435913	8.228436
822.601196	900.549011	3647.817627	1135.048340	8.535727
822.907043	906.938965	4214.747559	1199.023071	8.830139
823.212769	911.471436	4753.293457	1230.824585	8.312544
823.518494	908.647949	5166.342285	1243.678833	7.868834
823.824097	909.688232	5356.706055	1222.948608	7.044280
824.129700	903.446777	5311.753418	1205.710327	6.856682
824.435242	900.251770	5118.417480	1177.178101	6.565089
824.740723	900.994812	4859.918457	1153.401123	6.375630
825.046082	904.264160	4559.066406	1116.472656	5.806292
825.351501	908.053528	4206.499512	1086.008545	5.395117
825.656799	909.539551	3790.999268	1055.172974	5.054154
825.962036	909.242371	3376.687256	1035.334106	5.110215
826.267212	906.047363	3038.758545	1020.696472	5.375745
826.572449	911.843018	2813.249268	1017.575745	5.560765
826.877502	914.666504	2731.962158	1023.668640	5.998041
827.182495	920.462097	2734.340088	1040.312378	6.607406
827.487488	913.552002	2791.479248	1055.693115	7.569043
827.792419	914.740784	2854.561768	1061.711548	7.576511
828.097290	914.443604	2910.883545	1063.494751	7.465847
828.402100	916.003906	2944.988281	1060.225464	7.108067
828.706848	921.279480	2927.007080	1044.547607	6.145806
829.011597	915.186707	2846.760010	1026.714966	5.773960
829.316223	903.743958	2730.327881	1010.591309	5.849572
829.620789	891.484070	2604.458984	1004.870056	6.619244
829.925354	896.536682	2475.915283	997.588379	6.398193
830.229797	902.778137	2340.907227	986.145752	5.796949
830.534302	913.552002	2177.292480	983.619385	5.544444
830.838562	906.344543	2007.807983	974.034363	6.145444
831.142944	898.765686	1851.475220	969.724792	7.448136
831.447144	887.694580	1738.609375	953.006653	7.675513
831.751404	891.484070	1673.668823	944.016052	6.716058
832.055542	905.898743	1627.081055	932.276184	3.657527
832.359619	907.607727	1598.994629	940.078064	4.696406
832.663635	911.174255	1596.245239	949.811707	5.639919
832.967651	905.527161	1627.526733	953.452576	6.637873
833.271545	904.858459	1678.052734	957.539246	6.813396
833.575439	905.675842	1741.655762	958.133606	6.275003
833.879211	908.053528	1820.639648	970.244934	6.814853
834.183044	916.523987	1916.044312	981.093079	6.460008
834.486694	915.558105	2001.938110	986.740173	6.552226
834.790344	914.740906	2079.213135	999.000061	7.235824
835.093933	911.397156	2131.224854	1001.674988	7.400868
835.397522	912.586121	2148.463135	1003.606750	7.364862
835.700928	909.242432	2114.878174	996.250793	7.216804
836.004395	909.985413	2060.488525	991.272522	7.065353
836.307739	910.059753	2008.551147	985.179688	6.838463
836.611023	915.483826	1951.189453	979.978577	6.227132
836.914307	921.279480	1883.648438	972.994141	5.373683
837.217529	918.455994	1794.931030	968.461609	5.705310
837.520691	912.140198	1709.557007	957.464844	5.683934
837.823730	901.737793	1616.752930	949.143005	6.629959
838.126831	897.205322	1550.994995	939.855164	6.523480
838.429749	897.799805	1489.100708	940.523926	7.225445
838.732727	899.954590	1455.144531	934.133850	6.156318
839.035522	901.440613	1428.395508	929.972900	5.414560
839.338379	901.589172	1421.039551	921.948181	3.919337
839.641113	907.384766	1412.048828	920.759277	2.650181
839.943848	908.573730	1418.884766	924.102844	3.043068
840.246460	911.397217	1429.138672	928.709656	3.343839
840.549072	908.053650	1453.138306	933.390808	4.648298
840.851563	906.418945	1463.169067	937.625977	5.605213
841.154053	908.053650	1472.308472	937.700378	5.254138
841.456482	910.208435	1464.803833	935.545593	4.568584
841.758850	916.078308	1459.751343	929.527039	2.473680
842.061157	917.490051	1447.788574	931.756042	2.690181
842.363403	919.644775	1438.054810	930.344299	2.063911
842.665588	919.793396	1410.265625	932.499084	2.590501
842.967712	917.489990	1392.284302	925.811951	1.752751
843.269775	911.545715	1363.900757	924.325928	2.825261
843.571777	906.716064	1340.792603	926.109192	4.467675
843.873840	904.041199	1311.220093	933.316467	7.189780
844.175659	911.991516	1293.536011	932.573425	5.394367
844.477600	923.211243	1279.864380	932.647644	2.645820
844.779297	925.291809	1268.718872	924.028625	-0.367817
845.081116	923.137024	1252.223755	926.629211	1.061175
845.382751	911.768738	1245.462280	921.205078	2.827846
845.684387	915.483826	1230.378662	920.685059	1.651736
845.985962	908.127869	1225.103149	913.031921	1.547140
846.287537	904.784180	1215.369629	917.490051	4.090942
846.588989	902.480896	1212.546143	918.678894	5.224061
846.890381	900.771912	1215.369629	926.406311	8.148311
847.191711	908.647949	1212.323242	917.192810	2.813815
847.493042	908.870850	1207.716431	908.053528	-0.273493
847.794250	917.267090	1193.450317	904.189758	-4.735020
848.095459	912.883301	1184.459595	907.756348	-1.887850
848.396606	908.722351	1172.794067	922.171082	5.092833
848.697693	899.434509	1167.369995	919.421875	7.459768
848.998657	901.960754	1163.877808	921.428040	7.432615
849.299622	901.663574	1173.314209	923.657166	8.096278
849.600464	906.864746	1170.787964	922.171082	5.799541
849.901367	907.756348	1166.849976	922.914063	5.850285
850.202087	913.477600	1159.048218	918.455872	2.027226
850.502808	915.038086	1164.175171	924.994446	3.996338
850.803467	913.923523	1163.580566	924.548767	4.255936
851.104065	912.214539	1169.524780	927.669434	6.006327
851.404663	903.520996	1163.580566	926.554871	8.857153
851.705139	897.205322	1167.147095	930.195740	12.221309
852.005615	890.889648	1164.026489	927.223633	13.302484
852.306030	894.307556	1160.014160	925.811829	11.856790
852.606384	902.555176	1159.122437	924.325867	8.485373
852.906616	915.781006	1165.215210	926.703552	4.378929
853.206909	916.672607	1168.930298	923.359924	2.650986
853.506958	915.929688	1172.868530	927.149353	4.366668
853.807129	906.641785	1157.487915	927.149414	8.175382
854.107178	910.951355	1161.797485	928.041016	6.812806
854.407166	911.025696	1156.373291	928.858398	7.268342
854.707092	910.059753	1157.413452	926.332031	6.578547
855.007019	908.499329	1154.961548	926.406433	7.265659
855.306763	908.425110	1154.664185	908.722351	0.120712
855.606567	906.864685	1157.041992	912.065918	2.079019
855.906250	907.533447	1149.165894	911.842957	1.783498
856.205933	904.264099	1147.605591	928.561096	9.984733
856.505493	904.858582	1147.679810	925.143127	8.353696
856.805054	903.372559	1145.747925	935.694153	13.335346
857.104492	908.350769	1139.952271	925.366028	7.346783
857.403931	914.517883	1137.203247	919.867676	2.402400
857.703308	917.341309	1137.723267	904.858582	-5.664133
858.002563	911.471497	1138.317749	907.161926	-1.899776
858.301819	906.938965	1141.512695	907.236267	0.126741
858.601013	904.264099	1140.992554	918.678772	6.089117
858.900208	904.041199	1143.964722	916.301208	5.109966
859.199219	905.824463	1148.125610	920.685059	6.133110
859.498291	903.298157	1155.704468	917.861511	5.769806
859.797302	914.592102	1148.794434	920.164856	2.379461
860.096191	912.883118	1147.234009	915.929688	1.300004
860.395020	921.873718	1140.918335	917.192810	-2.136966
860.693787	913.700500	1143.964722	915.260925	0.677667
860.992554	906.418945	1138.986328	922.765442	7.028714
861.291260	897.874207	1136.980103	917.490051	8.203832
861.589844	895.793640	1136.831665	917.861511	9.155349
861.888428	900.400391	1127.395142	913.477722	5.761072
862.186890	905.824463	1127.841064	921.502258	7.061542
862.485413	903.298157	1118.553101	920.164856	7.835685
862.783813	911.397156	1120.113525	921.650940	4.912784
863.082153	905.527283	1126.800781	917.638611	5.473465
863.380371	911.768738	1144.187622	920.907898	3.932194
863.678589	906.418945	1149.537354	923.657043	7.090413
863.976746	909.465332	1146.713867	919.421814	4.196646
864.274902	904.115479	1143.667480	926.629211	9.398266
864.572937	911.322937	1145.004883	920.684998	4.006326
864.870911	915.855286	1139.580811	918.976013	1.394891
865.168884	923.508484	1137.574707	912.734558	-5.032987
865.466736	919.941956	1139.803833	913.700500	-2.838807
865.764587	918.010071	1144.261963	917.564270	-0.197037
866.062317	913.923523	1144.782104	913.997742	0.032149
866.360107	903.223816	1157.041992	914.815002	4.566728
866.657715	896.610901	1158.750977	908.722168	4.620151
866.955322	885.762756	1156.001709	909.762512	8.880939
867.252808	897.874084	1140.472534	903.595398	2.358347
867.550293	907.979248	1138.540527	909.539612	0.676767
867.847717	918.753113	1142.404419	911.694336	-3.156153
868.145081	919.644775	1137.351685	918.158691	-0.682608
868.442383	913.849121	1136.162964	922.988464	4.111010
868.739624	908.276367	1133.116577	919.347595	4.924043
869.036804	903.298157	1133.413696	914.443604	4.843413
869.333984	896.908142	1135.345703	912.586121	6.575297
869.631042	897.576843	1136.683105	908.499451	4.568098
869.928101	892.970154	1151.692261	919.124756	10.109149
870.224976	892.821533	1145.748047	916.969910	9.547586
870.521851	901.440613	1153.326782	931.607483	11.976390
870.818726	901.812073	1148.497192	929.972839	11.415673
871.115479	905.824463	1160.980103	929.378418	9.231211
871.412231	900.549011	1154.218384	925.663269	9.900391
871.708862	906.195984	1155.333008	927.000732	8.350725
872.005493	907.459167	1154.887207	928.635437	8.558557
872.302063	916.524109	1158.676636	926.852051	4.265057
872.598572	921.502380	1159.568237	921.205078	-0.124882
872.895020	920.387878	1158.230835	917.638611	-1.155917
873.191406	917.935852	1160.237061	912.585938	-2.207960
873.487671	909.836853	1158.973999	910.282715	0.178962
873.783997	910.282654	1162.986206	910.356934	0.029394
874.080200	903.892578	1164.769531	910.579895	2.563399
874.376343	907.236145	1167.964478	908.276428	0.398991
874.672424	910.802734	1171.085205	913.923523	1.199001
874.968445	913.254700	1171.976685	916.821289	1.378541
875.264465	906.121643	1174.800293	922.691101	6.167017
875.560364	895.942200	1172.497070	921.650879	9.296050
875.856201	896.685242	1164.323730	923.359924	9.966684
876.152039	903.372375	1162.837524	927.372253	9.249750
876.447754	916.747009	1164.472168	932.201904	6.238727
876.743469	916.821289	1169.896362	935.917053	7.545494
877.039063	913.254700	1166.701294	929.378479	6.361805
877.334595	906.641846	1164.992310	922.839844	6.269777
877.630127	905.898743	1169.970581	917.118469	4.248740
877.925537	908.945129	1176.509277	911.991516	1.138563
878.221008	909.242432	1181.190308	908.350769	-0.327880
878.516296	903.818298	1190.106689	913.106140	3.244226
878.811646	897.651123	1190.626831	925.068848	9.358361
879.106812	893.564453	1198.800049	930.715881	12.171394
879.401978	890.592346	1205.041504	933.316467	13.586972
879.697083	893.936035	1220.347778	928.709778	10.653337
879.992126	898.765686	1248.211426	927.372314	8.186286
880.287109	904.932861	1284.396851	918.233093	3.505005
880.582031	911.099915	1358.625366	929.972839	4.217174
880.876892	913.180420	1462.277710	939.409241	4.776717
881.171753	912.883301	1641.495728	960.362610	6.516401
881.466492	909.762512	1879.784546	985.031189	7.759481
881.761230	905.898865	2197.502930	1022.182556	9.003045
882.055786	907.756348	2523.171875	1058.962402	9.360196
882.350403	907.087646	2848.246094	1074.120117	8.604783
882.644958	906.121643	3090.918945	1079.247070	7.924096
882.939453	909.836731	3243.982422	1071.370972	6.920486
883.233826	907.830566	3273.257813	1071.742554	6.929488
883.528137	910.877136	3229.419189	1053.241089	6.140236
883.822449	903.521179	3164.107178	1045.290649	6.271359
884.116577	900.697571	3087.054932	1021.736633	5.536106
884.410828	896.908142	2981.916748	1015.569580	5.691173
884.704956	897.874023	2808.791748	1003.606873	5.533092
884.999023	897.056702	2558.985596	994.764832	5.879200
885.292969	896.685242	2281.167969	974.777405	5.640530
885.586914	896.388000	2030.619019	957.390625	5.378325
885.880798	901.589172	1836.837524	942.752930	4.401372
886.174622	903.298157	1693.210449	941.266846	4.806697
886.468384	903.075195	1580.567383	935.322693	4.759833
886.762085	903.595398	1508.865356	931.756104	4.652586
887.055664	908.425049	1453.212524	930.270081	4.009826
887.349304	915.632507	1412.791992	932.573425	3.407542
887.642822	914.666504	1369.993530	935.025391	4.471267
887.936340	912.214539	1343.318848	935.396973	5.377454
888.229736	913.551941	1317.535889	933.019287	4.818841
888.523071	910.951355	1304.235718	931.904785	5.327806
888.816284	919.198975	1288.260620	930.567322	3.080338
889.109619	914.889343	1266.935669	932.424866	4.981027
889.402710	922.542480	1248.954468	932.796387	3.141400
889.695862	916.226807	1230.230103	938.368958	7.051567
889.988892	915.855286	1221.239624	936.660095	6.812664
890.281921	912.586060	1211.059937	930.418640	5.974586
>>>>>End Processed Spectral Data<<<<<
