Jaz Data File
++++++++++++++++++++++++++++++++++++
Date: Fri Jun 04 14:54:38 2021
User: jaz
Dark Spectrum Present: Yes
Reference Spectrum Present: Yes
Processed Spectrum Present: Yes
Spectrometers: JAZA3586
Integration Time (usec): 138000 (JAZA3586)
Spectra Averaged: 10 (JAZA3586)
Boxcar Smoothing: 1 (JAZA3586)
Correct for Electrical Dark: No (JAZA3586)
Strobe/Lamp Enabled: Yes (JAZA3586)
Correct for Detector Non-linearity: No (JAZA3586)
Correct for Stray Light: No (JAZA3586)
Number of Pixels in Processed Spectrum: 2048
>>>>>Begin Processed Spectral Data<<<<<
W	D	R	S	P
191.335022	0.000000	0.000000	0.000000	0.000000
191.713211	291.266663	290.003540	293.792969	-200.004837
192.091385	583.202087	588.403259	586.917175	71.427902
192.469528	880.412903	884.796875	881.304504	20.337755
192.847641	890.889648	889.106384	894.679016	-212.496155
193.225739	901.886475	892.004150	907.756348	-59.397697
193.603790	917.267090	903.149597	924.177246	-48.947475
193.981842	927.595215	919.124695	922.839844	56.140251
194.359863	942.975830	928.115234	923.657227	129.998856
194.737854	944.461914	937.625977	932.796387	170.649994
195.115829	942.901550	937.328796	935.842773	126.665863
195.493774	940.598145	937.848938	941.266846	-24.323423
195.871704	941.489746	940.598145	933.985291	841.682617
196.249603	942.158447	941.564026	944.090332	-325.002563
196.627457	938.443359	944.907715	946.690979	127.586113
197.005310	929.304138	944.313293	952.486633	154.455688
197.383133	935.917053	952.412354	950.851990	90.540558
197.760910	939.409241	955.310059	954.938477	97.663124
198.138687	946.988220	953.749695	950.257507	48.351688
198.516449	940.003723	943.347351	941.638367	48.888321
198.894180	931.681824	932.499207	927.892395	-463.605133
199.271866	929.601318	921.279480	919.941956	116.072464
199.649536	929.304138	920.313538	924.251526	56.198830
200.027191	931.087402	921.353760	935.471252	-45.038124
200.404816	932.350586	929.378479	934.579590	-74.997437
200.782410	934.133850	941.564148	927.669495	-86.999954
201.159988	935.917053	955.533020	918.530273	-88.635857
201.537537	929.972839	965.192383	920.982239	-25.527306
201.915070	923.211365	965.861084	919.273193	-9.233757
202.292557	916.003906	964.820801	921.799561	11.872231
202.670029	920.907898	957.762146	924.548767	9.879103
203.047485	923.805725	955.087219	925.737610	6.175807
203.424911	924.920227	958.505066	926.703613	5.310093
203.802292	917.341370	966.604187	928.635437	22.926149
204.179688	918.307373	962.740417	930.492981	27.424652
204.557037	923.285645	961.551514	926.554932	8.543612
204.934357	921.799561	959.248108	926.852112	13.491982
205.311661	923.880066	972.845459	918.604492	-10.774086
205.688934	921.948181	965.117981	919.719055	-5.163624
206.066177	919.421875	964.523621	909.539612	-21.911043
206.443390	912.734680	961.031311	917.192871	9.230853
206.820587	901.886414	966.158203	919.050354	26.705248
207.197769	901.812195	970.616455	919.941956	26.349764
207.574921	906.567566	967.347107	924.474426	29.461987
207.952042	912.437317	968.610291	916.969910	8.068992
208.329147	917.118469	967.049866	926.554932	18.898855
208.706223	956.498840	1006.653259	963.483398	13.926107
209.083267	966.826965	1006.355957	978.492493	29.511320
209.460297	968.313049	1004.498474	976.412048	22.381937
209.837280	922.022522	965.712402	937.997559	36.564613
210.214264	918.307312	962.814636	926.554871	18.530790
210.591217	914.220642	966.455566	918.753174	8.677205
210.968124	922.245361	970.690735	912.957520	-19.171783
211.345016	918.084290	974.034363	915.929688	-3.850937
211.721893	918.678772	973.514221	921.353760	4.878209
212.098724	908.499329	970.244934	922.691223	22.984461
212.475555	910.951355	970.764954	922.914063	19.999979
212.852356	913.403381	961.700134	920.759277	15.230622
213.229126	920.536438	954.938477	925.291809	13.822934
213.605865	920.536438	950.183167	916.449707	-13.784762
213.982590	916.821289	951.446350	914.517883	-6.652424
214.359283	914.443604	957.762024	904.709961	-22.469986
214.735931	913.923523	960.214050	914.072083	0.320929
215.112579	916.598328	963.334717	921.873840	11.287806
215.489197	911.619934	963.334778	921.130859	18.391094
215.865799	908.647949	964.003479	916.003967	13.288678
216.242355	908.425049	963.483398	912.511719	7.422434
216.618896	907.533447	961.031433	917.935791	19.444365
216.995407	907.756348	962.888977	910.951355	5.795130
217.371902	907.979248	962.443115	909.242371	2.319194
217.748367	911.620056	973.514221	913.997742	3.841534
218.124802	902.852295	981.539001	926.926453	30.594950
218.501236	903.223877	984.288147	925.663330	27.681065
218.877609	902.480896	975.074524	920.462097	24.769669
219.253983	910.579834	970.690735	924.325867	22.867786
219.630295	911.099854	975.520325	929.675598	28.835157
220.006592	907.236145	981.613281	936.808777	39.760380
220.382889	897.948303	985.848450	929.824219	36.263779
220.759140	895.050598	989.266418	932.499207	39.747684
221.135391	899.805908	990.158020	925.811829	28.782858
221.511581	903.743958	989.935120	933.687988	34.741417
221.887772	907.533386	994.616211	933.390808	29.692907
222.263931	914.443542	1013.414856	944.387634	30.255323
222.640060	922.765442	1020.102051	939.706543	17.404655
223.016159	920.164856	1024.857422	940.895325	19.801281
223.392212	923.434265	1020.845032	940.300964	17.315025
223.768265	919.273254	1023.445618	948.399902	27.960052
224.144302	916.449768	1022.702637	941.935608	23.986025
224.520294	902.555176	1032.584839	941.489746	29.942837
224.896286	905.601563	1048.039917	940.375244	24.413145
225.272217	908.499451	1058.888062	947.508301	25.938700
225.648148	918.158691	1062.306030	955.904480	26.185560
226.024048	911.174316	1065.649658	958.059326	30.351130
226.399902	909.688171	1089.129272	966.529785	31.677031
226.775772	906.047363	1105.475952	965.786804	29.955305
227.151581	906.418884	1133.562378	974.703064	30.062134
227.527374	906.047363	1150.206177	977.377930	29.214823
227.903137	906.716125	1181.859009	993.130127	31.406956
228.278870	909.168152	1231.195923	1006.207458	30.133831
228.654572	904.115479	1311.071533	1029.167114	30.728535
229.030273	894.307556	1406.699219	1049.674683	30.321947
229.405930	892.747131	1498.091431	1073.302856	29.826948
229.781555	903.743896	1561.397339	1089.054932	28.177612
230.157181	908.870850	1578.264038	1089.500854	26.984142
230.532761	914.963623	1545.496460	1086.305786	27.174185
230.908325	911.099915	1484.716919	1073.971558	28.393797
231.283859	919.347473	1439.095093	1064.163452	27.862749
231.659332	913.254639	1408.556641	1045.216431	26.642693
232.034821	918.084412	1396.593872	1042.541382	26.009302
232.410263	915.186584	1369.176270	1038.529175	27.168589
232.785690	911.471497	1345.027832	1037.191772	28.997448
233.161087	903.446777	1312.557495	1019.507629	28.369057
233.536469	904.487061	1300.891968	1011.334290	26.954063
233.911804	912.214539	1306.167603	1007.693542	24.236137
234.287140	915.558105	1326.600830	1016.907043	24.656546
234.662430	910.059753	1350.674927	1027.606567	26.677887
235.037704	917.564392	1361.374390	1033.922363	26.217970
235.412933	915.632507	1367.169922	1036.225708	26.707245
235.788162	912.808899	1367.764526	1029.687134	25.690029
236.163345	905.230164	1370.365112	1027.681030	26.325880
236.538513	902.852356	1381.807617	1028.869751	26.310890
236.913635	906.047363	1385.448364	1033.105103	26.503437
237.288742	912.511719	1400.829102	1044.027466	26.932432
237.663834	915.038025	1395.033691	1046.256592	27.337448
238.038879	912.065918	1398.228516	1052.200806	28.824696
238.413910	904.932861	1387.826172	1045.290649	29.066004
238.788910	898.468567	1398.823242	1049.600220	30.204905
239.163879	891.929932	1415.838501	1054.875732	31.101954
239.538834	887.991882	1443.850586	1065.872559	32.001060
239.913757	902.629456	1477.658203	1078.578369	30.598282
240.288651	907.236145	1518.450317	1087.271851	29.455421
240.663528	911.842957	1580.195923	1096.856812	27.682058
241.038361	905.081482	1651.452271	1113.649292	27.944262
241.413177	908.945129	1750.349243	1137.649048	27.181221
241.787979	908.870850	1853.184204	1175.171875	28.200493
242.162735	910.802734	1980.539063	1214.403687	28.380915
242.537476	913.031799	2100.760986	1252.520996	28.583046
242.912170	913.031799	2234.580322	1289.672241	28.499931
243.286865	916.078186	2302.195557	1308.693848	28.324848
243.661514	913.329041	2309.848877	1305.870361	28.108540
244.036148	907.459167	2226.852783	1277.709595	28.062168
244.410751	906.270264	2145.342529	1245.982300	27.416645
244.785339	905.229980	2046.519897	1220.347900	27.610682
245.159882	908.870911	2004.464355	1209.574097	27.446602
245.534378	906.716125	2011.374634	1212.917603	27.719109
245.908890	903.372498	2116.884521	1240.558228	27.785942
246.283356	906.344543	2283.471191	1287.220337	27.657280
246.657791	907.756348	2500.137939	1353.944214	28.020161
247.032196	922.394043	2763.541016	1432.184937	27.688766
247.406586	923.434265	3024.789795	1504.630249	27.658148
247.780960	920.090637	3206.682617	1544.456421	27.305517
248.155289	912.288818	3247.400391	1550.177734	27.317278
248.529602	911.174316	3139.661377	1514.958374	27.093901
248.903870	908.127930	2940.753174	1460.791504	27.189644
249.278122	904.264099	2705.733643	1396.148315	27.304609
249.652344	899.731628	2504.075928	1343.021729	27.630610
250.026550	902.926575	2352.275635	1307.059204	27.883732
250.400711	906.790344	2250.258057	1281.796265	27.913280
250.774857	906.121765	2172.314453	1266.044067	28.425556
251.148987	903.149597	2138.135010	1256.830566	28.638475
251.523071	900.549011	2143.930664	1259.431152	28.863396
251.897125	904.115540	2196.091064	1276.372192	28.812979
252.271164	910.356934	2263.186523	1298.737305	28.708742
252.645187	922.765564	2312.895264	1305.201538	27.510813
253.019165	929.824219	2334.888672	1303.492554	26.594391
253.393112	929.378418	2316.535889	1293.907593	26.278860
253.767044	918.976074	2260.511719	1280.384521	26.939907
254.140930	920.164856	2173.651611	1254.229980	26.650869
254.514801	921.725281	2086.643311	1235.134277	26.903954
254.888657	920.684998	2017.839233	1221.759644	27.441414
255.262466	912.585938	1986.780396	1211.208618	27.799685
255.636276	922.171082	1994.285034	1205.190063	26.398216
256.010010	922.022400	2020.662476	1219.307739	27.059391
256.383759	922.914063	2071.931396	1245.462280	28.071657
256.757446	904.561340	2120.822510	1259.951294	29.219870
257.131134	908.276550	2198.989014	1280.533081	28.841167
257.504791	912.065918	2287.186279	1305.350220	28.599991
257.878418	919.273254	2408.968506	1347.331421	28.734612
258.252014	920.684998	2560.100342	1381.287598	28.095541
258.625580	925.143127	2757.968506	1436.048828	27.875305
258.999115	921.353699	2991.799072	1503.589844	28.121300
259.372650	919.644775	3289.307373	1589.929688	28.286091
259.746124	909.316711	3606.430908	1677.606812	28.485634
260.119598	909.762512	3924.594971	1750.274902	27.879240
260.493042	906.716064	4129.001953	1790.398438	27.424084
260.866425	909.390930	4170.686035	1791.810059	27.057322
261.239838	917.118469	4022.823486	1753.544067	26.931908
261.613159	913.106201	3749.538330	1683.699585	27.167700
261.986511	911.620117	3436.426514	1599.588989	27.248381
262.359802	903.595398	3174.806641	1524.320313	27.330128
262.733063	911.620117	2994.919922	1468.741821	26.742271
263.106293	911.768738	2894.016602	1441.398438	26.718643
263.479523	917.489990	2830.562256	1427.280884	26.647758
263.852692	918.827454	2794.970947	1423.862915	26.918806
264.225861	920.833679	2752.321289	1415.392578	27.003126
264.598969	917.490051	2727.207031	1409.002441	27.159626
264.972076	911.694397	2718.587891	1404.544312	27.276091
265.345154	910.059753	2747.417236	1404.470093	26.908773
265.718201	914.517883	2796.234375	1426.166382	27.190519
266.091217	918.753113	2883.391357	1453.732788	27.230442
266.464203	912.437500	2996.703125	1485.831543	27.510603
266.837158	907.607727	3112.169189	1507.156372	27.195824
267.210114	900.474670	3210.843750	1531.973633	27.333250
267.583038	906.418945	3274.595459	1552.183960	27.268450
267.955902	902.852356	3308.997314	1562.437622	27.412531
268.328766	909.019470	3307.214111	1564.741089	27.342302
268.701569	912.363098	3300.824219	1554.412964	26.881319
269.074371	916.524109	3292.725342	1541.484253	26.300810
269.447144	915.632385	3323.040771	1544.902222	26.138889
269.819885	912.734680	3373.120850	1555.973267	26.143805
270.192596	911.545837	3476.327393	1592.084473	26.533981
270.565277	916.895691	3616.611084	1639.563843	26.768309
270.937927	909.019531	3820.423096	1711.340332	27.557869
271.310577	903.669678	4052.247803	1777.023926	27.738052
271.683136	893.787415	4273.966797	1835.574585	27.862047
272.055725	897.725403	4425.767090	1863.289429	27.368271
272.428284	904.932800	4501.332520	1878.298462	27.065002
272.800812	907.236267	4432.231445	1852.441040	26.814358
273.173279	909.465332	4301.606934	1818.261719	26.791227
273.545776	910.654236	4151.070313	1770.039429	26.520828
273.918152	909.242432	4054.922607	1747.154297	26.636906
274.290558	909.242371	3982.477295	1722.114258	26.450041
274.662964	906.195984	3915.827881	1718.844849	27.001604
275.035278	905.007080	3885.364014	1696.405396	26.553810
275.407593	907.384766	3881.500000	1702.423828	26.731953
275.779907	904.115479	3928.756592	1708.145142	26.582647
276.152161	909.093750	4013.684570	1733.110962	26.541895
276.524384	908.499329	4117.708496	1760.231445	26.540249
276.896606	905.898743	4197.509277	1779.847290	26.550787
277.268799	903.743958	4226.933105	1785.122925	26.522081
277.640930	898.988586	4239.490234	1777.543945	26.300102
278.013031	901.663513	4238.524902	1778.435547	26.275351
278.385162	905.675842	4231.540039	1777.543945	26.214783
278.757233	912.511719	4210.363770	1780.961914	26.333813
279.129272	913.106140	4214.227539	1782.967896	26.350492
279.501282	914.146301	4222.697754	1790.398438	26.484465
279.873230	910.208313	4284.889160	1807.265137	26.581974
280.245178	917.267090	4385.123535	1826.732422	26.225576
280.617126	914.443542	4545.840332	1862.397583	26.104393
280.988983	910.579773	4718.223145	1902.892578	26.061075
281.360870	912.214539	4892.313965	1951.932495	26.122915
281.732697	923.285645	5068.336914	2003.944336	26.071056
282.104492	930.641602	5202.676270	2042.730347	26.031828
282.476288	925.143250	5301.275879	2067.176025	26.096848
282.848053	911.025696	5351.133301	2078.395752	26.291483
283.219757	910.059753	5349.721680	2076.240967	26.267340
283.591461	909.836914	5289.536621	2058.854004	26.235065
283.963135	911.620117	5220.732422	2050.457764	26.428591
284.334747	915.260925	5208.620605	2047.485718	26.371534
284.706360	916.449768	5279.951172	2067.101563	26.369921
285.077942	921.205139	5423.281738	2092.290283	26.012112
285.449524	911.025696	5586.673340	2124.537842	25.953886
285.821014	901.291992	5683.860840	2136.351807	25.824194
286.192535	899.731628	5805.717285	2164.809814	25.786421
286.563995	901.589172	5880.763184	2173.948975	25.553635
286.935425	909.465271	5946.372559	2189.180908	25.406773
287.306824	909.465271	5879.648438	2163.917969	25.239565
287.678223	916.226807	5741.742676	2140.215576	25.364933
288.049561	916.895569	5607.700684	2111.683350	25.470848
288.420898	912.511719	5480.048340	2091.398682	25.810125
288.792145	904.412781	5455.156738	2081.144775	25.858011
289.163452	908.202209	5483.764160	2080.550537	25.621954
289.534668	907.607727	5606.437988	2102.395508	25.427347
289.905914	910.356934	5751.922363	2138.283447	25.362179
290.277039	907.830566	5917.320313	2189.701416	25.588850
290.648193	915.929688	6094.309082	2228.784424	25.352617
291.019318	913.849121	6237.861816	2252.932617	25.151772
291.390381	911.545837	6273.155762	2257.093750	25.095966
291.761475	905.898743	6193.800781	2237.031982	25.173185
292.132507	906.790466	6076.847656	2206.864990	25.146231
292.503510	910.877136	5968.960938	2177.218506	25.035988
292.874481	923.508545	5918.286621	2170.828369	24.972477
293.245422	921.279480	5931.809082	2202.927002	25.579081
293.616364	913.626282	6057.083496	2238.592529	25.760229
293.987213	902.183594	6231.769531	2283.694092	25.921535
294.358093	906.047363	6451.705566	2325.303467	25.592203
294.728943	901.960754	6667.703613	2377.686768	25.594727
295.099731	897.576843	6882.289551	2428.287109	25.577003
295.470490	900.251770	7033.421387	2472.943115	25.642393
295.841248	905.898743	7162.856934	2504.150391	25.543591
296.211975	905.973083	7264.800293	2535.580322	25.627480
296.582642	911.768738	7425.145996	2575.406494	25.541859
296.953308	915.706726	7585.267578	2608.471436	25.380451
297.323883	915.855286	7717.897949	2637.895020	25.316511
297.694519	912.288757	7727.631348	2621.028320	25.071953
298.065063	906.641785	7624.425293	2602.229736	25.240288
298.435608	901.812195	7408.056152	2533.499756	25.078793
298.806122	900.994812	7093.755371	2464.472656	25.246862
299.176575	899.954590	6753.522949	2383.111328	25.337652
299.547028	894.901917	6503.122559	2327.310059	25.541224
299.917450	891.038269	6358.455078	2290.975830	25.605099
300.287872	893.564514	6283.855469	2265.118408	25.444897
300.658234	910.728455	6198.184082	2253.007080	25.386097
301.028564	914.592285	6121.949707	2235.694580	25.369917
301.398865	910.654114	6059.757813	2231.979248	25.661266
301.769135	898.171326	6019.857910	2213.923828	25.689827
302.139374	893.490234	6000.835938	2204.264404	25.664490
302.509583	900.251770	5968.365723	2180.636230	25.263531
302.879791	908.499329	5888.268066	2166.816162	25.268581
303.249939	909.539612	5768.937500	2142.518799	25.373087
303.620087	908.202148	5660.678223	2125.875244	25.621866
303.990173	913.923523	5595.664063	2108.414063	25.513811
304.360260	916.672668	5544.766113	2095.039307	25.461170
304.730286	920.759277	5528.122559	2082.407959	25.212873
305.100281	911.322937	5510.661621	2083.076416	25.476563
305.470276	904.041199	5525.076172	2077.058350	25.384293
305.840179	898.319824	5518.834473	2093.330566	25.863152
306.210144	903.669617	5542.240234	2091.250244	25.602295
306.579987	917.192688	5563.267578	2110.345947	25.680889
306.949890	924.771667	5629.471191	2108.116699	25.152401
307.319702	925.291748	5700.281738	2137.020508	25.376570
307.689484	918.381653	5818.200684	2156.264893	25.263859
308.059265	915.855408	5913.753906	2185.762939	25.408829
308.429016	911.471497	6054.111816	2208.202393	25.215277
308.798737	907.161926	6158.878418	2234.357178	25.271648
309.168396	901.440613	6299.459473	2264.598389	25.252926
309.538055	905.155762	6377.031250	2276.932617	25.069592
309.907684	913.849121	6430.454590	2292.461914	24.990236
310.277313	908.722351	6445.463379	2295.656982	25.049656
310.646851	904.858459	6442.789063	2298.777588	25.170399
311.016388	899.583008	6442.045410	2296.994385	25.212826
311.385895	916.078186	6364.622559	2284.437012	25.114210
311.755371	913.106140	6309.712402	2269.130859	25.127359
312.124817	905.824463	6235.632813	2248.103271	25.184372
312.494232	905.973145	6194.989746	2222.691650	24.895336
312.863617	911.397217	6105.231934	2202.035400	24.849426
313.232971	916.078186	6059.164063	2184.499756	24.662657
313.602295	907.236145	6051.361816	2186.580322	24.870005
313.971619	911.991516	6116.971191	2202.852783	24.800507
314.340820	915.781067	6159.546875	2218.010498	24.833862
314.710083	919.198975	6223.521484	2233.614014	24.780075
315.079285	915.632385	6229.837402	2231.087891	24.753572
315.448486	920.982239	6239.422363	2233.836914	24.684959
315.817596	923.657166	6113.776855	2196.685547	24.527918
316.186707	916.821289	5963.982910	2155.521729	24.542517
316.555786	914.963684	5769.160645	2101.578125	24.445126
316.924866	909.093811	5622.338379	2065.318359	24.531393
317.293884	911.248596	5529.682129	2044.439453	24.536261
317.662872	900.549011	5472.841309	2031.659302	24.738363
318.031830	900.400391	5477.818848	2037.380493	24.838894
318.400757	902.555176	5501.150391	2043.250366	24.805296
318.769684	909.093750	5555.985840	2054.321533	24.645027
319.138550	903.298157	5595.886719	2070.296631	24.868973
319.507416	898.096985	5617.657715	2082.036377	25.085798
319.876190	901.069092	5601.830566	2074.234619	24.956924
320.244995	910.059753	5556.357422	2062.495117	24.803303
320.613770	916.375488	5478.488281	2032.030884	24.454796
320.982483	910.802795	5418.600098	2020.142212	24.609344
321.351166	905.675842	5369.411621	1996.216797	24.431128
321.719818	901.589172	5366.291016	2003.572876	24.682135
322.088440	898.691406	5403.888184	2019.473755	24.877544
322.457062	904.264160	5517.942871	2061.380371	25.080122
322.825623	908.499329	5690.770996	2109.454346	25.112650
323.194183	916.226868	5867.760254	2151.435303	24.945980
323.562653	917.489990	6024.464844	2182.791260	24.775946
323.931183	916.969910	6124.178223	2202.258545	24.682871
324.299591	908.350830	6207.472656	2225.292236	24.852068
324.668060	900.474670	6230.654785	2224.029053	24.831327
325.036407	904.338379	6230.357910	2205.304932	24.426620
325.404755	911.545715	6162.519531	2180.041748	24.157351
325.773102	919.719055	6082.271973	2171.868408	24.254463
326.141388	912.214539	5973.864746	2159.682861	24.645485
326.509674	902.109375	5874.150391	2140.958740	24.916315
326.877899	895.199219	5804.157715	2113.169434	24.811174
327.246124	898.245605	5772.281250	2095.559570	24.565145
327.614288	908.573669	5714.474121	2077.355469	24.319725
327.982422	908.425049	5684.529785	2065.244141	24.220976
328.350525	910.282654	5618.177246	2051.275146	24.235725
328.718628	913.774902	5599.230469	2043.101929	24.102821
329.086700	925.217529	5590.833496	2046.519897	24.033318
329.454712	928.263916	5633.929688	2062.346436	24.100361
329.822693	924.771667	5690.548340	2079.435791	24.228245
330.190674	922.765564	5737.507813	2090.729736	24.258081
330.558563	922.765564	5767.154297	2093.479248	24.166386
330.926483	926.480652	5827.042480	2099.646240	23.939407
331.294312	922.542664	5899.041504	2118.965088	24.041447
331.662231	912.511780	5996.006348	2153.887451	24.419731
332.029999	905.081482	6103.894531	2184.945801	24.618393
332.397766	898.617188	6207.026855	2210.728760	24.717602
332.765503	907.236267	6294.406250	2222.914307	24.422434
333.133240	902.703796	6362.617188	2239.855713	24.490349
333.500916	904.412781	6432.386719	2252.709961	24.390438
333.868561	907.756348	6456.609375	2257.019531	24.316074
334.236176	908.499329	6463.891113	2253.304443	24.207207
334.603790	909.019470	6421.761230	2244.759521	24.230049
334.971344	900.846191	6395.606934	2233.614014	24.255247
335.338867	909.019531	6332.375000	2228.487061	24.329357
335.706360	908.648010	6300.871094	2211.397705	24.159790
336.073853	918.901794	6284.152344	2217.787598	24.209229
336.441284	919.273254	6302.951172	2221.502686	24.188475
336.808655	919.941895	6300.722168	2237.180664	24.480442
337.176086	911.397217	6305.552246	2240.227051	24.634623
337.543396	910.802734	6285.861816	2226.258057	24.473318
337.910706	913.849121	6268.251953	2218.159180	24.359581
338.277954	920.536316	6236.970703	2203.373047	24.129642
338.645264	918.827393	6211.559082	2205.081787	24.302280
339.012421	910.802734	6194.097656	2191.409912	24.238798
339.379669	910.059753	6193.503418	2195.496826	24.329529
339.746796	906.864746	6195.583496	2190.072510	24.263113
340.113953	918.232971	6206.654785	2200.400635	24.244808
340.481018	915.483826	6209.181152	2183.979980	23.962385
340.848114	917.415710	6228.425781	2189.775391	23.957016
341.215118	914.963684	6293.515137	2198.394531	23.862019
341.582153	912.586121	6402.962402	2237.849365	24.137930
341.949066	912.660339	6520.435059	2267.644775	24.162603
342.316010	907.756348	6619.257813	2299.817627	24.372948
342.682922	906.047363	6733.535156	2323.668945	24.326462
343.049835	901.291992	6892.542969	2366.095703	24.449045
343.416656	904.338379	7105.568848	2413.203369	24.331703
343.783478	908.870911	7351.437500	2475.023438	24.309452
344.150269	915.929688	7642.777832	2553.932861	24.350233
344.516998	915.186584	7925.128418	2617.239014	24.280550
344.883728	914.072083	8070.167480	2651.492432	24.278889
345.250427	910.356934	8109.770996	2647.777588	24.132807
345.617065	915.260925	7999.505371	2620.582764	24.072035
345.983704	907.384827	7867.320313	2580.087646	24.033310
346.350281	904.932861	7684.164063	2529.115967	23.958220
346.716827	897.725525	7497.069824	2480.224854	23.979645
347.083405	900.771912	7339.177246	2453.252930	24.112818
347.449860	926.852234	7207.364746	2430.218994	23.937006
347.816376	929.081238	7102.746094	2417.959229	24.116598
348.182770	933.910950	7027.179688	2384.596924	23.808010
348.549194	913.403320	6974.053223	2366.467041	23.975378
348.915558	918.604553	7002.213379	2370.108154	23.859253
349.281921	911.099915	7050.733887	2399.680664	24.245434
349.648193	909.911133	7117.383301	2413.426758	24.221062
350.014526	907.830627	7164.862793	2428.064209	24.296402
350.380737	910.728516	7222.967285	2429.698975	24.063894
350.746948	915.038086	7294.074707	2461.797607	24.247541
351.113159	912.214539	7360.130371	2473.017578	24.206316
351.479309	919.198975	7433.541504	2496.794189	24.217258
351.845428	915.335205	7517.058105	2507.865479	24.122950
352.211517	912.140137	7608.376465	2533.128418	24.207453
352.577576	906.270264	7718.937988	2565.969971	24.361963
352.943604	905.824463	7845.178223	2595.691162	24.351933
353.309601	910.728333	7999.876953	2626.823975	24.207361
353.675537	908.276367	8182.958496	2665.832764	24.159906
354.041473	906.344543	8385.804688	2712.346436	24.146154
354.407379	904.784180	8561.159180	2755.590576	24.173403
354.773254	902.926575	8749.813477	2809.906006	24.302370
355.139038	913.923340	8909.193359	2856.047852	24.290918
355.504913	915.112305	9157.512695	2915.341553	24.267557
355.870636	921.130798	9372.173828	2965.644531	24.192442
356.236389	915.632507	9637.062500	3023.897705	24.173389
356.602081	914.443665	9909.084961	3101.469727	24.314766
356.967804	920.239258	10182.073242	3162.175049	24.206175
357.333405	911.694336	10446.293945	3214.781250	24.155046
357.699036	905.824463	10642.378906	3245.468750	24.029488
358.064606	900.623291	10821.077148	3284.031494	24.025192
358.430176	904.561340	10886.983398	3298.892334	23.985472
358.795654	909.019531	10908.160156	3296.885986	23.880716
359.161163	905.007141	10906.747070	3294.210938	23.887882
359.526581	902.034973	11003.637695	3318.730713	23.923885
359.892029	902.555176	11243.414063	3393.850830	24.091766
360.257416	904.709961	11652.672852	3499.435303	24.141554
360.622772	908.499329	12162.910156	3648.858154	24.349197
360.988098	905.452942	12705.839844	3760.981201	24.198599
361.353394	907.682068	13154.776367	3852.001709	24.040964
361.718658	908.202148	13449.609375	3893.091064	23.800272
362.083893	914.592224	13512.468750	3897.623779	23.678843
362.449097	919.644775	13328.496094	3829.488037	23.449739
362.814209	916.746887	12889.293945	3716.696533	23.386417
363.179382	917.787170	12215.739258	3549.589844	23.294512
363.544434	916.375488	11476.278320	3373.417969	23.267662
363.909546	916.449707	10800.495117	3213.592773	23.240921
364.274536	916.003906	10300.066406	3099.760986	23.270914
364.639587	915.335205	9923.352539	3020.851563	23.373804
365.004517	916.895569	9659.948242	2976.121094	23.552708
365.369507	913.106201	9453.461914	2952.864258	23.883760
365.734344	904.338440	9338.291992	2958.734375	24.358637
366.099274	907.384766	9259.753906	2938.375244	24.316339
366.464081	915.706726	9220.000977	2928.716064	24.240583
366.828918	922.096741	9183.295898	2898.697998	23.926325
367.193665	916.226868	9134.255859	2886.363281	23.973345
367.558411	915.038025	9081.204102	2866.896240	23.901770
367.923126	919.273254	8983.792969	2855.082031	24.004019
368.287781	928.858337	8912.759766	2831.082275	23.825745
368.652435	925.068848	8831.101563	2805.299072	23.782221
369.017059	926.109131	8779.238281	2797.423096	23.828897
369.381653	924.697449	8730.791992	2792.296143	23.924877
369.746185	922.765442	8727.226563	2805.001953	24.117445
370.110687	922.691162	8775.151367	2805.893799	23.982327
370.475220	913.477539	8850.346680	2805.373779	23.836807
370.839661	915.483704	8944.933594	2821.348633	23.735935
371.204041	906.864746	9017.601563	2842.747803	23.868153
371.568451	918.901794	9071.024414	2869.050781	23.921978
371.932770	920.833679	9093.389648	2856.716797	23.687609
372.297150	923.582825	9082.467773	2852.184326	23.638054
372.661377	914.963684	9084.473633	2853.150391	23.724640
373.025696	905.675964	9084.993164	2852.927002	23.807011
373.389862	906.567566	9100.448242	2853.075928	23.755634
373.754059	909.390930	9110.256836	2873.137451	23.945599
374.118225	909.985413	9148.820313	2909.100342	24.264536
374.482361	913.403320	9243.555664	2935.551758	24.275047
374.846436	916.747009	9395.133789	2959.328857	24.091633
375.210510	913.849182	9642.709961	3018.548096	24.111956
375.574524	908.573730	9909.977539	3097.903320	24.322090
375.938538	910.356934	10216.030273	3183.128662	24.423506
376.302460	923.731445	10507.518555	3240.787354	24.176830
376.666412	925.068848	10786.971680	3309.443115	24.177629
377.030304	915.038086	10989.817383	3351.944336	24.188185
377.394196	912.734680	11100.456055	3375.275391	24.171654
377.757996	922.691223	11115.018555	3360.712158	23.920160
378.121796	932.499207	11025.260742	3310.112061	23.557604
378.485565	923.880066	10827.690430	3250.223877	23.489380
378.849304	910.208313	10565.772461	3180.750732	23.515379
379.212982	910.356934	10277.551758	3123.091797	23.622171
379.576630	913.329041	10004.340820	3074.200439	23.769316
379.940277	913.403320	9812.341797	3033.037109	23.818951
380.303864	910.876953	9684.838867	3000.566650	23.816946
380.667450	915.038025	9655.266602	2992.467773	23.768597
381.030945	924.102966	9607.416992	2989.644287	23.787476
381.394501	916.449707	9625.992188	3000.715576	23.930830
381.757935	919.793274	9660.542969	3013.718018	23.955894
382.121399	918.901672	9724.962891	3021.742920	23.879475
382.484741	925.588928	9839.686523	3045.668701	23.783449
382.848145	920.833679	9956.639648	3068.256592	23.765705
383.211487	913.997803	10065.567383	3108.305664	23.977394
383.574768	910.208313	10193.293945	3133.122803	23.945858
383.938019	904.487000	10270.791016	3146.794678	23.940155
384.301270	908.053528	10373.328125	3168.267822	23.879015
384.664459	903.298157	10401.786133	3192.267578	24.098249
385.027649	906.641785	10461.525391	3212.775391	24.135653
385.390778	911.545837	10540.286133	3223.623779	24.012257
385.753876	918.158752	10617.413086	3234.917725	23.885950
386.116943	918.827454	10686.291992	3248.217773	23.848465
386.479980	909.019531	10726.935547	3250.372314	23.847757
386.842987	909.613953	10786.749023	3264.935791	23.846205
387.205994	908.648010	10825.757813	3270.880127	23.819765
387.568909	910.134033	10884.382813	3280.836914	23.768234
387.931793	911.248596	10891.887695	3269.691406	23.630180
388.294678	910.208313	10896.866211	3254.162109	23.470854
388.657471	908.796631	10863.875977	3258.917236	23.607252
389.020294	911.100037	10846.041992	3264.192627	23.685015
389.383057	910.951355	10889.806641	3298.149170	23.922560
389.745819	915.781067	10968.196289	3319.845703	23.915295
390.108521	914.815125	11122.968750	3356.476563	23.918737
390.471191	916.524109	11349.890625	3403.956055	23.841125
390.833801	914.146301	11618.196289	3459.014648	23.774818
391.196442	911.471497	11845.710938	3532.277100	23.968798
391.558960	907.756348	12012.075195	3579.459229	24.060036
391.921509	907.979309	12131.256836	3605.465088	24.034742
392.284027	906.493164	12250.735352	3601.824219	23.759462
392.646484	911.397156	12251.776367	3603.681641	23.740692
393.008911	907.013367	12181.336914	3587.335205	23.773682
393.371307	911.174316	12109.188477	3585.180664	23.879292
393.733673	913.923523	12020.471680	3562.889648	23.850491
394.096008	916.226868	11962.441406	3537.998291	23.734570
394.458344	914.889404	11890.367188	3517.490967	23.712877
394.820587	907.087708	11799.272461	3476.847412	23.592693
395.182831	911.620117	11698.963867	3453.813477	23.566444
395.545013	911.397217	11494.036133	3390.210205	23.423393
395.907196	915.855286	11271.573242	3346.891846	23.475307
396.269287	913.403320	11019.539063	3297.554688	23.591127
396.631409	913.329041	10821.374023	3264.638672	23.731318
396.993469	912.585999	10682.131836	3233.877197	23.760483
397.355530	911.322937	10597.574219	3216.416016	23.797577
397.717499	914.592224	10588.063477	3223.772217	23.871264
398.079468	912.363098	10587.097656	3222.434570	23.877363
398.441376	910.579773	10584.200195	3225.852539	23.933880
398.803284	898.765625	10553.884766	3220.948486	24.051311
399.165131	897.056641	10580.187500	3226.892822	24.060774
399.526978	900.400330	10584.497070	3217.159180	23.923334
399.888763	910.133972	10583.976563	3197.766357	23.647608
400.250519	922.319641	10548.088867	3193.085205	23.590485
400.612244	929.824280	10564.807617	3212.032471	23.686686
400.973938	930.864441	10581.079102	3221.617432	23.737844
401.335602	922.988342	10640.892578	3240.416016	23.846991
401.697205	921.279358	10720.470703	3251.932861	23.784142
402.058807	909.465332	10845.522461	3288.415771	23.942602
402.420349	903.075256	11019.317383	3325.566650	23.946554
402.781860	896.165100	11197.420898	3369.628174	24.011278
403.143341	899.880188	11419.288086	3417.107666	23.929365
403.504822	910.208313	11627.484375	3472.388672	23.907011
403.866241	909.242371	11892.374023	3528.561768	23.848564
404.227631	913.031799	12083.257813	3571.657227	23.801001
404.588959	916.449707	12258.834961	3595.211670	23.617273
404.950287	919.124695	12310.028320	3608.957764	23.613869
405.311554	921.502380	12304.753906	3595.211670	23.488096
405.672821	916.746887	12225.398438	3588.969971	23.629902
406.034027	916.895508	12106.960938	3572.103516	23.728262
406.395203	911.322815	11912.731445	3538.741455	23.882566
406.756348	911.025635	11787.383789	3498.543701	23.790298
407.117493	902.629395	11685.588867	3452.252930	23.644934
407.478516	906.716125	11672.957031	3456.860107	23.686485
407.839600	908.276550	11636.176758	3464.587158	23.828619
408.200592	911.917297	11650.741211	3484.054443	23.951757
408.561554	904.561340	11670.877930	3478.853516	23.910612
408.922485	900.103210	11727.867188	3480.191162	23.828447
409.283417	898.468506	11808.561523	3491.113281	23.763727
409.644257	903.075378	11951.147461	3528.561768	23.764202
410.005096	906.864746	12112.383789	3566.530518	23.735319
410.365906	907.830750	12206.971680	3586.443604	23.706341
410.726715	915.781067	12245.163086	3597.440430	23.669954
411.087433	915.186584	12242.859375	3607.322998	23.766016
411.448120	919.644775	12248.506836	3609.700439	23.745153
411.808807	920.090576	12213.213867	3588.524414	23.628839
412.169434	920.090576	12101.238281	3544.685547	23.473396
412.530029	929.527039	12053.015625	3536.215088	23.434088
412.890564	931.310242	12053.981445	3562.220947	23.653587
413.251099	933.465149	12123.604492	3586.963867	23.712830
413.611572	931.533203	12213.137695	3608.437500	23.728046
413.972076	930.270081	12314.710938	3611.186279	23.548950
414.332489	928.189636	12418.213867	3636.226563	23.568590
414.692871	920.833679	12585.618164	3672.337646	23.588125
415.053223	920.387878	12791.362305	3729.922607	23.667261
415.413574	914.072083	13048.226563	3798.800781	23.773628
415.773834	914.815125	13238.664063	3854.750732	23.855661
416.134094	905.824463	13458.526367	3899.406494	23.848108
416.494263	913.180359	13706.846680	3950.006836	23.736952
416.854462	918.678772	14075.684570	4037.906982	23.707737
417.214630	931.013123	14466.590820	4135.095215	23.671556
417.574738	932.350586	14886.028320	4233.769043	23.659845
417.934784	931.087463	15319.659180	4331.922852	23.635672
418.294861	930.641602	15830.045898	4453.184570	23.642174
418.654846	927.372253	16396.382813	4579.202148	23.607391
419.014832	925.588928	17012.353516	4720.748535	23.591814
419.374756	918.678772	17672.310547	4877.750488	23.631126
419.734680	923.954346	18440.152344	5057.712402	23.599630
420.094543	920.462097	19106.201172	5205.871582	23.564672
420.454376	921.353821	19654.556641	5303.951660	23.394812
420.814148	917.638611	20083.802734	5400.990723	23.392015
421.173920	913.700500	20530.435547	5488.222168	23.319485
421.533691	909.613953	20882.259766	5567.502441	23.321339
421.893341	907.533447	21088.451172	5618.325684	23.342804
422.253021	917.712891	21148.488281	5623.527344	23.260674
422.612640	922.096741	21104.796875	5626.944824	23.311293
422.972260	927.149414	21020.537109	5582.511719	23.168629
423.331757	918.604553	20980.115234	5575.527344	23.213223
423.691315	921.502380	21096.697266	5605.917480	23.218685
424.050781	927.966614	21268.410156	5655.180176	23.240463
424.410248	936.065674	21275.099609	5660.381348	23.227827
424.769653	934.876892	21169.587891	5621.818359	23.162878
425.128998	920.462097	20967.187500	5538.822266	23.037979
425.488373	920.759277	20669.009766	5442.971191	22.899305
425.847656	914.146301	20271.417969	5343.851563	22.883934
426.206940	911.842957	19831.322266	5257.289063	22.968107
426.566193	904.189758	19341.667969	5160.100586	23.082932
426.925385	903.595398	18911.529297	5043.520020	22.989450
427.284576	908.647949	18322.457031	4919.360352	23.031794
427.643677	909.613831	17901.904297	4820.240723	23.014124
428.002777	912.214539	17475.404297	4739.250488	23.105669
428.361847	917.712891	17131.085938	4658.706543	23.073505
428.720856	918.753113	16798.953125	4583.214355	23.075661
429.079865	919.570496	16564.232422	4518.348145	23.003229
429.438812	911.768738	16424.914063	4489.890625	23.065096
429.797760	915.409485	16343.551758	4476.441406	23.081404
430.156616	914.220703	16161.362305	4437.061035	23.104923
430.515503	915.112305	16029.995117	4426.510254	23.231394
430.874268	913.923401	15929.612305	4402.584473	23.233440
431.233093	916.226868	15962.083008	4420.640137	23.291552
431.591827	924.548828	16043.145508	4423.983887	23.146561
431.950562	923.731445	16111.058594	4448.355469	23.207664
432.309204	917.118469	16187.960938	4467.005371	23.246176
432.667877	901.514954	16287.304688	4497.172363	23.369989
433.026459	903.446777	16436.357422	4544.428223	23.440434
433.385010	907.682129	16537.111328	4588.787598	23.552399
433.743561	916.152649	16669.072266	4632.997070	23.594639
434.102051	918.233093	16731.486328	4639.759277	23.534222
434.460510	920.982239	16836.253906	4660.860840	23.498680
434.818939	925.291809	16807.646484	4656.774414	23.494518
435.177338	916.449768	16804.675781	4651.201660	23.506413
435.535675	919.421875	16733.271484	4630.396973	23.466614
435.894012	922.765442	16661.197266	4595.994629	23.339233
436.252289	929.006836	16683.189453	4605.728516	23.338066
436.610535	924.251465	16703.177734	4607.289063	23.341497
436.968719	928.115234	16922.667969	4662.124512	23.345507
437.326935	932.573425	17115.705078	4710.718262	23.346189
437.685028	938.443359	17358.898438	4768.897949	23.327335
438.043152	929.972900	17558.474609	4810.729492	23.337980
438.401215	928.561096	17832.576172	4863.038574	23.275402
438.759277	927.149414	18151.708984	4933.254883	23.258102
439.117249	926.926453	18641.289063	5063.062012	23.349051
439.475250	921.576660	19044.382813	5164.335938	23.411160
439.833130	921.873840	19500.527344	5274.007324	23.425449
440.191071	919.347595	19748.029297	5324.681641	23.396933
440.548889	911.991516	20003.408203	5386.575684	23.437675
440.906708	908.870911	20208.185547	5413.918945	23.343046
441.264496	906.195984	20280.556641	5399.578613	23.192417
441.622223	915.855408	20230.625000	5372.012207	23.071239
441.979950	913.774902	20045.166016	5333.449219	23.101688
442.337616	922.096680	19878.207031	5291.839844	23.051899
442.695251	921.725281	19626.246094	5232.174316	23.044958
443.052887	927.000732	19410.916016	5173.252930	22.972687
443.410461	925.960510	19290.769531	5153.191406	23.018105
443.768005	924.845947	19279.251953	5149.625000	23.017794
444.125458	924.623047	19319.671875	5176.819336	23.115982
444.482941	921.799622	19500.005859	5227.493652	23.176046
444.840393	927.892395	19796.994141	5305.734863	23.201117
445.197754	926.926453	20170.736328	5398.539063	23.236629
445.555084	928.635437	20525.087891	5471.949219	23.184368
445.912415	925.960510	20918.076172	5559.924316	23.178957
446.269714	928.115295	21174.640625	5605.917969	23.104225
446.626953	929.229797	21377.337891	5642.548828	23.050148
446.984161	922.171143	21477.869141	5652.282715	23.011194
447.341309	916.524109	21536.716797	5636.455566	22.889851
447.698456	917.044128	21469.398438	5624.716309	22.905758
448.055542	920.982239	21349.029297	5588.455566	22.848358
448.412598	926.332031	21083.990234	5536.740723	22.871748
448.769653	919.124695	20745.837891	5464.593750	22.925985
449.126617	921.799561	20285.236328	5368.000000	22.961834
449.483582	925.143250	19969.970703	5293.474609	22.937101
449.840515	935.768555	19601.578125	5196.731934	22.827639
450.197388	935.322754	19327.847656	5139.964844	22.860601
450.554230	931.087402	19067.712891	5094.789063	22.957422
450.911041	928.412537	18912.345703	5051.693359	22.927580
451.267822	933.019226	18851.937500	5029.030762	22.858589
451.624573	932.127625	18760.023438	5011.198242	22.880268
451.981262	929.675720	18695.457031	5004.362793	22.935591
452.337921	925.960449	18514.974609	4969.811523	22.990778
452.694580	921.428040	18327.435547	4922.555176	22.987047
453.051147	918.307312	18192.576172	4893.354004	23.011374
453.407715	920.164856	17963.351563	4832.648926	22.956293
453.764221	931.904724	17871.216797	4798.469238	22.825983
454.120728	931.979004	17521.474609	4718.148926	22.822695
454.477142	929.304199	17372.349609	4688.650391	22.862835
454.833557	921.799561	17141.562500	4648.006836	22.973253
455.189911	929.601379	17049.427734	4638.347656	23.007359
455.546265	927.743835	16968.882813	4615.462402	22.989132
455.902557	928.338196	16925.044922	4615.165527	23.047415
456.258820	923.137024	16982.851563	4637.381836	23.127714
456.615051	920.982178	17111.544922	4675.424316	23.189077
456.971252	920.016296	17192.535156	4699.201172	23.224339
457.327393	919.124695	17533.064453	4772.166504	23.191620
457.683502	921.948181	17974.273438	4879.607910	23.208914
458.039612	925.663269	18716.931641	5050.058594	23.182135
458.395630	930.864441	19410.621094	5229.871094	23.263330
458.751648	933.316467	20083.876953	5396.383301	23.305151
459.107605	932.573425	20854.394531	5580.877441	23.332727
459.463562	931.830383	21486.265625	5706.969238	23.231670
459.819458	929.601379	21925.095703	5794.423340	23.170790
460.175323	929.378418	22021.171875	5788.553223	23.038225
460.531158	929.972839	21951.328125	5753.482422	22.945761
460.886932	927.818115	21690.228516	5654.808594	22.767059
461.242676	924.846008	21290.257813	5536.072754	22.642441
461.598419	923.211365	20701.333984	5387.021973	22.569435
461.954102	916.672668	20004.224609	5232.694824	22.611710
462.309723	925.366028	19292.552734	5079.333984	22.616243
462.665344	922.393982	18712.173828	4953.242676	22.658228
463.020905	927.595215	18304.994141	4871.955566	22.698221
463.376373	921.502380	18039.287109	4833.392090	22.852779
463.731873	923.136963	17813.257813	4798.172363	22.942616
464.087341	920.462097	17671.638672	4772.760742	22.997183
464.442749	921.799622	17620.742188	4764.885254	23.013945
464.798126	920.387878	17621.929688	4774.990234	23.079321
465.153503	925.811829	17759.984375	4810.729980	23.077572
465.508820	918.381653	17863.117188	4825.515625	23.058098
465.864105	919.050354	18015.064453	4851.818848	23.004009
466.219330	920.164978	18229.279297	4898.258301	22.982649
466.574524	922.616943	18322.158203	4929.465332	23.028471
466.929657	926.183411	18352.921875	4926.642090	22.955866
467.284790	926.926453	18287.535156	4906.951660	22.925608
467.639893	929.378479	18204.539063	4885.478516	22.900513
467.994934	927.000793	18168.947266	4848.550293	22.744238
468.349945	926.777832	18035.574219	4808.277832	22.687159
468.704926	925.440430	17914.609375	4760.129395	22.571377
469.059875	924.177246	17652.023438	4725.132813	22.722326
469.414764	918.827332	17464.111328	4689.318848	22.788921
469.769653	918.158691	17340.398438	4670.372070	22.848366
470.124451	912.065857	17368.707031	4677.281738	22.879614
470.479248	916.375488	17308.744141	4667.771484	22.885014
470.834015	914.889343	17285.562500	4663.833496	22.900366
471.188721	922.171082	17386.910156	4695.188965	22.915747
471.543365	923.805725	17584.777344	4742.148438	22.917889
471.898010	932.127686	17731.451172	4800.029785	23.024153
472.252625	933.613708	17917.283203	4839.559082	22.998241
472.607178	930.270020	18143.460938	4890.604980	23.007557
472.961700	928.858398	18361.169922	4924.338379	22.919966
473.316193	932.945007	18535.779297	4950.642090	22.824148
473.670654	931.533264	18562.158203	4967.136719	22.889736
474.025055	928.338196	18635.123047	4994.852051	22.965851
474.379456	919.867676	18691.742188	5011.421387	23.022635
474.733795	927.223633	18824.373047	5031.260254	22.931232
475.088104	920.313477	19024.693359	5077.848145	22.964249
475.442383	928.115234	19173.669922	5132.906250	23.045565
475.796570	926.034851	19418.421875	5188.261719	23.048550
476.150787	939.632263	19729.896484	5247.703613	22.927147
476.504944	934.282471	20097.474609	5318.811523	22.879953
476.859070	939.260742	20451.525391	5400.321777	22.862856
477.213135	927.892395	20740.712891	5467.193848	22.910929
477.567200	923.062683	21084.138672	5560.146973	23.000183
477.921173	917.935852	21420.656250	5623.378906	22.950335
478.275146	919.867676	21792.988281	5683.712402	22.822866
478.629089	922.171082	22091.388672	5723.761230	22.681946
478.983002	928.041016	22476.500000	5828.603027	22.742054
479.336823	929.601318	22869.187500	5940.502441	22.839544
479.690643	931.458923	23332.468750	6065.703125	22.919699
480.044403	923.211243	23892.263672	6200.933594	22.977535
480.398163	927.892395	24795.412109	6395.532715	22.908289
480.751862	926.554932	26006.474609	6690.365723	22.981773
481.105499	932.201965	27627.833984	7093.829590	23.081032
481.459137	930.270081	29775.328125	7640.474609	23.262926
481.812744	929.601379	32607.970703	8354.671875	23.438929
482.166290	926.554993	36164.917969	9253.734375	23.631006
482.519806	923.582825	40231.285156	10319.831055	23.904343
482.873291	928.561218	44476.941406	11427.089844	24.107737
483.226715	937.477478	48359.855469	12436.121094	24.247293
483.580139	940.375305	51088.621094	13184.795898	24.416449
483.933502	943.867493	52860.667969	13625.335938	24.426521
484.286804	942.307190	53540.386719	13736.270508	24.324013
484.640106	940.598145	53567.062500	13571.913086	24.001829
484.993347	938.146179	52745.417969	13151.210938	23.574034
485.346558	930.344421	51352.765625	12628.043945	23.199400
485.699738	926.926453	49705.996094	12104.433594	22.914555
486.052887	924.177246	48216.000000	11745.179688	22.881338
486.405975	923.062683	47305.863281	11566.852539	22.947708
486.759064	930.195801	46904.406250	11526.952148	23.049349
487.112061	933.687988	46794.582031	11558.604492	23.167704
487.464996	933.910950	46738.488281	11555.484375	23.188890
487.817963	934.951172	46564.996094	11513.281250	23.182817
488.170868	937.254578	46030.613281	11338.817383	23.066729
488.523743	941.192566	45152.503906	11052.828125	22.871151
488.876587	938.591980	43926.511719	10695.579102	22.697046
489.229401	947.731201	42708.683594	10349.477539	22.513247
489.582153	940.375183	41528.609375	10070.321289	22.494072
489.934845	939.483582	40802.003906	9939.698242	22.578138
490.287537	923.211243	40501.894531	9931.969727	22.761642
490.640198	936.065674	40691.292969	10062.965820	22.957737
490.992798	934.802551	40928.910156	10156.885742	23.058603
491.345337	941.266846	41178.640625	10209.565430	23.034054
491.697876	942.901550	41017.332031	10140.315430	22.950830
492.050354	951.223389	40559.402344	9990.075195	22.820669
492.402832	950.480408	39486.769531	9690.486328	22.679937
492.755219	943.495911	37952.269531	9261.462891	22.475662
493.107605	935.471252	36028.796875	8738.891602	22.236197
493.459930	937.626160	34038.152344	8260.976563	22.124575
493.812225	937.031555	32053.376953	7810.404785	22.089268
494.164490	936.511475	30306.296875	7457.244141	22.202179
494.516724	932.053284	28900.193359	7160.032715	22.268122
494.868896	929.006897	27918.726563	6967.736816	22.374186
495.221039	935.991394	27349.791016	6862.673340	22.437826
495.573120	937.848938	26944.248047	6800.630371	22.543612
495.925201	949.291687	26855.677734	6824.556641	22.678829
496.277222	954.269836	26865.562500	6842.686035	22.725288
496.629211	953.155273	26942.835938	6857.026855	22.716215
496.981140	944.907715	26939.046875	6835.479004	22.661152
497.333069	938.443359	26910.662109	6801.671387	22.574999
497.684967	935.991394	26774.462891	6776.259766	22.602997
498.036804	933.316406	26610.701172	6706.341309	22.482916
498.388580	936.362854	26270.244141	6623.790527	22.449888
498.740326	937.700378	25942.201172	6534.404297	22.382788
499.092072	939.855164	25448.310547	6435.953125	22.425314
499.443756	936.139954	24984.662109	6332.300781	22.438639
499.795410	936.660095	24522.125000	6226.864746	22.429935
500.147003	935.025452	24173.498047	6147.881348	22.432007
500.498566	934.876770	23824.796875	6067.634277	22.423658
500.850098	933.019287	23523.572266	6003.510254	22.445185
501.201599	936.362976	23228.666016	5934.409668	22.420506
501.553009	934.208069	23001.375000	5885.518066	22.437452
501.904449	939.334961	22849.796875	5856.986328	22.444307
502.255859	948.994324	22750.228516	5856.763184	22.511427
502.607178	950.851868	22765.087891	5874.373047	22.570219
502.958405	945.502136	22759.814453	5868.502441	22.567755
503.309692	931.979004	22772.669922	5877.122559	22.641882
503.660919	928.561096	22799.640625	5893.468750	22.700788
504.012115	931.236023	22822.302734	5916.875000	22.774767
504.363251	930.270020	22866.218750	5925.567871	22.772198
504.714294	928.709717	22835.458984	5914.868652	22.760836
505.065369	931.236023	22839.914063	5912.267578	22.735428
505.416443	930.418701	22756.025391	5888.342285	22.716085
505.767395	930.641602	22705.646484	5854.088379	22.610544
506.118317	933.167908	22604.669922	5828.899902	22.590645
506.469238	938.517761	22615.517578	5838.039063	22.602396
506.820160	943.124512	22639.072266	5868.577637	22.702181
507.170929	947.434021	22739.083984	5902.979004	22.740568
507.521729	943.570129	22917.115234	5938.570313	22.731880
507.872498	940.969666	23121.593750	5964.947754	22.650299
508.223236	932.127625	23359.882813	5999.647949	22.594862
508.573883	931.756165	23526.619141	6042.892090	22.620787
508.924500	939.112061	23746.330078	6112.216309	22.681873
509.275116	947.211121	23908.757813	6165.937012	22.728111
509.625702	950.480286	24171.716797	6208.586426	22.643522
509.976196	954.046936	24345.212891	6241.725098	22.605450
510.326660	952.783875	24567.302734	6284.375000	22.577599
510.677124	958.876648	24768.958984	6326.728027	22.544449
511.027557	951.297791	24972.328125	6357.192871	22.504841
511.377869	946.245117	25158.234375	6392.857422	22.495518
511.728180	934.951172	25247.171875	6415.445313	22.542137
512.078430	939.409241	25292.796875	6430.603516	22.547970
512.428650	936.065674	25290.343750	6432.609375	22.569111
512.778931	938.443359	25256.533203	6431.420410	22.588028
513.129028	935.471252	25181.712891	6406.603516	22.564867
513.479126	938.294739	25113.578125	6380.077637	22.509695
513.829285	946.393738	24961.849609	6327.768066	22.407965
514.179382	946.022278	24850.248047	6326.133301	22.506945
514.529297	944.833435	24721.775391	6303.248535	22.536182
514.879272	938.220459	24750.531250	6317.960449	22.592264
515.229187	938.443359	24766.509766	6294.109375	22.476294
515.579163	940.078064	24944.611328	6323.235840	22.425589
515.928955	940.449646	25147.978516	6389.439453	22.509483
516.278748	941.192627	25571.281250	6512.039063	22.618055
516.628540	948.474304	26088.798828	6662.724609	22.729422
516.978333	950.480408	26785.240234	6826.636719	22.745155
517.327942	942.455750	27509.765625	7003.625488	22.814390
517.677612	930.418701	28218.314453	7175.859375	22.887218
518.027222	928.189636	28787.994141	7310.496094	22.908655
518.376831	937.180237	29290.279297	7421.578613	22.870157
518.726379	938.443359	29608.521484	7451.076660	22.715784
519.075867	941.489746	29650.054688	7450.482422	22.672651
519.425293	938.294739	29533.177734	7391.337402	22.567123
519.774658	943.793213	29176.451172	7321.195313	22.588741
520.124084	944.536194	28817.271484	7201.048340	22.446711
520.473389	941.638428	28304.359375	7066.188965	22.382828
520.822693	938.889160	27830.603516	6925.607910	22.262318
521.171997	941.935547	27412.208984	6835.775879	22.265884
521.521240	944.907654	27133.794922	6773.881348	22.257431
521.870361	950.331726	26945.509766	6753.076660	22.322392
522.219482	948.251282	26852.408203	6746.761719	22.384478
522.568604	948.548523	26828.037109	6775.516113	22.515776
522.917664	943.347351	27005.771484	6831.020996	22.590660
523.266724	941.489746	27316.578125	6915.800293	22.651339
523.615662	943.867493	27866.640625	7042.188965	22.651163
523.964600	947.731201	28600.380859	7241.915527	22.761597
524.313538	944.833435	29537.484375	7468.463379	22.815758
524.662354	943.198730	30565.462891	7734.690918	22.926987
525.011169	943.347351	31674.359375	8002.626465	22.971191
525.359985	949.068665	32888.613281	8286.016602	22.971359
525.708740	945.056335	34145.441406	8569.332031	22.964418
526.057434	940.003662	35577.035156	8891.063477	22.955372
526.406067	939.186340	37205.082031	9294.229492	23.038292
526.754700	940.672424	39259.328125	9809.000000	23.143627
527.103333	946.022217	41713.695313	10418.727539	23.235825
527.451782	940.895325	44489.566406	11140.132813	23.420319
527.800293	947.656982	47144.109375	11848.980469	23.597750
528.148743	940.821045	49278.011719	12458.559570	23.827902
528.497131	945.204895	50677.578125	12782.296875	23.801582
528.845642	943.570251	51240.644531	12861.354492	23.694786
529.193909	945.650696	51136.996094	12696.253906	23.411613
529.542175	947.062500	50197.503906	12312.851563	23.077538
529.890503	944.239014	48637.894531	11783.148438	22.726103
530.238770	943.793152	46508.449219	11145.407227	22.389315
530.586914	946.542297	44297.500000	10589.773438	22.244564
530.934998	951.594971	42154.160156	10069.282227	22.128931
531.283142	961.031433	40571.964844	9725.928711	22.127470
531.631226	959.396729	39467.527344	9511.789063	22.209318
531.979248	956.796143	39029.289063	9486.302734	22.403332
532.327148	946.690979	38981.289063	9551.837891	22.624523
532.675110	939.483643	39140.964844	9671.317383	22.857319
533.023071	935.545593	39356.066406	9737.372070	22.909180
533.370850	934.802551	39323.449219	9731.724609	22.915424
533.718689	932.870667	39119.710938	9645.608398	22.816072
534.066467	933.539368	38611.261719	9487.416992	22.702747
534.414246	930.938782	37825.878906	9252.249023	22.554070
534.761963	944.313293	36969.839844	9010.393555	22.389902
535.109619	953.006653	36095.593750	8808.661133	22.353661
535.457153	960.882813	35328.191406	8658.347656	22.397636
535.804749	951.817871	34653.972656	8515.983398	22.444159
536.152344	948.845703	34127.089844	8393.680664	22.438908
536.499817	941.341248	33609.796875	8288.096680	22.488836
536.847229	941.118225	33075.113281	8194.104492	22.571070
537.194641	932.127686	32481.880859	8070.984375	22.627296
537.542114	942.381409	31929.662109	7906.106934	22.472851
537.889404	944.313293	31362.732422	7745.835938	22.359880
538.236694	949.588684	30825.078125	7617.292480	22.318308
538.583984	943.718811	30477.119141	7577.316895	22.461342
538.931213	944.536316	30496.140625	7595.744141	22.507097
539.278381	946.393799	30915.431641	7729.414063	22.633429
539.625488	946.022217	31792.054688	7968.298340	22.765574
539.972595	945.279236	33116.500000	8339.440430	22.983776
540.319641	939.780823	34704.644531	8770.841797	23.192930
540.666687	950.703369	36333.437500	9192.435547	23.293091
541.013611	946.393799	37814.066406	9551.762695	23.341232
541.360596	954.046936	38880.464844	9761.000000	23.221157
541.707458	946.468079	39519.386719	9859.227539	23.106262
542.054260	951.223450	39548.441406	9806.399414	22.942522
542.401062	949.068665	39204.121094	9677.558594	22.816570
542.747864	948.399963	38398.386719	9432.358398	22.654100
543.094666	957.093323	37212.214844	9098.516602	22.455927
543.441284	952.189392	35751.722656	8726.037109	22.338942
543.787903	959.693909	34200.722656	8363.513672	22.273138
544.134460	953.675354	32734.507813	8057.758301	22.353357
544.481079	961.402893	31493.951172	7781.427246	22.336899
544.827637	957.093445	30403.406250	7547.670410	22.381672
545.174072	966.306885	29502.337891	7340.217285	22.336359
545.520508	964.077820	28754.259766	7199.710938	22.438261
545.866943	967.718567	28209.177734	7104.231934	22.526375
546.213318	959.322327	27798.804688	7020.715332	22.583868
546.559631	962.963196	27423.500000	6966.994629	22.690512
546.905823	954.492737	27018.476563	6851.677246	22.625799
547.252136	949.886047	26541.304688	6743.714844	22.639732
547.598389	945.725037	25959.365234	6571.630371	22.491350
547.944458	944.759094	25301.193359	6408.832520	22.433798
548.290588	949.960266	24588.703125	6234.889160	22.357063
548.636658	950.628967	23810.458984	6051.510254	22.313732
548.982727	954.715637	23084.890625	5875.859375	22.237255
549.328735	951.669189	22389.119141	5708.752441	22.190527
549.674622	942.975769	21820.109375	5573.372559	22.179276
550.020569	938.666260	21312.990234	5490.971191	22.343340
550.366455	931.607605	20829.726563	5416.668457	22.540125
550.712280	931.681824	20493.283203	5366.291016	22.669971
551.058044	935.545593	20315.181641	5331.294434	22.682308
551.403748	942.752930	20253.734375	5321.115234	22.672916
551.749512	949.143005	20244.816406	5322.749512	22.666254
552.095154	945.204895	20210.490234	5325.275879	22.735561
552.440735	943.570313	20261.013672	5349.944824	22.810341
552.786316	947.656921	20267.255859	5350.241699	22.788179
553.131897	939.706543	20226.462891	5343.851563	22.835073
553.477417	930.492981	20111.517578	5307.294922	22.818394
553.822815	920.536438	19934.750000	5255.580078	22.798964
554.168213	934.876892	19765.490234	5191.011230	22.602207
554.513672	950.257507	19511.076172	5114.404785	22.435150
554.859009	958.579407	19248.564453	5065.959473	22.456989
555.204285	957.762024	18983.527344	5007.483887	22.466297
555.549500	956.944824	18721.537109	4960.152344	22.534756
555.894714	946.468079	18501.898438	4918.394531	22.625059
556.239990	940.598206	18272.302734	4881.465820	22.737911
556.585022	938.889221	18129.640625	4848.549805	22.742813
556.930115	946.096619	17952.353516	4803.299316	22.681078
557.275146	946.616638	17806.201172	4750.767578	22.563728
557.620178	939.780762	17666.585938	4723.646973	22.621572
557.965149	934.282410	17574.080078	4694.520020	22.597857
558.310059	930.121399	17452.001953	4688.649902	22.748793
558.654968	932.870605	17367.443359	4669.033691	22.733559
558.999756	935.396973	17279.320313	4660.191895	22.790091
559.344604	943.421631	17283.259766	4652.315918	22.698477
559.689331	936.734375	17252.943359	4629.579590	22.632986
560.033997	946.839539	17247.593750	4627.722168	22.581057
560.378723	944.016052	17284.373047	4640.576660	22.622274
560.723389	957.167664	17334.230469	4664.278809	22.635996
561.067932	937.625977	17422.947266	4680.105469	22.701891
561.412476	938.666260	17417.078125	4683.374512	22.724934
561.757019	934.208008	17403.927734	4687.461426	22.788813
562.101501	946.542297	17364.250000	4686.421387	22.779547
562.445862	948.102722	17308.597656	4671.040527	22.755655
562.790222	942.678711	17267.208984	4670.595215	22.836287
563.134644	945.502136	17222.849609	4655.660156	22.793381
563.478943	939.112122	17240.755859	4658.632324	22.816841
563.823181	937.774597	17284.521484	4656.923340	22.751614
564.167358	929.304199	17375.541016	4691.548340	22.876019
564.511536	936.214355	17519.244141	4733.008301	22.895660
564.855774	943.495911	17713.250000	4773.652344	22.839670
565.199768	948.251282	17930.212891	4832.871582	22.874981
565.543823	943.198730	18151.115234	4877.230469	22.861755
565.887817	937.774597	18388.212891	4944.994629	22.963436
566.231812	940.523865	18557.105469	4988.312988	22.977154
566.575745	942.455750	18623.458984	5010.009277	23.005219
566.919617	946.542480	18633.412109	4993.960449	22.883745
567.263428	941.266907	18577.833984	4935.781250	22.649048
567.607239	938.591980	18507.322266	4906.134277	22.582975
567.950989	937.774658	18345.564453	4868.537109	22.580481
568.294678	942.678650	18225.119141	4864.970703	22.695242
568.638367	946.988220	18091.671875	4825.664551	22.623201
568.981995	938.294739	17991.216797	4811.695801	22.714003
569.325623	940.152344	17927.166016	4788.587402	22.655159
569.669128	935.619934	17897.000000	4798.023926	22.771755
570.012573	939.260742	17911.265625	4803.299316	22.767132
570.356140	936.882996	17999.611328	4810.655762	22.703125
570.699524	938.294739	18098.062500	4848.104004	22.784746
571.042908	937.848938	18305.439453	4907.323242	22.855642
571.386230	929.527039	18464.152344	4971.223633	23.049803
571.729492	933.539368	18661.947266	5014.393066	23.018726
572.072815	935.471252	18766.341797	5022.789551	22.922707
572.416016	942.009949	18804.458984	5012.684082	22.789003
572.759094	943.941711	18835.740234	5004.213867	22.693481
573.102234	943.050110	18783.207031	4998.046387	22.729601
573.445374	944.164612	18708.533203	4992.919922	22.791439
573.788391	931.979004	18565.798828	4960.820801	22.847242
574.131409	936.511475	18447.210938	4923.149902	22.766872
574.474365	933.687988	18360.128906	4886.666992	22.683800
574.817261	944.461914	18266.878906	4864.079102	22.627426
575.160156	944.759094	18105.343750	4820.834473	22.587084
575.502930	942.455750	17891.351563	4776.327637	22.620186
575.845703	941.861328	17692.888672	4725.801270	22.589300
576.188477	951.446350	17473.029297	4690.879395	22.633627
576.531250	957.687683	17224.634766	4637.455566	22.621134
576.873901	949.514404	16892.947266	4573.555176	22.730618
577.216431	939.929443	16599.673828	4508.466309	22.787964
577.559082	932.201965	16296.742188	4445.308594	22.865030
577.901611	936.734375	15994.032227	4358.597168	22.725611
578.244080	935.545593	15697.340820	4281.619629	22.667122
578.586487	936.808594	15415.065430	4219.725586	22.674809
578.928955	1074.863159	15314.905273	4324.641113	22.821405
579.271301	1076.572021	15060.269531	4282.288574	22.924671
579.613647	1079.915649	14830.303711	4217.199707	22.815969
579.955872	945.427734	14474.690430	4018.588623	22.714918
580.298157	942.158447	14298.073242	3963.901611	22.624756
580.640320	934.876770	14139.362305	3962.415283	22.928108
580.982483	928.412537	14005.393555	3950.527344	23.110186
581.324524	924.028748	13908.057617	3936.038086	23.197802
581.666626	925.068848	13800.168945	3891.010742	23.036264
582.008728	925.960632	13726.760742	3855.791260	22.887871
582.350647	926.034851	13636.333008	3837.067139	22.902943
582.692566	930.641602	13579.194336	3832.980469	22.946016
583.034424	933.242188	13508.976563	3826.590088	23.007387
583.376343	936.808777	13419.516602	3815.593506	23.062181
583.718201	938.740540	13360.149414	3797.017822	23.010895
584.059937	941.489746	13313.859375	3773.166748	22.887104
584.401611	943.124512	13257.984375	3755.110596	22.834089
584.743347	937.997559	13208.870117	3747.234375	22.893538
585.085022	934.653992	13146.305664	3743.445313	23.000912
585.426514	932.499207	13114.653320	3730.219482	22.965727
585.768127	925.960510	13086.938477	3715.135986	22.935455
586.109619	922.839783	13071.855469	3707.483154	22.920732
586.451172	929.081238	13072.747070	3719.965820	22.982224
586.792542	934.728271	13054.541992	3723.606689	23.010902
587.133850	933.167908	13032.696289	3725.984375	23.082027
587.475220	929.006897	13046.070313	3729.105225	23.108721
587.816589	932.573486	13089.018555	3732.894531	23.035690
588.157776	943.273132	13148.683594	3753.550781	23.024851
588.498962	947.359680	13209.760742	3764.101563	22.970558
588.840210	948.697083	13274.848633	3785.872314	23.017529
589.181335	949.291565	13341.425781	3803.779297	23.034676
589.522400	946.839539	13390.242188	3818.416748	23.077106
589.863403	945.725037	13413.053711	3816.039063	23.022686
590.204407	943.198730	13402.502930	3817.896484	23.072699
590.545410	938.071838	13409.413086	3795.010986	22.908035
590.886353	942.604309	13344.323242	3782.751221	22.901237
591.227112	935.768372	13270.614258	3752.362061	22.834446
591.567932	932.870605	13140.137695	3749.018311	23.069435
591.908752	932.201904	13061.006836	3735.792236	23.115141
592.249512	936.808777	13049.340820	3736.238281	23.111843
592.590149	937.031555	13017.838867	3709.043213	22.945583
592.930786	934.802429	13022.221680	3714.319092	22.995121
593.271423	931.607483	13013.824219	3708.671875	22.984726
593.612000	933.985168	13043.026367	3726.801514	23.063894
593.952576	937.774719	13118.739258	3736.460938	22.975901
594.292969	944.164734	13231.010742	3773.166748	23.024639
594.633484	946.096497	13389.127930	3816.039063	23.064659
594.973877	939.037781	13549.843750	3848.435303	23.070671
595.314209	932.127625	13714.499023	3896.137451	23.188263
595.654480	930.641602	13935.698242	3949.189697	23.210573
595.994812	941.489746	14184.536133	4022.377686	23.264193
596.335022	940.895325	14413.910156	4063.169922	23.174284
596.675171	948.399902	14553.004883	4105.150879	23.203547
597.015320	935.174011	14616.682617	4114.290527	23.236593
597.355408	939.780823	14574.776367	4109.015137	23.243385
597.695496	936.585754	14445.192383	4070.080078	23.196281
598.035461	939.037781	14195.980469	4011.157959	23.173670
598.375366	932.053284	13892.156250	3930.762451	23.138006
598.715271	923.285583	13636.332031	3862.998779	23.123592
599.055176	933.985168	13354.799805	3793.302734	23.020372
599.395081	934.728210	13118.292969	3720.931641	22.868540
599.734802	936.660156	12830.074219	3644.102539	22.764215
600.074524	928.709717	12608.354492	3605.167969	22.915579
600.414246	932.276184	12410.709961	3572.177734	22.998796
600.753906	936.808777	12281.497070	3558.134033	23.106190
601.093506	932.499207	12202.067383	3531.533936	23.062416
601.433044	929.750000	12208.976563	3542.976563	23.168491
601.772583	926.480652	12267.230469	3539.855713	23.044111
602.112122	929.749939	12409.074219	3579.162109	23.079861
602.451538	930.047119	12584.428711	3627.607422	23.146318
602.790894	934.505310	12841.515625	3702.058594	23.243057
603.130310	933.613708	13114.578125	3766.850830	23.259546
603.469604	929.898499	13412.606445	3842.268311	23.331234
603.808838	931.533203	13697.260742	3920.286133	23.412319
604.148010	930.047180	13986.522461	3977.127686	23.337696
604.487305	934.356750	14191.671875	4010.192139	23.201042
604.826416	930.567322	14293.987305	4013.535889	23.070206
605.165527	931.384583	14252.526367	4000.087158	23.036333
605.504456	931.607422	14163.585938	3961.227295	22.896196
605.843445	930.938782	13973.742188	3918.651367	22.906982
606.182434	932.276184	13743.997070	3861.438232	22.863144
606.521423	933.019226	13441.660156	3798.726563	22.909822
606.860229	936.808777	13168.002930	3739.210205	22.911919
607.199036	940.969666	12913.886719	3681.922607	22.892942
607.537903	938.220459	12743.807617	3644.028320	22.919724
607.876648	944.239014	12608.799805	3607.099609	22.828640
608.215271	941.861328	12558.942383	3609.923096	22.966713
608.553955	937.180359	12531.971680	3628.424561	23.210804
608.892578	933.390808	12567.264648	3652.944580	23.376165
609.231140	925.291809	12621.432617	3674.120850	23.502018
609.569641	934.356750	12627.079102	3685.860596	23.531765
609.908081	932.796387	12596.836914	3693.142578	23.665436
610.246521	944.238953	12503.809570	3676.795898	23.638914
610.584961	944.164612	12429.656250	3642.914063	23.497032
610.923340	942.529968	12277.856445	3597.291992	23.420252
611.261597	945.873596	12051.307617	3545.651611	23.409966
611.599854	941.341125	11806.406250	3488.884033	23.447102
611.938110	946.096497	11579.781250	3469.863037	23.733698
612.276245	943.495911	11368.613281	3415.696045	23.713884
612.614319	945.056335	11139.018555	3352.687500	23.618208
612.952393	932.796387	10918.264648	3268.427979	23.390305
613.290466	925.143066	10735.628906	3231.276611	23.506823
613.628479	926.331970	10548.979492	3195.165771	23.578062
613.966370	934.505371	10409.587891	3154.373291	23.428482
614.304260	938.369080	10273.317383	3116.033203	23.328079
614.642151	938.517639	10169.887695	3097.085938	23.382969
614.979980	934.802490	10072.625977	3088.318359	23.567055
615.317749	927.818054	10014.891602	3066.547607	23.535955
615.655396	927.595215	9968.452148	3050.349609	23.479568
615.993164	929.081238	9942.223633	3029.470703	23.303631
616.330811	942.009949	9924.392578	3036.157471	23.313942
616.668396	943.793152	9895.414063	3032.591064	23.334297
617.005859	941.786926	9878.622070	3035.711914	23.430275
617.343445	935.099792	9845.408203	3033.631592	23.551729
617.680908	931.607483	9839.983398	3023.823486	23.485943
618.018311	929.155518	9855.958008	3030.659424	23.541508
618.355652	925.143250	9869.183594	3031.476563	23.550133
618.692993	923.211365	9864.651367	3038.238281	23.654207
619.030273	923.954407	9835.598633	3023.377686	23.558203
619.367554	928.338196	9805.209961	3006.808350	23.414444
619.704712	933.613586	9796.590820	3006.585205	23.389111
620.041870	937.403015	9760.480469	3003.761719	23.419931
620.379028	924.474426	9717.905273	2999.749268	23.600286
620.716064	923.731445	9651.032227	2977.309814	23.530510
621.053040	917.267090	9608.010742	2965.644531	23.569643
621.389954	922.393982	9576.358398	2961.632080	23.564205
621.726929	921.576660	9564.692383	2952.938721	23.502661
622.063843	929.601257	9549.831055	2937.632080	23.294401
622.400635	928.858215	9526.575195	2930.202148	23.277622
622.737427	931.458801	9503.095703	2934.511719	23.368383
623.074219	922.319641	9480.284180	2943.279297	23.614958
623.410889	928.041016	9464.382813	2944.393799	23.620806
623.747559	922.468323	9492.990234	2958.288330	23.753748
624.084167	926.406433	9530.364258	2963.712646	23.678709
624.420715	925.068909	9615.440430	2964.678467	23.469765
624.757324	926.703552	9667.600586	2975.303711	23.436954
625.093750	927.669434	9755.426758	2993.879639	23.405832
625.430176	930.938782	9840.280273	3022.262939	23.473387
625.766602	934.356750	9970.087891	3059.191650	23.515915
626.102905	933.836609	10089.714844	3107.265381	23.738070
626.439209	938.889160	10231.856445	3128.144531	23.558197
626.775452	927.000732	10297.019531	3145.308350	23.674528
627.111694	925.440369	10328.821289	3138.175049	23.531267
627.447876	914.740723	10307.125000	3141.816406	23.711504
627.783997	918.307312	10273.391602	3135.723389	23.702791
628.120056	925.440430	10237.057617	3129.779297	23.672997
628.456055	925.143250	10153.094727	3115.067383	23.731422
628.792053	925.589050	10086.668945	3082.151367	23.540480
629.128052	916.375427	9980.118164	3048.417969	23.522758
629.463928	927.446533	9867.475586	3026.052734	23.474266
629.799744	925.737549	9751.117188	2994.473877	23.440762
630.135559	932.350525	9634.090820	2968.468018	23.398968
630.471375	923.062683	9532.073242	2932.431396	23.340296
630.807068	935.545593	9434.290039	2913.335205	23.271551
631.142700	939.112122	9338.959961	2896.096924	23.297861
631.478333	936.957336	9238.057617	2884.505859	23.461330
631.813965	927.149414	9151.569336	2878.710205	23.728857
632.149475	918.010071	9058.170898	2870.611084	23.987255
632.484924	916.895508	9028.598633	2865.855713	24.026524
632.820435	917.861511	8994.343750	2841.781982	23.821266
633.155884	919.198914	9012.325195	2832.494141	23.640989
633.491150	935.025391	9006.975586	2839.180908	23.589783
633.826477	940.003723	9004.524414	2853.373047	23.725767
634.161804	948.845764	8974.506836	2859.466064	23.806393
634.497009	933.167908	8937.949219	2835.540283	23.765450
634.832153	928.783997	8871.967773	2814.661377	23.742086
635.167297	914.294983	8798.184570	2789.323975	23.783045
635.502380	906.270264	8720.539063	2769.188232	23.839952
635.837463	907.236145	8635.758789	2743.776611	23.763151
636.172424	911.991516	8553.580078	2720.297119	23.664003
636.507324	914.146301	8457.135742	2705.064941	23.742825
636.842224	914.592102	8387.291992	2689.981445	23.758341
637.177124	916.226868	8317.743164	2673.114502	23.736862
637.511963	916.672607	8239.428711	2652.458496	23.703999
637.846741	907.682068	8161.931152	2638.563965	23.860249
638.181396	908.796631	8056.123535	2616.644531	23.894917
638.516113	923.360046	7991.480469	2603.864502	23.775831
638.850769	927.966614	7919.109375	2594.799561	23.842068
639.185303	935.248352	7887.085449	2582.985352	23.702183
639.519836	926.406311	7823.853516	2567.233398	23.788904
639.854370	927.818054	7758.393066	2547.097412	23.706339
640.188843	914.072083	7684.609863	2529.710693	23.862783
640.523254	924.771667	7638.839844	2511.877686	23.638514
640.857605	928.932617	7584.152832	2502.589844	23.645456
641.191895	944.387512	7539.125488	2497.834473	23.555857
641.526184	929.972839	7474.333496	2495.085205	23.915434
641.860413	932.499207	7446.172363	2485.277588	23.838751
642.194580	920.090576	7416.674316	2474.577881	23.927765
642.528748	923.508545	7370.755859	2464.621338	23.903423
642.862793	912.957581	7324.316406	2446.119873	23.913219
643.196838	911.843018	7270.149902	2435.420166	23.961996
643.530823	916.152527	7253.951660	2432.819580	23.930498
643.864746	917.341492	7228.837402	2432.447998	24.005505
644.198669	922.096741	7232.106934	2421.897217	23.768591
644.532532	920.313477	7216.875000	2410.157227	23.661228
644.866333	927.966736	7197.036621	2404.287354	23.549276
645.200073	929.675720	7179.574707	2414.838135	23.762981
645.533813	928.115295	7159.067871	2412.832275	23.828091
645.867554	919.719055	7153.494629	2411.123291	23.924576
646.201172	918.827454	7153.048340	2397.600342	23.720253
646.534729	915.186523	7163.450684	2394.405273	23.674074
646.868225	924.177185	7154.609375	2404.584961	23.760916
647.201782	929.081116	7124.516113	2415.729980	23.995876
647.535217	939.855042	7133.804688	2419.816650	23.893665
647.868591	940.821045	7148.664551	2413.352295	23.720495
648.201965	932.796387	7152.528809	2406.367920	23.691879
648.535278	928.263855	7114.262207	2401.909668	23.822277
648.868591	925.663269	7084.986816	2405.847900	24.031609
649.201782	922.319641	7072.281738	2397.748779	23.990868
649.534912	925.811951	7093.978027	2404.733398	23.976679
649.868103	926.257751	7080.900879	2386.529053	23.726336
650.201172	925.886230	7070.126953	2391.878906	23.859623
650.534180	922.765564	7045.532715	2384.745850	23.877769
650.867188	920.462097	7056.604004	2392.919189	23.996462
651.200134	918.455872	7048.876465	2394.553955	24.078253
651.533020	912.140137	7020.715332	2391.135986	24.211798
651.865845	911.099915	6997.979004	2380.956299	24.147949
652.198608	918.678772	6986.164551	2362.975342	23.803873
652.531433	918.455872	6962.908203	2355.099365	23.767969
652.864136	917.861572	6924.047363	2357.848389	23.975063
653.196777	1519.119141	7540.760254	2972.331787	24.133165
653.529358	1553.967163	7532.216309	2989.124268	24.006311
653.861938	1552.035278	7496.401855	2975.526611	23.946896
654.194519	950.183289	6801.373535	2354.504639	24.000608
654.526978	923.731445	6757.088379	2324.857666	24.019209
654.859375	914.517883	6714.885254	2317.204834	24.182728
655.191833	909.539612	6679.442871	2305.390381	24.191927
655.524170	902.183655	6622.453125	2290.530029	24.270647
655.856445	911.842957	6604.248535	2283.916992	24.103586
656.188660	937.105957	6616.657715	2318.467773	24.321671
656.520874	940.895325	6631.814941	2326.715576	24.351431
656.853088	941.786926	6661.609863	2338.158203	24.412844
657.185181	911.991638	6682.712402	2322.777344	24.447304
657.517212	907.756348	6756.717285	2342.170410	24.524254
657.849243	907.013367	6841.571777	2359.928955	24.482285
658.181274	925.217468	6978.437500	2380.733643	24.045319
658.513123	928.412415	7097.767090	2407.333984	23.972065
658.844971	926.926331	7225.270996	2440.101318	24.024963
659.176819	921.279480	7295.115234	2469.599365	24.291805
659.508667	917.861511	7374.842285	2477.326904	24.151617
659.840393	922.171082	7411.398926	2471.159912	23.870155
660.172058	922.245422	7411.621582	2467.147461	23.806635
660.503662	931.161804	7365.033691	2460.831787	23.775261
660.835266	933.316467	7313.394043	2451.618164	23.797544
661.166931	926.852051	7214.942871	2420.856689	23.759274
661.498413	927.372253	7123.921875	2397.971680	23.732552
661.829773	925.960449	6990.325684	2376.572510	23.920261
662.161194	927.966614	6856.580566	2352.498535	24.028078
662.492615	921.502380	6697.053223	2324.114990	24.285347
662.823975	923.434265	6574.378906	2292.907471	24.234409
663.155212	925.068848	6471.841797	2258.134033	24.033167
663.486450	923.211365	6380.597656	2234.505615	24.027880
663.817627	923.359924	6272.264160	2204.561768	23.952604
664.148743	917.415710	6194.989746	2186.283203	24.042625
664.479858	919.867676	6137.181641	2165.106934	23.867439
664.810913	919.050354	6095.423340	2161.912109	24.010283
665.141907	920.907959	6059.980957	2165.552734	24.219246
665.472778	914.146423	6000.984863	2146.902588	24.234230
665.803711	921.056580	5973.195801	2141.478760	24.156542
666.134583	920.684998	5944.738281	2129.144531	24.053476
666.465454	926.926453	5934.930176	2135.237305	24.127592
666.796143	916.375488	5905.729004	2125.503662	24.234165
667.126831	923.657227	5898.967285	2130.481934	24.256271
667.457458	930.938782	5891.611328	2132.859619	24.228992
667.788147	933.539368	5883.214844	2131.819336	24.209265
668.118774	934.579651	5873.853027	2121.639893	24.033096
668.449219	931.756104	5870.583496	2113.912354	23.935972
668.779663	925.440430	5890.050781	2121.119629	24.084049
669.110107	924.623047	5878.162109	2118.964844	24.110878
669.440552	918.604492	5870.955078	2121.119629	24.281704
669.770874	923.285645	5827.339355	2105.887695	24.114786
670.101135	914.294922	5808.614746	2107.299561	24.375290
670.431396	909.390930	5775.921875	2099.943604	24.464096
670.761597	909.613953	5750.881348	2095.856934	24.502733
671.091797	918.901672	5722.201172	2085.305908	24.283398
671.421875	930.418701	5694.485840	2082.556396	24.183908
671.751892	928.709717	5683.341309	2081.516357	24.245970
672.081909	932.796326	5651.167969	2081.516357	24.345686
672.411865	925.217468	5622.486816	2070.965332	24.391783
672.741821	918.753113	5559.329590	2052.984131	24.441595
673.071716	905.973145	5541.199219	2036.340332	24.386452
673.401550	910.951355	5492.828125	2024.526001	24.303898
673.731262	915.558105	5486.290527	2028.464233	24.348530
674.060974	916.449768	5439.330566	2024.154663	24.491135
674.390625	917.638672	5413.993164	2032.625366	24.797571
674.720276	921.502380	5385.535156	2030.098999	24.833973
675.049927	923.062744	5379.517090	2020.959595	24.636108
675.379395	918.084473	5378.922363	2004.761719	24.360384
675.708923	913.774841	5338.427734	1993.913696	24.411835
676.038330	909.019531	5295.332031	1995.845703	24.777674
676.367737	911.397156	5274.230469	1994.656738	24.829266
676.697083	918.307312	5289.908203	1990.198364	24.519417
677.026428	928.338196	5289.536621	1983.288208	24.189451
677.355652	923.434143	5291.988281	1980.910522	24.206551
677.684875	922.988342	5299.641113	1989.975220	24.379061
678.013977	915.855286	5310.786621	1992.576050	24.499147
678.343079	930.864441	5347.195801	2005.801880	24.340054
678.672180	927.818054	5364.656738	2001.046509	24.189035
679.001221	926.852051	5418.749023	2013.083618	24.182024
679.330139	929.452698	5470.240723	2026.681030	24.163830
679.659058	931.681824	5526.636719	2044.959351	24.228258
679.987976	937.105896	5573.521484	2062.717529	24.277624
680.316772	922.616760	5595.068848	2067.696045	24.507032
680.645630	918.604492	5633.632813	2070.073975	24.421263
680.974304	920.610657	5653.248047	2074.903564	24.390059
681.302979	919.347595	5658.597656	2071.262695	24.305851
681.631653	924.400146	5645.520996	2070.519775	24.276430
681.960266	930.270020	5620.480469	2067.770508	24.252653
682.288757	937.700256	5588.753906	2058.854004	24.105371
682.617249	936.288574	5547.589844	2041.913086	23.976410
682.945679	931.756104	5494.834473	2027.944336	24.022999
683.274109	930.270081	5439.182129	2020.291016	24.174810
683.602478	930.195801	5357.746582	2000.006226	24.162579
683.930725	924.325867	5266.874512	1972.514282	24.137632
684.259033	921.056458	5184.546875	1953.195679	24.208784
684.587280	919.050354	5120.274902	1951.783813	24.581722
684.915344	924.846008	5069.823242	1936.626343	24.409794
685.243469	916.969910	5028.659668	1930.310181	24.645348
685.571533	923.062683	4984.895508	1920.948242	24.567371
685.899536	921.502258	4954.803223	1918.421875	24.717213
686.227539	923.136963	4925.676270	1910.099976	24.658421
686.555420	914.740784	4922.926758	1905.196167	24.710814
686.883301	916.524109	4911.483887	1906.756470	24.787043
687.211121	917.564270	4918.394531	1903.487183	24.642958
687.538940	922.616882	4915.942871	1904.527344	24.588789
687.866638	915.780945	4936.449707	1903.709961	24.571260
688.194336	918.678772	4916.313965	1892.936157	24.370842
688.521973	915.483704	4902.047363	1878.595703	24.158951
688.849609	916.078186	4871.880859	1873.840210	24.211573
689.177063	920.462097	4848.624023	1869.902344	24.170090
689.504578	917.192871	4804.785645	1875.400757	24.647846
689.832031	920.164978	4771.498047	1858.459595	24.362854
690.159485	918.753235	4707.300293	1850.806519	24.601866
690.486816	920.462158	4653.728027	1830.001587	24.363104
690.814087	929.081238	4604.093750	1826.955444	24.431868
691.141296	937.848938	4578.087891	1821.233887	24.267223
691.468506	936.139954	4547.178223	1808.602539	24.160990
691.795715	918.678894	4486.324219	1785.345703	24.292404
692.122803	915.706726	4426.510254	1763.946655	24.160849
692.449829	917.044128	4377.470703	1755.476074	24.229151
692.776855	923.879944	4341.359375	1746.336792	24.066183
693.103821	916.003906	4310.151855	1736.231812	24.165945
693.430664	915.335205	4270.400391	1727.018188	24.192764
693.757568	909.911133	4238.747070	1717.433105	24.258389
694.084351	908.425049	4202.338867	1713.346313	24.436623
694.411133	906.567444	4193.422363	1706.139038	24.326342
694.737854	908.722229	4178.859375	1713.940796	24.623388
695.064575	908.722229	4181.459473	1714.758301	24.628805
695.391174	906.938965	4170.314453	1719.885132	24.911205
695.717773	905.304382	4160.060547	1714.386719	24.858463
696.044250	903.223938	4183.392090	1719.885132	24.896931
696.370789	903.669739	4213.038574	1728.652710	24.928709
696.697205	904.709961	4268.468750	1748.194336	25.075649
697.023621	911.991638	4322.932129	1760.974487	24.889994
697.349915	928.486816	4408.454590	1778.435669	24.424044
697.676208	933.093567	4530.385254	1792.107422	23.879459
698.002380	925.588928	4641.765137	1834.311401	24.453159
698.328674	913.031738	4769.565918	1872.279907	24.873322
698.654724	910.431152	4873.440918	1913.220703	25.303736
698.980896	918.827393	4977.687988	1930.384766	24.922201
699.306946	922.765442	5044.337402	1939.821167	24.676405
699.632935	920.833679	5048.350098	1947.845703	24.882080
699.958862	921.799561	5024.796387	1938.483521	24.779057
700.284729	918.530212	4941.725098	1915.524048	24.781147
700.610596	925.291748	4872.624023	1885.580078	24.327528
700.936340	921.502258	4753.739746	1858.310913	24.445475
701.262146	919.570496	4627.647949	1828.589844	24.514574
701.587830	917.935791	4496.652344	1799.463257	24.632504
701.913513	920.239258	4389.878906	1775.909302	24.661640
702.239075	924.623047	4283.626465	1760.974487	24.898796
702.564697	925.366028	4191.564941	1727.909790	24.571184
702.890137	918.381592	4095.565674	1688.826660	24.249306
703.215698	905.304382	4014.055908	1656.579224	24.166449
703.541016	899.285828	3918.948486	1642.164429	24.601377
703.866455	900.474670	3854.379639	1647.068481	25.274807
704.191711	912.363098	3817.079346	1638.375000	24.994246
704.517029	910.208313	3786.318115	1624.034668	24.819162
704.842163	907.830627	3747.606201	1608.059448	24.657892
705.167419	907.310547	3713.650146	1610.660156	25.062883
705.492493	918.307312	3691.433594	1610.660034	24.966505
705.817566	919.496155	3656.139893	1597.285522	24.767176
706.142578	923.285645	3641.873779	1580.270142	24.166386
706.467590	922.393982	3633.254639	1578.115601	24.188688
706.792480	925.588928	3650.269531	1581.830566	24.085085
707.117371	918.158691	3635.334961	1589.558105	24.709454
707.442200	925.588928	3631.768311	1589.409546	24.529808
707.766907	927.446594	3630.802490	1588.071899	24.437229
708.091675	931.013184	3639.867188	1587.700562	24.242258
708.416321	916.598389	3629.242188	1590.895508	24.857563
708.741028	916.301208	3628.276367	1593.347656	24.965069
709.065552	918.901672	3642.319580	1598.623047	24.958393
709.390137	928.858215	3661.637939	1600.034790	24.560215
709.714600	931.681824	3679.396484	1605.533203	24.524067
710.039063	931.013123	3706.665771	1609.471069	24.443188
710.363403	931.830383	3744.782959	1618.090332	24.396427
710.687744	928.709778	3779.407959	1627.378296	24.508680
711.012085	926.554932	3798.875000	1631.613403	24.546654
711.336304	916.672668	3821.760498	1644.839355	25.065220
711.660461	922.096863	3833.425781	1642.015747	24.728188
711.984619	924.251526	3826.738525	1646.102539	24.870085
712.308716	927.075134	3808.831787	1633.173828	24.502371
712.632751	923.954346	3776.881592	1630.721802	24.773413
712.956726	923.582825	3756.671631	1624.480347	24.739695
713.280701	930.715820	3729.848389	1617.941772	24.551390
713.604553	931.458801	3715.804932	1614.077759	24.516310
713.928467	932.573425	3689.798828	1602.932617	24.312819
714.252258	917.861511	3661.415283	1598.623047	24.813129
714.575989	916.003906	3636.226563	1589.855347	24.771923
714.899719	913.626160	3617.799805	1595.873657	25.229427
715.223267	915.558105	3616.610596	1588.740845	24.922979
715.546936	912.883301	3605.019531	1589.112305	25.118677
715.870422	910.802734	3589.564453	1579.453003	24.961170
716.193970	917.044189	3569.799805	1588.815063	25.323511
716.517395	917.267090	3564.747070	1591.861450	25.480621
716.840820	919.050476	3547.063232	1587.774780	25.446007
717.164124	920.536438	3507.385742	1563.106445	24.839870
717.487488	920.462158	3452.475830	1553.001099	24.981655
717.810730	924.028625	3419.262451	1534.648438	24.471445
718.133972	920.016296	3389.095703	1537.769165	25.019564
718.457092	922.096680	3349.492188	1515.403931	24.442133
718.780212	920.610657	3287.375732	1510.871582	24.939566
719.103210	921.576660	3236.032227	1493.633301	24.716682
719.426208	918.976074	3183.128662	1485.534302	25.022970
719.749207	916.152527	3162.100830	1478.029785	25.017374
720.072083	915.186584	3120.268311	1458.636841	24.645355
720.394958	921.725281	3101.246826	1456.036255	24.515059
720.717773	919.793274	3066.547607	1444.073364	24.421988
721.040527	919.496094	3043.662354	1445.039429	24.741158
721.363281	918.084290	3024.938232	1447.045410	25.106682
721.685913	922.988342	3008.517334	1454.995728	25.509468
722.008545	928.041016	2993.582275	1460.345703	25.770712
722.331055	923.062683	2968.319336	1446.451172	25.590359
722.653503	922.393982	2944.170898	1434.785522	25.343624
722.976013	923.359924	2938.226563	1423.640137	24.829445
723.298401	921.650879	2947.885986	1419.182007	24.554462
723.620789	921.576660	2935.700439	1412.271851	24.362713
723.943115	917.935730	2918.908203	1411.677368	24.675085
724.265381	918.381653	2900.852539	1410.191406	24.807917
724.587585	915.929688	2910.214844	1415.318237	25.040979
724.909790	910.431335	2928.567383	1414.649414	24.984346
725.231873	912.065918	2927.229736	1412.271851	24.822098
725.553894	918.010071	2924.480713	1413.832153	24.711155
725.875916	1054.875732	3048.492188	1551.440796	24.907753
726.197937	1064.609375	3052.207031	1563.403687	25.095337
726.519775	1051.234863	3057.928467	1563.626465	25.534122
726.841675	916.226868	2936.072266	1428.841431	25.378901
727.163513	905.230042	2946.474609	1423.788696	25.404043
727.485291	914.220703	2962.449463	1426.835327	25.027216
727.806946	917.489990	2972.182861	1433.225220	25.100357
728.128662	918.827454	2994.325195	1440.432617	25.131569
728.450256	919.496094	3014.907227	1450.760620	25.353714
728.771790	918.158691	3019.142578	1455.218750	25.562311
729.093323	923.731384	3013.941406	1454.550171	25.395477
729.414795	928.561035	3007.774170	1444.296265	24.804346
729.736145	929.527039	3000.121094	1435.677246	24.444687
730.057495	921.353699	2995.440186	1441.621460	25.084188
730.378845	917.192688	2991.130127	1448.754517	25.630562
730.700134	920.387756	3003.539063	1451.949585	25.517197
731.021301	924.845947	3030.213623	1443.181763	24.619728
731.342468	917.192810	3042.324951	1434.265503	24.331320
731.663574	911.694336	3042.399414	1450.166138	25.272001
731.984680	910.208313	3039.278564	1460.048462	25.825363
732.305664	910.579895	3042.399170	1459.825562	25.764175
732.626648	915.409607	3049.829834	1449.051758	25.001740
732.947571	908.796570	3051.241211	1446.228149	25.084970
733.268433	920.313477	3048.269287	1447.565796	24.777409
733.589233	921.576660	3030.956299	1451.057983	25.101282
733.909973	930.864563	3002.944580	1446.228149	24.871799
734.230713	920.313477	2982.585938	1454.995972	25.926861
734.551331	915.186707	2952.047607	1437.163208	25.626518
734.871948	911.620056	2913.484375	1424.680298	25.629122
735.192505	912.065857	2868.010986	1403.801392	25.140560
735.513062	916.003906	2847.652100	1399.046021	25.006733
735.833435	915.186584	2815.998779	1395.107910	25.248224
736.153931	919.793274	2783.082764	1386.488892	25.046865
736.474304	919.644775	2765.472900	1378.464233	24.857107
736.794617	925.811829	2745.262695	1383.888306	25.176632
737.114807	924.771667	2746.154297	1386.340210	25.341658
737.434998	916.003906	2726.315430	1381.361938	25.705965
737.755188	914.443604	2736.791992	1368.284546	24.904181
738.075256	918.976074	2734.563232	1361.374390	24.366680
738.395325	920.759277	2744.148193	1366.055542	24.421354
738.715271	919.347473	2752.766846	1367.170288	24.425552
739.035278	915.632385	2756.927979	1375.640625	24.982857
739.355164	917.489929	2757.002686	1382.030762	25.253473
739.675049	912.585938	2759.380127	1380.990356	25.363110
739.994873	919.050293	2761.534912	1374.823242	24.736866
740.314636	920.387695	2753.361572	1372.222656	24.650377
740.634277	927.966614	2734.562744	1376.309204	24.816978
740.953979	913.923401	2711.380615	1371.182495	25.439219
741.273499	913.700500	2698.897705	1358.253784	24.902193
741.593140	911.397217	2673.411865	1346.291138	24.681629
741.912598	914.740723	2643.096436	1337.226074	24.444351
742.232117	907.384766	2601.189697	1327.566772	24.806990
742.551453	910.579834	2572.583008	1326.675049	25.035765
742.870850	914.666504	2567.678955	1329.572876	25.100016
743.190063	928.263916	2559.802979	1334.848389	24.920303
743.509338	922.393982	2538.478271	1327.641113	25.075867
743.828552	922.914063	2507.345459	1326.006470	25.440825
744.147705	919.347473	2480.819336	1317.387207	25.491316
744.466797	918.084473	2473.314697	1314.638062	25.498064
744.785828	916.895569	2454.590332	1308.025024	25.436090
745.104858	916.152527	2443.816406	1316.272705	26.191639
745.423706	919.941956	2432.076416	1309.659668	25.772688
745.742615	928.561035	2423.531494	1309.956909	25.511934
746.061401	933.613586	2410.974365	1304.978638	25.137058
746.380249	929.378418	2401.760986	1302.080933	25.312885
746.698975	921.799561	2400.572266	1292.570190	25.072861
747.017639	919.347473	2398.120361	1282.985107	24.590498
747.336304	926.406311	2386.529053	1280.384399	24.243036
747.654907	929.081238	2384.894531	1280.384399	24.131060
747.973389	931.607605	2398.937744	1282.093384	23.885954
748.291931	931.830383	2401.612549	1288.186157	24.245481
748.610352	928.338196	2398.417725	1292.347290	24.761183
748.928711	929.452820	2392.844971	1297.474121	25.148510
749.247070	925.291809	2385.117432	1291.975586	25.118326
749.565308	930.716003	2385.340088	1286.254395	24.441944
749.883545	927.669495	2373.303223	1275.852051	24.085115
750.201782	928.561096	2369.736572	1273.251465	23.917307
750.519836	927.075012	2355.024658	1268.496094	23.909882
750.837952	927.520813	2333.848389	1276.669434	24.826975
751.155884	929.675598	2336.448975	1281.350464	24.998686
751.473877	925.068909	2325.080811	1283.059448	25.570534
751.791809	917.638672	2335.111572	1277.932495	25.418039
752.109619	915.038025	2324.931885	1274.514526	25.496708
752.427490	914.443604	2329.241455	1275.331909	25.508118
752.745300	917.192810	2324.263428	1275.183228	25.442251
753.062988	917.935791	2323.594727	1272.211060	25.203501
753.380615	920.982178	2316.535889	1267.009888	24.795012
753.698303	923.582764	2323.222900	1270.427856	24.781019
754.015808	920.536377	2309.997070	1268.867554	25.069523
754.333374	916.078186	2306.430664	1270.948120	25.523737
754.650757	915.409485	2297.291260	1256.979126	24.717716
754.968262	920.387756	2308.808350	1252.818115	23.943058
755.285583	926.777832	2314.455322	1252.149414	23.447205
755.602905	927.520935	2307.545166	1259.059570	24.024118
755.920105	919.644775	2308.213867	1258.019409	24.368584
756.237305	915.558105	2292.313232	1253.412598	24.539911
756.554443	914.740784	2290.158447	1254.304321	24.688030
756.871582	918.753113	2278.121338	1260.174194	25.116159
757.188599	910.134033	2279.756104	1270.056396	26.278955
757.505615	907.607727	2294.022217	1267.381470	25.949940
757.822510	901.886414	2311.854980	1275.703491	26.512442
758.139465	911.397217	2333.477051	1276.669312	25.685766
758.456238	912.808899	2340.907227	1280.830200	25.770023
758.773010	913.849182	2349.080811	1284.173950	25.802439
759.089783	912.437317	2371.594482	1289.449341	25.837656
759.406433	920.313477	2377.018311	1293.015991	25.585314
759.723145	924.251465	2382.442627	1294.501953	25.391081
760.039673	923.285583	2370.553955	1295.319336	25.705929
760.356201	912.140137	2376.349609	1298.291382	26.372677
760.672668	909.762512	2369.662354	1291.678467	26.160421
760.989136	916.449768	2372.411377	1287.889038	25.511610
761.305481	917.489990	2373.749023	1284.694092	25.215576
761.621826	922.468262	2380.213135	1287.220337	25.021667
761.938049	923.805664	2395.965576	1298.291504	25.437851
762.254333	922.245300	2403.247070	1304.087036	25.782667
762.570496	917.861511	2446.342773	1317.164307	26.124155
762.886597	909.019470	2505.339111	1320.433594	25.772667
763.202637	908.722351	2618.873779	1351.417847	25.886333
763.518677	910.802734	2760.420654	1392.878784	26.063547
763.834656	912.660339	2906.053711	1431.070313	26.006407
764.150574	917.489990	3009.928955	1453.881348	25.634743
764.466370	915.186584	3036.603516	1451.132202	25.263567
764.782288	916.449707	3015.650146	1452.915405	25.555716
765.097961	921.502258	2965.570313	1440.729858	25.401678
765.413696	919.273254	2897.063232	1423.417358	25.490274
765.729309	924.177246	2803.739014	1400.160522	25.324163
766.044861	922.988342	2700.904053	1366.204102	24.928951
766.360474	922.839783	2607.654297	1339.009399	24.701214
766.675903	910.654114	2524.212158	1304.681519	24.419785
766.991394	908.647949	2457.710938	1293.164551	24.822529
767.306763	918.307373	2405.922119	1281.573364	24.419359
767.622131	921.576660	2364.609619	1280.830200	24.895727
767.937378	920.536377	2315.198486	1272.805542	25.258389
768.252625	923.879944	2276.635498	1270.427856	25.617924
768.567810	924.474426	2248.474854	1254.378540	24.917219
768.882996	920.610657	2224.252197	1246.205200	24.975771
769.197998	906.716125	2200.029297	1229.709961	24.974138
769.513062	908.053528	2167.856201	1235.505737	25.992340
769.828064	908.499329	2156.488037	1222.799927	25.184570
770.142944	917.118469	2126.692383	1227.406738	25.652691
770.457825	923.582764	2111.163086	1224.211670	25.314405
770.772705	923.657043	2081.144775	1230.081543	26.473238
771.087402	922.839661	2075.646484	1216.038330	25.433458
771.402100	915.409485	2056.922119	1198.725708	24.819366
771.716736	914.517822	2045.851196	1196.570923	24.931034
772.031372	913.254700	2023.708984	1202.143677	26.015385
772.345947	914.369324	2022.668579	1206.378906	26.347538
772.660461	916.301208	2005.356079	1201.177734	26.158140
772.974854	916.672668	1998.445923	1197.091187	25.922117
773.289246	916.672668	1982.842407	1200.657593	26.635998
773.603638	920.462097	1984.700073	1200.509033	26.314314
773.917908	922.691162	1977.715454	1196.199463	25.924360
774.232178	924.771667	1970.433960	1184.013794	24.792145
774.546265	921.576660	1956.836426	1170.565063	24.050814
774.860474	925.143250	1942.495972	1166.849976	23.758400
775.174561	934.951172	1929.195801	1169.896240	23.630508
775.488586	946.765198	1927.115234	1183.567993	24.154922
775.802551	943.273010	1928.006958	1179.332764	23.971931
776.116516	935.842773	1914.706909	1174.354492	24.366173
776.430359	929.081238	1899.623413	1157.636475	23.549232
776.744202	924.623047	1892.118652	1160.014160	24.329941
777.057922	928.041016	1890.038452	1155.853149	23.681158
777.371704	928.189636	1887.289063	1157.487793	23.907652
777.685303	925.217468	1879.190063	1154.664307	24.051722
777.998962	916.598389	1871.834106	1157.933594	25.264465
778.312500	913.254822	1864.106812	1155.778687	25.505953
778.626038	924.845886	1858.905640	1152.806641	24.405371
778.939453	928.338074	1858.608398	1150.057495	23.833870
779.252869	931.384583	1864.552612	1159.196655	24.412760
779.566223	923.211243	1858.608398	1165.958374	25.951237
779.879578	923.137024	1861.060425	1170.342163	26.356646
780.192749	920.164856	1855.116089	1165.661011	26.257643
780.505920	921.205261	1857.196411	1163.952148	25.934742
780.819031	913.700623	1851.177856	1156.150391	25.861937
781.132141	923.954407	1867.524414	1167.369995	25.797300
781.445190	923.805725	1861.654663	1165.512573	25.772470
781.758118	930.047180	1854.744507	1167.295776	25.656893
782.071045	917.192688	1821.977051	1148.422852	25.556383
782.383911	923.062683	1816.775879	1139.358032	24.201876
782.696838	923.359863	1808.156738	1137.277466	24.177031
783.009583	929.378418	1806.893555	1136.385864	23.590185
783.322266	919.050354	1791.364380	1144.261841	25.817707
783.634888	914.815125	1775.612183	1144.856323	26.724209
783.947510	906.641846	1764.541016	1145.822266	27.879782
784.260132	909.316711	1762.386230	1139.803711	27.018549
784.572571	908.202209	1759.934204	1135.122681	26.642239
784.885010	911.397156	1758.522461	1129.847168	25.787214
785.197449	914.889343	1758.076660	1130.590210	25.581608
785.509766	927.520813	1752.726929	1131.184570	24.680349
785.822083	929.824219	1734.968384	1136.088501	25.618305
786.134277	925.886230	1724.268921	1136.237183	26.347134
786.446533	920.239258	1729.321411	1132.670532	26.255835
786.758606	919.421875	1741.061157	1140.398071	26.894550
787.070740	922.914063	1737.940552	1140.323853	26.675180
787.382690	924.623047	1744.999390	1141.141113	26.392529
787.694641	921.428040	1752.949707	1135.568481	25.752840
788.006653	920.016296	1780.070313	1140.100952	25.589632
788.318481	918.455994	1800.131958	1155.035767	26.832962
788.630310	922.096863	1821.679688	1164.175049	26.910049
788.942017	922.245422	1837.877808	1156.373169	25.570059
789.253784	926.703430	1849.692017	1154.515625	24.682016
789.565430	928.338135	1847.239868	1150.354614	24.161068
789.877014	926.257629	1832.527954	1151.766479	24.883177
790.188538	922.468262	1825.840820	1140.100952	24.091133
790.500061	910.877014	1811.277344	1129.252686	24.253176
790.811462	914.220703	1793.370483	1134.156738	25.016901
791.122925	909.613953	1761.197388	1133.339355	26.271694
791.434204	911.917297	1735.637207	1129.178589	26.375628
791.745483	910.728455	1722.782837	1120.559448	25.839525
792.056702	910.951355	1709.482788	1118.404663	25.979355
792.367920	916.449707	1709.705688	1120.856567	25.768084
792.678955	905.898743	1698.040039	1118.999023	26.901802
792.990112	903.223877	1693.507690	1118.999023	27.303501
793.301086	903.075256	1680.578979	1120.633667	27.981655
793.612122	911.545715	1671.736938	1120.262085	27.455772
793.922974	914.072021	1663.192017	1110.454102	26.215036
794.233826	909.911072	1665.867188	1101.092041	25.289955
794.544556	908.202087	1666.089966	1096.262329	24.813728
794.855286	902.109192	1654.275879	1095.816650	25.753262
795.166016	912.883118	1644.022095	1097.302612	25.223589
795.476624	915.335144	1645.879517	1101.909302	25.539059
795.787292	917.267090	1668.467651	1113.203491	26.083101
796.097778	909.242371	1688.083618	1114.689453	26.378557
796.408264	906.493164	1710.448608	1118.627563	26.386337
796.718689	909.316711	1723.674438	1120.484985	25.930653
797.029053	909.391052	1729.321411	1115.655396	25.156324
797.339355	912.660339	1719.662109	1108.819458	24.307148
797.649658	919.347595	1710.894409	1102.800903	23.176558
797.959839	921.205078	1702.498169	1105.698730	23.613886
798.270020	925.291809	1693.953491	1106.516113	23.576601
798.580078	929.378418	1688.380859	1107.704956	23.494858
798.890137	937.477478	1668.021851	1112.385986	23.942215
799.200195	933.539368	1660.666016	1109.711060	24.228474
799.510071	923.434143	1642.907593	1108.745117	25.756472
799.820007	908.573730	1642.833130	1100.571899	26.148548
800.129883	911.248596	1629.310059	1103.172485	26.728058
800.439575	908.053528	1616.232788	1100.051758	27.111530
800.749329	917.787292	1606.424805	1098.714233	26.273176
801.058960	921.651062	1610.065552	1092.844360	24.867765
801.368591	925.143127	1609.768433	1090.764038	24.191467
801.678162	916.969788	1607.019165	1094.181763	25.681057
801.987671	907.161865	1599.068848	1091.432617	26.632301
802.297119	906.938965	1593.347656	1089.426392	26.585827
802.606506	901.812073	1583.836914	1082.442017	26.484364
802.915894	905.824524	1588.443726	1080.138672	25.536074
803.225159	906.493164	1587.477539	1076.423462	24.953627
803.534424	911.471497	1586.585938	1078.949829	24.807400
803.843628	913.403320	1566.004272	1081.401855	25.742920
804.152771	923.062683	1567.713257	1085.265625	25.161373
804.461792	931.756104	1570.090820	1095.370728	25.631477
804.770874	933.465088	1566.747192	1099.531738	26.223171
805.079773	924.623047	1563.998047	1092.547241	26.263803
805.388733	918.084473	1567.564453	1078.578491	24.711157
805.697571	913.329102	1583.911133	1079.544312	24.786709
806.006470	913.477600	1597.434204	1084.745483	25.040752
806.315125	918.158691	1600.703491	1086.380005	24.646194
806.623901	917.489990	1601.297852	1092.249878	25.556870
806.932495	911.843018	1596.616821	1094.479004	26.670996
807.241150	910.877136	1595.130859	1095.370605	26.962729
807.549622	918.678894	1582.127930	1082.962158	24.762003
807.858154	926.257629	1577.521118	1082.070557	23.924713
808.166565	926.257629	1569.496460	1077.315063	23.483879
808.474915	918.604492	1567.118774	1077.612305	24.518784
808.783264	920.536438	1552.778320	1080.287231	25.267353
809.091492	922.171082	1538.883667	1080.733032	25.710835
809.399719	923.880066	1536.654663	1082.664917	25.912439
809.707825	923.211243	1537.917603	1073.005493	24.368423
810.015930	916.301208	1540.592651	1073.748657	25.220184
810.323975	920.164978	1534.276855	1065.352417	23.641855
810.632080	920.387878	1519.119141	1059.482422	23.231548
810.939880	929.972839	1508.122437	1053.463989	21.359722
811.247864	925.514648	1500.394897	1053.241089	22.217920
811.555664	908.276428	1494.376343	1063.123413	26.419895
811.863464	894.233215	1495.342285	1064.015015	28.244757
812.171143	894.753357	1474.834595	1062.231689	28.871531
812.478882	912.065918	1470.896606	1053.315308	25.275883
812.786438	922.616882	1462.203247	1054.504272	24.442314
813.094055	923.731384	1475.429199	1058.145020	24.363634
813.401489	919.347473	1472.011230	1059.259644	25.315966
813.708984	916.301208	1464.952515	1058.442261	25.907356
814.016357	917.044189	1462.277710	1060.151245	26.246929
814.323730	928.338196	1473.720215	1058.813721	23.923695
814.630981	925.514648	1475.503418	1056.436157	23.804398
814.938232	926.257751	1476.543579	1053.463989	23.116394
815.245361	917.341370	1464.580933	1051.532104	24.521387
815.552490	914.294983	1461.014282	1055.916016	25.903793
815.859619	909.613831	1459.974121	1053.463989	26.137453
816.166565	906.121643	1458.636719	1059.036743	27.676186
816.473572	910.654114	1468.518921	1059.185303	26.624943
816.780457	910.431213	1477.880981	1059.185181	26.214474
817.087341	915.038025	1489.620728	1057.699341	24.828682
817.394043	920.090637	1487.763306	1050.343262	22.945023
817.700806	925.960449	1488.803589	1048.857178	21.834988
818.007507	925.291809	1490.586914	1058.442261	23.554150
818.314209	921.502258	1507.082153	1063.420532	24.235510
818.620667	921.650879	1513.323608	1074.120239	25.769205
818.927246	922.765442	1511.391602	1065.129517	24.185822
819.233704	917.044250	1516.667358	1078.949829	27.001225
819.540161	916.004089	1537.620483	1085.859985	27.324875
819.846497	919.421875	1591.490112	1105.252930	27.650623
820.152832	920.833557	1639.266602	1112.534668	26.683226
820.458984	917.489929	1700.417847	1118.924805	25.728407
820.765259	906.121582	1753.172729	1127.395142	26.122810
821.071350	910.208313	1825.097778	1146.713989	25.850739
821.377502	903.595398	1920.576782	1183.122314	27.485943
821.683472	909.390930	2124.166260	1240.855469	27.286076
821.989441	907.756348	2512.769531	1344.805054	27.230225
822.295349	909.168152	3130.522217	1498.314453	26.521946
822.601196	900.994812	3886.923828	1707.476563	27.009409
822.907043	901.143372	4601.418457	1894.273560	26.839361
823.212769	901.440613	5040.398926	2009.442749	26.770073
823.518494	908.424988	5130.379883	2022.296997	26.382851
823.824097	902.109314	4864.599121	1948.514526	26.407772
824.129700	911.545715	4431.562500	1830.670410	26.111372
824.435242	907.310486	3934.254883	1684.665649	25.681185
824.740723	916.226746	3499.881104	1563.849243	25.066143
825.046082	912.140137	3149.692383	1467.255859	24.809061
825.351501	910.802673	2850.624023	1396.816772	25.054581
825.656799	901.589172	2608.471436	1334.996948	25.391779
825.962036	898.765625	2408.151123	1287.889038	25.780254
826.267212	913.329041	2297.737061	1253.709839	24.586740
826.572449	926.554932	2255.979248	1243.530273	23.843052
826.877502	928.932617	2290.307129	1261.362915	24.418724
827.182495	929.304138	2415.209961	1309.065308	25.557554
827.487488	933.316406	2586.403564	1366.204102	26.186623
827.792419	927.669434	2742.290283	1400.086060	26.033903
828.097290	915.632507	2799.206299	1410.488403	26.272181
828.402100	910.951355	2745.411377	1386.042969	25.898172
828.706848	914.443604	2603.790283	1352.160889	25.910448
829.011597	909.911133	2413.798096	1308.991089	26.536566
829.316223	900.177429	2225.515137	1263.369141	27.403711
829.620789	896.165100	2061.751953	1224.211548	28.144314
829.925354	907.904846	1930.607544	1177.549438	26.365883
830.229797	917.712891	1822.571411	1147.308350	25.373631
830.534302	928.412415	1737.940796	1130.367310	24.947229
830.838562	924.771667	1661.706055	1117.661621	26.174644
831.142944	917.564270	1599.217407	1102.132202	27.076517
831.447144	913.700500	1542.747437	1079.395508	26.340643
831.751404	915.558105	1516.666992	1066.169800	25.055643
832.055542	917.341492	1509.236816	1062.231567	24.479004
832.359619	911.248596	1508.865356	1054.504150	23.971140
832.663635	901.069153	1516.072632	1061.562988	26.096411
832.967651	900.400391	1542.450073	1076.572144	27.438959
833.271545	903.446777	1602.709595	1096.782471	27.648502
833.575439	909.168152	1688.380859	1122.565552	27.386284
833.879211	910.431335	1818.261841	1154.515625	26.886549
834.183044	909.688293	1944.873657	1185.871460	26.679586
834.486694	909.762512	2050.086182	1205.933105	25.972502
834.790344	921.279480	2089.541016	1215.518188	25.186031
835.093933	923.880066	2068.736572	1218.416016	25.726889
835.397522	925.068848	2003.201172	1204.744385	25.940742
835.700928	913.031799	1908.688110	1177.475220	26.559710
836.004395	916.375488	1826.509399	1151.097778	25.789864
836.307739	921.353699	1738.758179	1125.760498	25.006811
836.611023	927.595154	1673.817383	1097.599731	22.782030
836.914307	923.137024	1608.653931	1078.132446	22.610006
837.217529	923.062744	1558.499512	1067.061401	22.661367
837.520691	914.146423	1497.051147	1060.077026	25.035070
837.823730	911.025635	1447.714233	1047.817017	25.488035
838.126831	914.369324	1407.739380	1039.123535	25.286133
838.429749	917.638672	1384.705444	1031.396118	24.355713
838.732727	922.022461	1364.569458	1024.560181	23.169905
839.035522	912.363098	1349.634644	1010.739929	22.497881
839.338379	908.945129	1336.483032	1015.866882	25.008718
839.641113	906.195984	1337.969116	1020.622253	26.501480
839.943848	905.155762	1352.532349	1037.934692	29.679455
840.246460	907.310547	1380.990234	1044.176147	28.894125
840.549072	907.830750	1416.358398	1045.810791	27.133244
840.851563	906.716125	1436.420288	1043.656006	25.852144
841.154053	911.545715	1439.615234	1037.934692	23.934155
841.456482	914.294922	1419.553345	1044.621948	25.794132
841.758850	917.118469	1394.587769	1044.696167	26.719561
842.061157	911.991516	1367.392944	1047.148315	29.678606
842.363403	910.356934	1338.489136	1032.510620	28.531769
842.665588	914.443542	1309.511230	1019.581970	26.612762
842.967712	914.294983	1289.672241	1006.058899	24.445786
843.269775	913.180481	1275.034668	1005.315857	25.462017
843.571777	910.877136	1274.886108	1002.715271	25.229635
843.873840	921.428040	1259.059570	1004.647156	24.647909
844.175659	924.920349	1243.455933	1002.640869	24.399321
844.477600	932.127686	1225.623413	1006.133057	25.215145
844.779297	923.731445	1216.038208	993.575928	23.894241
845.081116	921.576599	1213.140503	992.312805	24.260962
845.382751	911.620056	1209.573853	987.483154	25.461363
845.684387	902.703796	1206.453247	992.981506	29.721111
845.985962	902.555176	1191.369751	977.972412	26.112684
846.287537	904.932861	1179.481323	971.656677	24.303110
846.588989	919.050354	1174.503052	968.981750	19.546240
846.890381	920.313538	1169.673462	978.715393	23.420706
847.191711	921.725281	1165.438110	985.328369	26.097555
847.493042	915.409485	1163.877808	988.300476	29.336130
847.794250	919.273254	1173.611450	991.346924	28.337729
848.095459	914.592224	1166.626831	989.489441	29.717037
848.396606	914.295105	1167.964355	988.374817	29.203268
848.697693	913.106140	1156.001831	987.334534	30.559782
848.998657	915.483887	1169.376343	990.009460	29.353205
849.299622	919.719055	1160.608521	989.489319	28.963600
849.600464	913.477600	1160.831421	989.117859	30.579782
849.901367	908.573730	1145.450806	981.910461	30.959826
850.202087	903.892639	1136.608643	976.412109	31.162218
850.502808	908.945251	1136.757202	967.421448	25.668625
850.803467	917.489990	1140.398071	962.294434	20.099964
851.104065	920.387756	1146.936890	963.111816	18.858629
851.404663	916.152527	1140.918335	972.622559	25.123941
851.705139	916.003906	1135.865723	969.130371	24.163570
852.005615	918.158691	1137.277466	960.139832	19.159079
852.306030	916.449768	1149.017212	945.502136	12.492019
852.606384	913.923523	1142.924438	950.480469	15.963668
852.906616	907.236267	1138.466309	958.356628	22.108009
853.206909	911.991699	1130.218628	966.678406	25.059559
853.506958	910.282715	1135.568481	961.625916	22.790255
853.807129	907.979309	1131.184692	963.334778	24.800240
854.107178	908.796631	1129.847168	962.666016	24.369715
854.407166	914.815186	1125.091797	973.365662	27.844501
854.707092	920.313477	1118.255859	972.548279	26.388893
855.007019	918.010071	1114.169312	976.040527	29.583342
855.306763	917.787170	1109.933960	976.263367	30.433084
855.606567	913.403320	1113.054810	970.170593	28.433184
855.906250	915.335205	1107.927856	967.421387	27.044741
856.205933	911.322815	1111.494507	964.672180	26.651804
856.505493	905.230164	1111.345825	967.792969	30.353252
856.805054	903.000977	1110.379883	961.774414	28.341087
857.104492	895.124939	1113.277710	962.443115	30.858273
857.403931	905.973145	1114.763672	965.192322	28.362961
857.703308	903.521057	1119.296265	969.130371	30.406326
858.002563	913.626221	1116.621216	968.833191	27.196222
858.301819	912.883301	1117.438599	971.730957	28.768581
858.601013	911.025696	1118.701660	971.879578	29.302322
858.900208	901.217773	1123.457153	963.186218	27.883648
859.199219	901.589172	1123.159790	959.991150	26.358177
859.498291	908.945129	1119.741943	955.830261	22.241859
859.797302	913.254822	1118.627441	965.786804	25.578863
860.096191	922.394043	1119.444824	967.718567	23.001444
860.395020	913.180481	1124.125854	967.718689	25.854185
860.693787	912.734680	1111.642944	954.864258	21.180407
860.992554	902.480896	1098.862915	948.474304	23.420376
861.291260	906.939026	1098.268555	950.108887	22.563093
861.589844	912.437439	1104.064087	959.099548	24.350533
861.888428	913.849121	1113.649292	961.774414	23.986612
862.186890	924.548767	1105.327271	964.300720	21.989315
862.485413	922.022461	1104.286987	967.124207	24.745213
862.783813	917.861511	1100.423340	964.523621	25.559620
863.082153	913.106140	1106.441895	969.650574	29.246754
863.380371	912.288757	1112.088745	971.433777	29.602114
863.678589	920.685059	1112.311646	968.610291	25.009699
863.976746	922.542664	1112.014526	960.436951	19.999954
864.274902	923.731445	1104.881470	956.647461	18.170584
864.572937	925.514648	1111.865967	959.322449	18.141970
864.870911	924.474426	1113.054810	958.802246	18.203283
865.168884	923.137024	1108.522339	958.579407	19.118225
865.466736	916.969910	1104.584351	959.916809	22.891041
865.764587	911.025696	1099.903198	961.477234	26.711248
866.062317	917.118469	1100.794800	958.876648	22.734653
866.360107	919.867676	1104.435669	965.489563	24.718201
866.657715	920.164856	1104.658569	965.043762	24.325439
866.955322	919.941895	1111.717285	963.408997	22.665630
867.252808	918.976074	1104.435669	958.505066	21.314072
867.550293	920.685059	1103.915649	962.666016	22.911543
867.847717	909.019531	1087.717529	965.712463	31.725555
868.145081	907.161926	1088.906372	965.192322	31.929667
868.442383	902.629395	1082.367798	961.179993	32.575451
868.739624	899.062988	1092.621460	954.641357	28.713995
869.036804	900.400391	1090.020874	955.310059	28.957666
869.333984	903.372498	1088.386108	949.886047	25.140610
869.631042	912.957520	1089.500610	958.802246	25.968010
869.928101	906.121765	1096.411011	956.276062	26.356874
870.224976	904.561340	1102.726685	967.570007	31.796007
870.521851	918.604553	1115.506836	974.182922	28.226372
870.818726	925.811951	1115.358276	966.083984	21.246538
871.115479	934.951172	1118.701782	968.461731	18.236979
871.412231	921.799622	1104.064087	964.672302	23.522238
871.708862	921.428040	1087.494629	974.108704	31.722614
872.005493	918.232910	1088.312012	967.347107	28.877268
872.302063	919.050293	1091.061157	964.672180	26.522678
872.598572	917.415710	1103.989868	963.260437	24.571852
872.895020	918.827454	1099.085815	962.666016	24.319849
873.191406	920.833679	1106.887573	961.179993	21.685284
873.487671	923.137024	1112.237427	955.755859	17.249479
873.783997	919.793274	1116.769897	956.573242	18.672251
874.080200	918.158691	1116.621216	953.601257	17.858568
874.376343	910.431213	1115.952515	961.774475	24.981966
874.672424	914.295105	1117.141479	964.597961	24.798500
874.968445	911.545837	1111.122925	965.786804	27.177954
875.264465	916.226868	1111.345825	966.901367	25.971079
875.560364	906.790344	1105.252930	968.758972	31.224339
875.856201	905.452942	1096.336548	968.387390	32.970066
876.152039	908.350769	1090.318237	969.873474	33.809727
876.447754	909.539551	1097.674072	960.659973	27.172272
876.743469	919.124695	1106.367310	958.950989	21.269888
877.039063	919.124695	1111.345825	953.080994	17.665226
877.334595	923.137024	1098.937256	951.297791	16.018618
877.630127	910.208313	1102.057983	952.783752	22.192083
877.925537	909.019470	1095.073364	956.201721	25.359453
878.221008	905.601501	1099.308716	960.957031	28.576906
878.516296	907.384766	1101.017700	959.916809	27.129705
878.811646	908.945129	1111.642944	958.653625	24.523449
879.106812	909.688171	1123.382690	959.619568	23.365782
879.401978	905.007141	1134.379517	963.854797	25.655947
879.697083	898.988586	1149.611694	962.294495	25.259405
879.992126	896.759583	1173.091431	966.455505	25.221821
880.287109	902.629578	1197.462646	973.811462	24.143114
880.582031	900.474670	1248.508667	994.319031	26.964136
880.876892	907.087646	1321.102295	1018.615967	26.938255
881.171753	907.830627	1476.023438	1057.401978	26.324049
881.466492	916.375488	1721.891113	1124.571655	25.846323
881.761230	917.638672	2039.906738	1201.846558	25.324421
882.055786	919.198975	2360.225830	1284.099487	25.322256
882.350403	919.124695	2566.638916	1342.947388	25.724979
882.644958	915.632385	2625.486572	1362.637573	26.142883
882.939453	912.214539	2555.642090	1337.671997	25.888422
883.233826	903.818298	2413.872559	1289.449463	25.537571
883.528137	898.468506	2246.691162	1247.839966	25.913485
883.822449	902.778076	2075.794922	1219.902100	27.034908
884.116577	907.310547	1916.712891	1177.995361	26.816345
884.410828	913.254700	1799.463257	1136.162964	25.153025
884.704956	909.985413	1680.281738	1088.906372	23.227549
884.999023	908.870911	1577.744019	1061.414307	22.806028
885.292969	910.728516	1468.816284	1042.987305	23.698565
885.586914	912.660339	1393.027344	1017.650146	21.856165
885.880798	910.505554	1334.105347	1011.705872	23.890549
886.174622	906.493164	1303.343994	997.142517	22.842173
886.468384	908.796570	1270.502319	999.743103	25.143789
886.762085	908.053528	1239.592163	980.647278	21.896015
887.055664	907.161926	1220.347778	975.074524	21.684441
887.349304	904.784241	1199.097168	972.994141	23.175978
887.642822	902.555176	1185.574219	980.350098	27.487522
887.936340	907.384827	1170.044922	983.247986	28.882635
888.229736	909.168152	1161.425903	978.566833	27.511021
888.523071	914.295105	1153.401245	971.730957	24.021069
888.816284	914.369324	1144.261841	975.223328	26.470633
889.109619	921.873840	1133.413696	981.761902	28.310534
889.402710	929.527039	1133.710938	984.065247	26.710337
889.695862	928.263855	1120.782227	970.690735	22.037834
889.988892	917.267029	1116.918457	958.282227	20.543404
890.281921	905.007141	1110.082520	949.142944	21.521746
>>>>>End Processed Spectral Data<<<<<
