Jaz Data File
++++++++++++++++++++++++++++++++++++
Date: Fri Jun 04 16:47:23 2021
User: jaz
Dark Spectrum Present: Yes
Reference Spectrum Present: Yes
Processed Spectrum Present: Yes
Spectrometers: JAZA3586
Integration Time (usec): 61000 (JAZA3586)
Spectra Averaged: 10 (JAZA3586)
Boxcar Smoothing: 1 (JAZA3586)
Correct for Electrical Dark: No (JAZA3586)
Strobe/Lamp Enabled: Yes (JAZA3586)
Correct for Detector Non-linearity: No (JAZA3586)
Correct for Stray Light: No (JAZA3586)
Number of Pixels in Processed Spectrum: 2048
>>>>>Begin Processed Spectral Data<<<<<
W	D	R	S	P
191.335022	0.000000	0.000000	0.000000	0.000000
191.713211	226.474716	230.784256	233.533463	163.793503
192.091385	460.008179	466.546783	468.552979	130.682312
192.469528	701.789246	703.349609	707.807800	385.714844
192.847641	722.519592	716.947021	713.751953	157.335632
193.225739	732.847656	724.674377	720.587708	150.000366
193.603790	736.042725	731.287354	723.485596	264.062012
193.981842	737.305969	738.197510	729.652649	-858.437744
194.359863	742.284180	741.838379	741.541199	166.662109
194.737854	745.107666	748.302734	754.618469	297.671356
195.115829	750.680420	744.959167	755.658691	-87.013664
195.493774	756.178772	749.120056	743.993164	172.632080
195.871704	764.277832	749.342957	739.683594	164.676559
196.249603	762.420227	752.612305	747.559631	151.516251
196.627457	756.698914	759.596680	751.571960	-176.927780
197.005310	758.705078	755.732910	752.835144	197.496719
197.383133	754.395508	754.172607	748.748535	2533.406250
197.760910	759.373840	746.519470	755.732971	28.323978
198.138687	750.977600	752.166443	754.544128	300.000000
198.516449	752.463623	750.383118	755.584412	-150.001465
198.894180	754.618469	743.101501	750.308838	37.419846
199.271866	752.686584	737.083008	750.977600	10.952517
199.649536	750.308899	740.129395	748.079834	21.897579
200.027191	745.479187	748.079834	749.417236	151.425751
200.404816	748.005554	754.395569	746.593750	-22.093912
200.782410	751.423401	766.506836	752.092102	4.433348
201.159988	743.398743	778.469543	755.658691	34.957710
201.537537	738.420471	784.562439	757.516296	41.384937
201.915070	740.203674	782.630615	753.503906	31.348553
202.292557	747.336731	782.036133	755.287170	22.912325
202.670029	753.652527	780.772949	762.345886	32.054661
203.047485	748.377014	781.516052	765.466553	51.569206
203.424911	744.810486	776.240540	762.717468	56.974075
203.802292	741.987000	777.652344	761.305664	54.166489
204.179688	745.553467	774.977356	760.414063	50.505207
204.557037	746.668030	769.999084	759.299500	54.140156
204.934357	743.101563	769.924805	759.002380	59.279999
205.311661	743.695984	763.460449	756.104492	62.781906
205.688934	743.695984	770.519226	750.754700	26.315670
206.066177	740.500977	768.958923	748.971436	29.764828
206.443390	737.157410	773.342712	754.841309	48.870392
206.820587	734.036621	770.445007	759.299500	69.387527
207.197769	740.426575	765.095154	758.927917	74.999626
207.574921	737.974609	766.729797	749.194336	39.018093
207.952042	739.089172	774.828796	748.154114	25.363840
208.329147	740.649475	789.169189	742.655762	4.134993
208.706223	755.435730	809.528137	769.924805	26.785782
209.083267	757.367615	802.617981	776.760681	42.857258
209.460297	753.503906	793.775940	779.361267	64.206741
209.837280	737.677429	772.451111	759.448059	62.606628
210.214264	733.516418	769.776184	754.469788	57.786831
210.591217	726.383484	768.958923	749.863098	55.148262
210.968124	719.919128	766.506836	750.680420	66.028770
211.345016	723.411316	765.540955	754.692688	74.250275
211.721893	735.596863	766.209656	754.172607	60.679680
212.098724	743.175781	767.472839	747.856873	19.266083
212.475555	741.318176	773.342773	741.763977	1.392057
212.852356	736.785828	772.005310	743.993103	20.463888
213.229126	739.757874	772.748352	749.045715	28.153099
213.605865	736.191406	770.519226	750.903320	42.857117
213.982590	725.491760	768.215820	751.943604	61.913223
214.359283	721.851013	766.952637	747.931152	57.825279
214.735931	719.844727	762.271667	749.194336	69.176819
215.112579	731.138733	771.708008	748.451355	42.674221
215.489197	728.463867	770.742126	748.822815	48.154652
215.865799	736.785828	777.949524	742.507080	13.898782
216.242355	737.454529	772.896973	743.250183	16.352299
216.618896	741.392578	768.736023	747.113831	20.923672
216.995407	739.386414	760.636963	753.503906	66.433540
217.371902	730.470032	752.240723	758.184875	127.303467
217.748367	727.497986	768.215820	753.132324	62.956047
218.124802	724.154358	776.612061	746.147949	41.926334
218.501236	729.281250	787.460266	741.243958	20.561893
218.877609	730.321472	778.989746	746.222229	32.671707
219.253983	730.990173	778.841125	758.184998	56.832359
219.630295	733.442139	770.147705	760.934143	74.898735
220.006592	729.206848	765.318054	759.819641	84.773666
220.382889	725.714661	756.104492	751.943542	86.308083
220.759140	720.587708	768.290100	752.983826	67.912987
221.135391	722.891174	772.896912	747.708252	49.628460
221.511581	724.377258	777.726563	753.429626	54.456882
221.887772	718.135803	772.302429	752.315125	63.100334
222.263931	719.621887	773.788574	756.178772	67.489609
222.640060	721.256531	773.491394	752.092102	59.032551
223.016159	730.172852	768.513000	753.801086	61.627914
223.392212	730.841553	762.345886	756.996094	83.018867
223.768265	727.795166	758.779358	756.624573	93.045532
224.144302	731.064453	758.184998	754.395508	86.027237
224.520294	731.658875	760.116882	753.281006	75.979073
224.896286	739.534973	764.797913	756.327393	66.470566
225.272217	735.448303	773.565613	760.042480	64.522331
225.648148	738.717712	775.497559	760.116882	58.181782
226.024048	736.265625	771.039368	754.618469	52.777882
226.399902	734.705261	769.479004	753.206726	53.205273
226.775772	727.795166	768.438721	754.618469	65.996452
227.151581	734.482422	773.714172	760.636902	66.666618
227.527374	729.801270	774.977356	754.321228	54.276413
227.903137	734.110840	771.708008	747.188232	34.782921
228.278870	730.247253	771.559387	747.931213	42.805729
228.654572	737.008728	766.358337	748.525635	39.240410
229.030273	738.717712	770.816406	751.720703	40.509407
229.405930	734.333740	771.410828	748.748535	38.877907
229.781555	735.448303	779.435547	754.469788	43.243183
230.157181	732.996338	776.612061	757.441895	56.047581
230.532761	737.083008	778.395325	762.494568	61.510857
230.908325	740.798157	769.553284	758.556458	61.756989
231.283859	751.497742	776.166260	756.104492	18.674614
231.659332	743.770264	769.479004	748.599915	18.786028
232.034821	735.448303	769.330383	748.674255	39.035244
232.410263	722.148132	770.816406	745.627869	48.244442
232.785690	730.544373	776.760681	747.039551	35.691250
233.161087	739.906494	780.847229	753.355286	32.849415
233.536469	742.878601	774.680176	755.584290	39.953018
233.911804	737.677429	779.212646	760.785583	55.635086
234.287140	731.436035	776.091980	749.268616	39.933273
234.662430	732.773438	775.348877	748.674133	37.347111
235.037704	738.940613	759.670959	742.358459	16.487165
235.412933	733.813721	765.020813	751.794922	57.618958
235.788162	734.036621	768.364441	750.606140	48.268486
236.163345	729.949890	774.903076	754.246887	54.049557
236.538513	735.225403	772.228210	757.962097	61.445862
236.913635	728.538147	773.268372	758.556458	67.109680
237.288742	729.875671	777.429382	757.293274	57.656075
237.663834	730.767273	776.760559	744.067444	28.917635
238.038879	740.575195	782.704834	750.531738	23.633108
238.413910	740.352356	788.574768	750.383240	20.801291
238.788910	743.398743	794.890564	757.441895	27.272587
239.163879	729.206848	789.837952	752.983704	39.215607
239.538834	722.668274	777.355164	753.949707	57.200974
239.913757	717.095459	772.079590	756.030212	70.810890
240.288651	730.172852	765.615234	763.014648	92.662498
240.663528	734.556641	771.262268	763.757629	79.554527
241.038361	735.968445	768.513000	764.872253	88.813042
241.413177	731.213074	769.479004	755.138611	62.524384
241.787979	729.058350	769.776184	749.120056	49.270073
242.162735	734.853821	775.423157	752.537903	43.589775
242.537476	729.429749	779.881348	760.116882	60.824898
242.912170	743.844482	781.070129	765.540955	58.283669
243.286865	733.367859	780.772949	759.522461	55.172562
243.661514	738.197510	773.862793	751.720642	37.916794
244.036148	721.107849	772.822571	743.993164	44.252998
244.410751	718.581543	769.776184	741.838379	45.428261
244.785339	723.039795	773.788513	748.302734	49.780449
245.159882	728.538147	778.172363	755.658691	54.640823
245.534378	738.494690	778.543945	759.819641	53.246811
245.908890	735.151123	776.314758	753.429626	44.404491
246.283356	732.179016	774.680176	749.417236	40.559410
246.657791	728.909668	781.144531	746.965271	34.566193
247.032196	722.816895	791.844055	755.510071	47.362770
247.406586	722.742493	792.810059	766.358215	62.248093
247.780960	719.993347	792.661438	769.553223	68.200325
248.155289	732.104675	790.209473	769.999084	65.217354
248.529602	735.894104	787.014404	763.014648	53.052395
248.903870	743.621643	786.865906	755.361511	27.147804
249.278122	741.912598	788.872070	748.079834	13.133104
249.652344	741.615479	785.454102	751.051941	21.525454
250.026550	736.414307	783.076416	758.928040	48.248425
250.400711	739.832214	782.779114	765.318054	59.342678
250.774857	736.785828	791.175354	762.048767	46.448170
251.148987	735.299805	790.655273	764.277771	52.348877
251.523071	726.234863	790.432312	762.568848	56.597240
251.897125	729.727051	789.169189	758.556458	48.499950
252.271164	725.789063	794.890442	753.726807	40.430080
252.645187	724.302917	791.546875	748.376953	35.801041
253.019165	716.724060	792.884338	757.516296	53.561039
253.393112	730.544373	790.580994	759.448181	48.143631
253.767044	730.024231	787.385925	762.420227	56.476707
254.140930	736.191406	793.181458	760.488342	42.633644
254.514801	732.253357	792.141296	760.859863	47.766724
254.888657	737.751709	795.187744	761.305664	41.009022
255.262466	738.643372	783.373535	757.144714	41.362118
255.636276	739.237793	786.791504	755.510071	34.218735
256.010010	742.135559	784.636719	757.962097	37.237896
256.383759	742.209900	788.723450	752.017883	21.086292
256.757446	738.569031	786.568665	748.451355	20.588333
257.131134	738.643372	790.283752	751.423401	24.748131
257.504791	736.934326	786.419983	766.804016	60.360298
257.878418	737.603088	781.664612	766.358215	65.261307
258.252014	734.853943	781.441711	760.785461	55.661644
258.625580	737.083008	797.714050	752.909424	26.102827
258.999115	735.596924	813.540527	760.414063	31.839867
259.372650	737.157288	825.057434	760.785583	26.880838
259.746124	738.346191	829.738464	754.767090	17.967491
260.119598	735.819824	829.441345	748.971497	14.047702
260.493042	732.179016	832.264832	750.903320	18.708250
260.866425	733.813660	831.818909	749.342957	15.845372
261.239838	739.832214	826.023376	753.652527	16.034489
261.613159	740.723816	823.051270	746.222168	6.678638
261.986511	732.922058	813.763428	756.698914	29.411743
262.359802	728.389587	815.769592	754.767029	30.187044
262.733063	730.990173	808.710754	756.624695	32.982925
263.106293	734.185242	810.271179	757.144714	30.175711
263.479523	742.061279	811.311462	755.138489	18.884007
263.852692	741.392578	810.494141	760.191101	27.204193
264.225861	743.472961	809.156738	756.401672	19.683264
264.598969	741.392578	806.778992	761.974365	31.477161
264.972076	738.271790	816.289734	760.934143	29.047617
265.345154	736.785828	822.828308	765.838135	33.765076
265.718201	726.680603	829.069763	759.893860	32.438255
266.091217	724.525696	834.122314	765.986755	37.830601
266.464203	723.634094	840.512390	768.884521	38.715851
266.837158	725.417480	839.026306	773.788574	42.576881
267.210114	733.442200	830.778748	766.358337	33.816833
267.583038	735.225403	836.351379	762.643066	27.112385
267.955902	741.169739	836.277161	761.379944	21.249872
268.328766	732.104797	852.995300	767.992920	29.686470
268.701569	733.442200	844.598938	762.568848	26.203222
269.074371	723.039734	849.354309	762.568848	31.294182
269.447144	722.593933	843.335876	761.900146	32.553902
269.819885	718.358643	850.766113	765.615234	35.690277
270.192596	728.612488	855.001282	761.305664	25.867147
270.565277	732.327637	855.595764	759.002258	21.639513
270.937927	734.928223	859.162292	752.537903	14.174598
271.310577	732.996338	869.862000	757.293396	17.752487
271.683136	733.070618	884.945374	758.556458	16.780827
272.055725	731.064453	891.038269	759.002258	17.463985
272.428284	730.544373	897.354004	757.664856	16.258345
272.800812	733.070618	895.496399	754.841309	13.403470
273.173279	735.076843	892.821533	759.745300	15.638217
273.545776	735.448303	892.152771	755.064270	12.517810
273.918152	737.603088	895.422058	751.051941	8.521696
274.290558	729.355469	897.725403	744.513184	9.002625
274.662964	733.442139	894.307556	756.030090	14.041521
275.035278	728.538147	892.821472	757.219055	17.458199
275.407593	734.928223	893.936035	760.785645	16.261730
275.779907	731.584656	900.697571	750.903320	11.423530
276.152161	734.333801	902.332275	754.469910	11.985888
276.524384	738.049011	909.613953	761.900146	13.902103
276.896606	736.562927	908.573730	762.048767	14.816418
277.268799	737.008728	914.815125	763.609070	14.960284
277.640930	739.163513	923.954407	757.813477	10.092469
278.013031	744.810486	931.830383	760.265442	8.263803
278.385162	733.888000	934.059509	754.544128	10.319215
278.757233	732.104736	928.338196	760.042542	14.237024
279.129272	732.030334	931.607483	759.150879	13.589003
279.501282	747.485352	939.334961	764.649353	8.946591
279.873230	741.541199	946.913818	761.974365	9.949314
280.245178	744.216003	955.607239	760.191162	7.557153
280.617126	736.265625	966.232605	754.544128	7.948317
280.988983	741.764099	972.919739	749.194336	3.214387
281.360870	735.448303	976.634949	748.302673	5.329636
281.732697	737.751770	986.814453	745.999268	3.311414
282.104492	730.321472	1002.418030	748.376953	6.635689
282.476288	727.349304	1026.640625	751.943542	8.217491
282.848053	730.544373	1021.513733	759.968262	10.112367
283.219757	733.739441	1025.749023	763.906311	10.330781
283.591461	735.225403	1016.907043	764.872253	10.524950
283.963135	727.795105	1020.473450	766.283936	13.150557
284.334747	730.395691	1025.451782	763.831848	11.332136
284.706360	732.922058	1037.265991	762.122986	9.594713
285.077942	739.832214	1052.943848	759.299500	6.217362
285.449524	740.203674	1066.244141	762.940247	6.973543
285.821014	734.928223	1066.912720	764.574951	8.930155
286.192535	730.395752	1085.414185	763.460449	9.313516
286.563995	733.888000	1098.119995	756.624512	6.242316
286.935425	738.271912	1108.893677	757.590515	5.212485
287.306824	738.049011	1107.556274	759.745300	5.871681
287.678223	731.510254	1101.463501	765.763855	9.258900
288.049561	734.408020	1097.896973	773.416992	10.731818
288.420898	737.974609	1089.277832	773.045471	9.983074
288.792145	743.324402	1090.986694	773.491394	8.677096
289.163452	741.838379	1100.274780	765.689514	6.654217
289.534668	732.773438	1114.020630	767.621399	9.140516
289.905914	724.748718	1122.565552	760.488281	8.983924
290.277039	726.234802	1140.769653	762.122986	8.657458
290.648193	736.414246	1162.911987	761.974304	5.993011
291.019318	742.432800	1188.769165	768.141418	5.759920
291.390381	740.575195	1194.193237	761.157043	4.537264
291.761475	737.083008	1190.626831	760.042480	5.062239
292.132507	737.974609	1181.116089	758.259277	4.577470
292.503510	747.113953	1177.995239	762.197266	3.500573
292.874481	755.881653	1177.623779	763.460449	1.797021
293.245422	751.720703	1180.595947	761.900085	2.373507
293.616364	746.890930	1186.020020	764.426453	3.993250
293.987213	731.287415	1205.412964	760.859863	6.237261
294.358093	729.281250	1225.994751	762.940369	6.776365
294.728943	721.628113	1255.418823	761.082764	7.391408
295.099731	726.829285	1276.595093	764.054871	6.771172
295.470490	727.795166	1295.319458	760.562683	5.773765
295.841248	725.491760	1309.213867	762.123047	6.275467
296.211975	727.943665	1327.046509	760.562683	5.444644
296.582642	732.699036	1343.095947	763.014648	4.966541
296.953308	739.386414	1367.541626	756.550293	2.732426
297.323883	740.946716	1380.172974	750.977539	1.569213
297.694519	740.946777	1403.355469	752.166443	1.693768
298.065063	740.872375	1406.624634	753.578186	1.908489
298.435608	738.569031	1402.612305	756.996094	2.774979
298.806122	737.454529	1386.488647	754.469788	2.621628
299.176575	739.832214	1368.210327	754.098328	2.270307
299.547028	742.135559	1352.309448	751.869202	1.595224
299.917450	738.494812	1329.498657	748.748535	1.734967
300.287872	734.556702	1321.250977	751.869324	2.950876
300.658234	735.076843	1318.947632	751.274841	2.774244
301.028564	735.745605	1320.433716	757.441895	3.710746
301.398865	733.293457	1325.411987	758.333557	4.228900
301.769135	724.897278	1330.687500	761.379944	6.022326
302.139374	727.720764	1340.049683	758.853699	5.084348
302.509583	723.857117	1338.860718	755.435791	5.134714
302.879791	727.497986	1339.157837	755.955994	4.652587
303.249939	730.544434	1340.569702	761.974426	5.152245
303.620087	737.528809	1345.473633	759.522461	3.617705
303.990173	736.488586	1348.965942	759.002258	3.675838
304.360260	739.163513	1348.743042	757.962097	3.083861
304.730286	740.278015	1347.034058	767.695740	4.518739
305.100281	740.129395	1352.978271	772.302490	5.249760
305.470276	736.711426	1358.476685	776.909241	6.465111
305.840179	735.894226	1374.526001	777.132141	6.457229
306.210144	736.785828	1374.897461	773.416992	5.740557
306.579987	733.813660	1385.002808	766.135315	4.963482
306.949890	726.680664	1386.340210	763.311829	5.553041
307.319702	728.835388	1408.630981	766.506836	5.541584
307.689484	724.451477	1429.287109	768.884521	6.304029
308.059265	727.720764	1452.989624	765.689514	5.235127
308.429016	722.816833	1472.531250	760.859863	5.074336
308.798737	724.005676	1492.667358	765.689514	5.422911
309.168396	725.194580	1515.106812	772.525391	5.991908
309.538055	732.550537	1537.174683	780.327148	5.937755
309.907684	741.020996	1551.812378	773.788574	4.041431
310.277313	738.346130	1572.319946	768.810242	3.652886
310.646851	733.293518	1577.744141	766.581238	3.941938
311.016388	725.120300	1592.827515	777.875183	6.079802
311.385895	727.943848	1586.734741	778.618225	5.900665
311.755371	726.903503	1589.706665	773.639893	5.416808
312.124817	727.423645	1594.239258	759.968262	3.754503
312.494232	728.463867	1603.006836	754.246887	2.948171
312.863617	733.219238	1612.146118	752.240723	2.164171
313.232971	732.847656	1600.480591	749.491516	1.918307
313.602295	735.968445	1596.245239	758.407898	2.608399
313.971619	730.544434	1585.471558	767.249939	4.293407
314.340820	732.996399	1591.415649	769.330383	4.232662
314.710083	731.956116	1610.585815	768.958801	4.211409
315.079285	735.596924	1629.681641	762.494568	3.008400
315.448486	731.956055	1658.065308	764.129211	3.474013
315.817596	727.869446	1650.857910	759.522461	3.429405
316.186707	724.600098	1646.696899	765.541016	4.439981
316.555786	728.761047	1625.223267	770.445007	4.649829
316.924866	732.253235	1618.090454	767.398499	3.967463
317.293884	738.123230	1610.734375	758.779480	2.367177
317.662872	743.324402	1595.651001	761.751648	2.161994
318.031830	742.581360	1596.096680	769.627625	3.168808
318.400757	736.042786	1605.830444	771.485168	4.074831
318.769684	729.578430	1622.028320	764.872253	3.954712
319.138550	723.411316	1638.151978	757.441895	3.720243
319.507416	726.309082	1641.718628	762.866028	3.993507
319.876190	721.479492	1655.984741	765.392273	4.699040
320.244995	734.259521	1660.591431	774.382996	4.331436
320.613770	737.083069	1657.916626	774.605896	4.074876
320.982483	739.757874	1635.402954	769.999207	3.376486
321.351166	726.977844	1621.062500	766.432617	4.412868
321.719818	723.559875	1612.740601	765.763855	4.746389
322.088440	726.234863	1630.944702	766.135315	4.410304
322.457062	732.550537	1642.981812	761.157043	3.142083
322.825623	734.110901	1666.907227	763.534729	3.154368
323.194183	737.454529	1688.975098	767.695801	3.178205
323.562653	743.324402	1725.457642	777.429382	3.472541
323.931183	737.751709	1772.194214	769.181824	3.038363
324.299591	733.516418	1809.419922	766.804016	3.093920
324.668060	726.606384	1850.434937	759.150879	2.895859
325.036407	733.293640	1879.858765	762.866028	2.579216
325.404755	733.665100	1916.861694	757.590576	2.022105
325.773102	733.739441	1926.075195	762.122986	2.380499
326.141388	729.875671	1930.979004	768.587341	3.223009
326.509674	727.423645	1925.629272	773.565613	3.850923
326.877899	723.114075	1932.465210	778.618164	4.589576
327.246124	718.804504	1939.226685	770.890808	4.267892
327.614288	726.011902	1942.050171	775.274597	4.051081
327.982422	728.686768	1938.632202	768.513000	3.291573
328.350525	741.987000	1928.006836	772.302490	2.556070
328.718628	734.779602	1926.595215	765.318054	2.562347
329.086700	736.637207	1926.743774	770.370667	2.834491
329.454712	727.943787	1940.861450	770.816467	3.534673
329.822693	734.036560	1939.375366	778.469666	3.686358
330.190674	726.754883	1944.205078	778.543945	4.253896
330.558563	723.708496	1956.242065	775.348877	4.189775
330.926483	716.426819	1972.142944	770.221985	4.284023
331.294312	720.662109	1994.210571	768.587402	3.763131
331.662231	721.925232	2012.935059	767.547058	3.533809
332.029999	726.011902	2046.222656	761.677185	2.701484
332.397766	726.234802	2072.897217	761.825745	2.642900
332.765503	729.949890	2100.017822	766.729797	2.684532
333.133240	730.024231	2126.172363	778.915466	3.501866
333.500916	734.779602	2157.156494	772.971191	2.685054
333.868561	731.658875	2185.986084	766.358337	2.385946
334.236176	730.618652	2214.146973	756.921875	1.773018
334.603790	723.559875	2226.109619	760.116882	2.432998
334.971344	731.510254	2235.397461	765.392334	2.252967
335.338867	729.504089	2237.775146	765.838196	2.408991
335.706360	734.333801	2240.152588	763.980652	1.968819
336.073853	724.154297	2248.623291	760.711243	2.398012
336.441284	724.823059	2262.517822	763.386169	2.507852
336.808655	721.999512	2256.127686	758.482178	2.378072
337.176086	722.296692	2208.573975	759.225281	2.484637
337.543396	727.572266	2149.354492	770.221985	2.999736
337.910706	730.767273	2108.042480	778.320984	3.452739
338.277954	743.770203	2135.906006	780.624329	2.647308
338.645264	740.946777	2212.957764	770.296204	1.993832
339.012421	738.791931	2320.548096	766.581116	1.756856
339.379669	741.392517	2410.305664	769.850525	1.705182
339.746796	740.277893	2474.206299	776.983582	2.116909
340.113953	734.630920	2509.054443	778.766785	2.487335
340.481018	725.045898	2528.670166	772.079590	2.607732
340.848114	726.086182	2524.806396	767.175598	2.284369
341.215118	734.408142	2523.543213	767.472839	1.848083
341.582153	733.442200	2529.190186	771.782410	2.135055
341.949066	737.677429	2538.998291	767.621399	1.662334
342.316010	738.643372	2565.969971	771.782410	1.813526
342.682922	732.327637	2578.675781	773.268372	2.217390
343.049835	717.912903	2600.520752	774.605896	3.011407
343.416656	726.086182	2634.477295	773.416992	2.480142
343.783478	733.962219	2664.272705	771.039307	1.920784
344.150269	743.993164	2736.791992	774.159973	1.513791
344.516998	734.705322	2802.698486	764.872253	1.458754
344.883728	740.426575	2892.678955	768.215820	1.291170
345.250427	741.169678	2934.511719	770.742188	1.348285
345.617065	741.466858	2949.892334	776.909241	1.604871
345.983704	734.408142	2949.669678	772.153809	1.703892
346.350281	730.247131	2940.901611	765.318054	1.586450
346.716827	728.686829	2924.703857	765.020813	1.654540
347.083405	727.200745	2897.286133	767.398438	1.852355
347.449860	741.243958	2875.366455	776.017578	1.629411
347.816376	744.141785	2856.419922	781.367432	1.762346
348.182770	747.411072	2842.970703	773.639893	1.251638
348.549194	733.962219	2840.295898	762.345947	1.347542
348.915558	730.544250	2859.986328	756.624695	1.224755
349.281921	729.058289	2891.416016	764.054932	1.618448
349.648193	726.531982	2923.143311	776.760681	2.286645
350.014526	736.265625	2953.607422	783.670837	2.137930
350.380737	736.860107	2987.118164	781.961853	2.004292
350.746948	746.816650	3019.068359	778.320984	1.386481
351.113159	742.284180	3042.324951	768.810242	1.153287
351.479309	740.426575	3069.817139	767.472839	1.161088
351.845428	730.395752	3088.912842	763.534729	1.405077
352.211517	728.761169	3119.971436	774.457275	1.911003
352.577576	732.773438	3145.234131	775.794739	1.783295
352.943604	741.764099	3199.475342	775.200256	1.360459
353.309601	738.940613	3259.214844	772.302490	1.323740
353.675537	735.448303	3342.656494	771.559387	1.385048
354.041473	731.956055	3413.466797	772.599670	1.515698
354.407379	728.835388	3480.264893	768.364502	1.436676
354.773254	729.355530	3537.478271	769.330383	1.423544
355.139038	728.166748	3576.190186	772.079590	1.541871
355.504913	731.658936	3650.492432	774.680176	1.473919
355.870636	722.519714	3713.129883	780.178528	1.927995
356.236389	724.971680	3823.989502	772.525391	1.534477
356.602081	725.789001	3908.620361	772.599670	1.470724
356.967804	730.915833	3993.399658	770.073425	1.200239
357.333405	722.593933	4084.272217	774.382996	1.540572
357.699036	722.816895	4204.196289	777.503662	1.570836
358.064606	728.686768	4318.325195	777.875183	1.370289
358.430176	735.671204	4389.878906	773.417053	1.032942
358.795654	738.866211	4421.234863	763.088928	0.657803
359.161163	739.163391	4437.135254	765.095154	0.701243
359.526581	736.191345	4435.426758	776.537781	1.090670
359.892029	732.922058	4468.045410	782.853516	1.336809
360.257416	727.126404	4539.376465	785.008240	1.518312
360.622772	729.578369	4669.331543	778.841125	1.250402
360.988098	727.497864	4834.580566	776.686340	1.197650
361.353394	728.166687	5028.808105	774.308655	1.072909
361.718658	726.457703	5229.351074	778.469666	1.155079
362.083893	730.172852	5386.799316	782.556335	1.124923
362.449097	738.940491	5492.829590	779.286926	0.848704
362.814209	742.284180	5512.296387	776.240540	0.711872
363.179382	739.386414	5409.535645	771.782410	0.693682
363.544434	735.002502	5192.571289	772.822571	0.848446
363.909546	735.448303	4939.421875	767.472717	0.761765
364.274536	737.900391	4722.012207	774.531555	0.919431
364.639587	733.888000	4583.883301	775.348877	1.076907
365.004517	729.949890	4507.128906	777.280762	1.253075
365.369507	727.126404	4461.878418	778.989746	1.388669
365.734344	729.281189	4436.689453	776.017639	1.260623
366.099274	726.829163	4406.448730	786.642883	1.625541
366.464081	726.977844	4395.823242	781.070251	1.474371
366.828918	733.813660	4396.417480	785.454041	1.409936
367.193665	736.191345	4390.845215	777.132141	1.120237
367.558411	741.466797	4420.417480	783.596497	1.145155
367.923126	738.420410	4416.776855	783.670837	1.230181
368.287781	744.438965	4445.011719	790.135193	1.234842
368.652435	751.274719	4408.529297	785.899902	0.946753
369.017059	746.147949	4416.182129	781.144531	0.953576
369.381653	746.519470	4403.848145	778.098083	0.863434
369.746185	732.327637	4401.990723	778.841064	1.267512
370.110687	734.036621	4388.541504	776.091980	1.150781
370.475220	730.470032	4406.002441	782.110413	1.404977
370.839661	733.367859	4452.888184	777.503662	1.186599
371.204041	735.374023	4519.834473	785.676941	1.329197
371.568451	732.327637	4573.778320	776.166260	1.141200
371.932770	730.767273	4633.220703	780.921631	1.285201
372.297150	728.984070	4667.845703	772.748352	1.111090
372.661377	730.395752	4688.947754	777.726563	1.195660
373.025696	732.847717	4703.511230	776.760559	1.105932
373.389862	728.761047	4697.937988	772.376770	1.098861
373.754059	728.835449	4713.615723	767.101318	0.960301
374.118225	728.686829	4726.990723	765.912415	0.931034
374.482361	735.522705	4767.039551	773.119873	0.932581
374.846436	741.541199	4816.896973	781.218811	0.973599
375.210510	740.649597	4892.685547	779.361267	0.932354
375.574524	741.838379	4989.576172	786.568604	1.053036
375.938538	731.881836	5083.346191	782.927734	1.173074
376.302460	729.801270	5178.899902	785.082520	1.242527
376.666412	726.903503	5294.515137	783.596497	1.241196
377.030304	735.671204	5417.188965	784.042297	1.033235
377.394196	733.219238	5550.487793	779.361328	0.957848
377.757996	730.470032	5655.849121	784.042297	1.087678
378.121796	725.937561	5724.652832	779.881348	1.079153
378.485565	734.928223	5722.201172	783.819397	0.980319
378.849304	738.569031	5687.427246	783.002136	0.897846
379.212982	731.807434	5609.706543	786.642883	1.124161
379.576630	726.829163	5501.150391	789.317871	1.308850
379.940277	721.479431	5404.259766	781.516052	1.282072
380.303864	732.699158	5327.728027	779.658447	1.021959
380.667450	735.002502	5309.523926	776.760681	0.912843
381.030945	732.550537	5296.372070	782.333313	1.090813
381.394501	732.253357	5330.477051	785.825500	1.165062
381.757935	735.968445	5361.461426	784.859619	1.056994
382.121399	746.816650	5386.501465	788.351868	0.895216
382.484741	747.188171	5424.024902	783.670715	0.780069
382.848145	745.924988	5460.952637	791.769775	0.972312
383.211487	735.002441	5514.079590	785.825623	1.063452
383.574768	730.692932	5587.861816	791.695496	1.255928
383.938019	726.160583	5657.706543	783.670837	1.166171
384.301270	733.293640	5750.956543	781.441711	0.959572
384.664459	729.578430	5803.042480	780.921631	1.011995
385.027649	723.708496	5855.574219	784.488098	1.184357
385.390778	723.485596	5892.875000	789.540710	1.277813
385.753876	728.983948	5936.044434	791.695496	1.204356
386.116943	735.374023	6010.124512	791.844055	1.070573
386.479980	733.590637	6035.535645	794.221741	1.143564
386.842987	729.058289	6074.173340	795.930847	1.251097
387.205994	722.668274	6090.000000	802.023621	1.478488
387.568909	719.770447	6149.962402	794.593323	1.377905
387.931793	717.392822	6185.404297	783.893738	1.216181
388.294678	722.445374	6217.131348	779.435547	1.037187
388.657471	724.600159	6246.852051	784.636719	1.087175
389.020294	731.138855	6264.610840	795.633545	1.165537
389.383057	737.825989	6302.431152	791.472595	0.964069
389.745819	736.042786	6310.084473	788.128906	0.934441
390.108521	740.278015	6331.558105	791.992676	0.924916
390.471191	733.293518	6365.736816	796.302246	1.118675
390.833801	735.299805	6464.187500	805.887268	1.232132
391.196442	732.996399	6595.777832	794.890442	1.055711
391.558960	737.751709	6728.779785	795.559265	0.964902
391.921509	733.145020	6860.815918	785.008240	0.846377
392.284027	730.544434	7010.461426	786.197083	0.886200
392.646484	728.984070	7142.052246	788.500488	0.928049
393.008911	733.590820	7174.596191	797.491028	0.992084
393.371307	737.157288	7136.775879	799.125732	0.968315
393.733673	733.367859	7073.247559	795.113464	0.973924
394.096008	728.761047	7051.031250	792.066956	1.001316
394.458344	724.451477	7079.562988	799.571594	1.182042
394.820587	725.714661	7088.033691	804.475586	1.237928
395.182831	735.002502	7122.585449	802.841003	1.062037
395.545013	730.693054	7114.634277	801.949280	1.116179
395.907196	724.525879	7096.281250	800.314636	1.189449
396.269287	719.621887	7011.204590	807.521912	1.397105
396.631409	725.789001	6909.929688	812.574524	1.403356
396.993469	729.132629	6803.603027	810.642639	1.341846
397.355530	729.949890	6737.770996	807.076172	1.283765
397.717499	728.389648	6704.482910	801.429199	1.222196
398.079468	730.172852	6720.012207	812.574646	1.375693
398.441376	728.909668	6730.340332	815.769714	1.447322
398.803284	725.120300	6748.395996	820.970886	1.591336
399.165131	730.470032	6760.284668	820.153503	1.487334
399.526978	732.922058	6778.562500	823.051270	1.490813
399.888763	738.197571	6806.352051	826.320557	1.452221
400.250519	730.247131	6812.147949	829.589905	1.633417
400.612244	735.671204	6849.224609	841.924133	1.737990
400.973938	735.374023	6835.553223	839.620789	1.708913
401.335602	729.875671	6869.212402	841.626892	1.820249
401.697205	722.296692	6912.902344	838.134705	1.871190
402.058807	719.101746	6977.025879	843.335876	1.985229
402.420349	728.240967	7047.167480	853.069519	1.975471
402.781860	729.355469	7096.801270	858.493652	2.028100
403.143341	729.875671	7219.920410	875.434570	2.242803
403.504822	726.606262	7333.455566	874.691589	2.241391
403.866241	725.640381	7509.924316	887.545959	2.386480
404.227631	733.144958	7629.626465	888.437561	2.251766
404.588959	746.965271	7796.436035	906.493164	2.262977
404.950287	750.308838	7900.533691	919.347473	2.364102
405.311554	750.754639	8002.477051	930.492981	2.478561
405.672821	743.993164	8047.579590	946.839539	2.777353
406.034027	740.352295	8057.461426	962.666016	3.038272
406.395203	734.110840	8003.294922	991.792725	3.544853
406.756348	732.476257	7939.246094	1008.362305	3.828151
407.117493	733.219238	7898.082031	1034.591187	4.206249
407.478516	730.395752	7906.181152	1067.061401	4.691691
407.839600	729.801453	7935.679688	1112.683228	5.313464
408.200592	721.256592	7934.119141	1155.630249	6.022209
408.561554	723.857178	7924.831543	1202.738159	6.650225
408.922485	725.789001	7911.456543	1253.189697	7.339620
409.283417	735.076843	7924.310547	1310.922852	8.009838
409.644257	741.615479	7992.743652	1381.361938	8.822717
410.005096	741.169678	8101.300293	1464.358032	9.825754
410.365906	742.061340	8230.438477	1549.880493	10.787640
410.726715	738.197571	8327.180664	1649.891968	12.013393
411.087433	734.482422	8390.784180	1751.017944	13.277109
411.448120	724.971680	8442.200195	1873.468872	14.882250
411.808807	723.188293	8471.327148	1989.009644	16.337101
412.169434	720.959290	8444.207031	2110.271729	17.988708
412.530029	730.544373	8410.622070	2240.078369	19.655191
412.890564	730.767273	8380.530273	2368.399170	21.407616
413.251099	733.293518	8382.461914	2517.599121	23.326792
413.611572	730.247131	8425.780273	2669.102295	25.194553
413.972076	730.915833	8481.432617	2835.243164	27.150803
414.332489	728.909729	8561.159180	3006.510986	29.079784
414.692871	734.556824	8644.304688	3201.184326	31.184652
415.053223	733.293640	8749.665039	3410.643555	33.398525
415.413574	733.962341	8890.618164	3614.381592	35.313728
415.773834	730.841614	9043.608398	3792.559570	36.831516
416.134094	732.699219	9180.325195	3993.994141	38.606052
416.494263	738.494812	9324.173828	4206.871582	40.397232
416.854462	736.562927	9545.150391	4477.630371	42.470684
417.214630	746.519470	9777.048828	4721.492188	44.017052
417.574738	748.748535	10026.780273	4986.975586	45.680241
417.934784	751.869141	10240.474609	5229.425293	47.188770
418.294861	739.237793	10556.410156	5516.828125	48.665649
418.654846	731.881836	10919.452148	5821.989746	49.963905
419.014832	730.990234	11319.648438	6133.986816	51.026264
419.374756	733.516418	11721.922852	6459.283691	52.107349
419.734680	737.454529	12146.786133	6792.605957	53.071918
420.094543	736.711487	12562.508789	7150.894043	54.238903
420.454376	742.655762	12953.788086	7453.825684	54.959438
420.814148	738.049011	13349.450195	7757.129395	55.656628
421.173920	736.265625	13772.159180	8066.080566	56.227943
421.533691	738.346130	14187.956055	8391.526367	56.902615
421.893341	738.197510	14513.996094	8684.130859	57.680382
422.253021	735.596985	14745.968750	8924.648438	58.449921
422.612640	723.708496	14847.913086	9080.907227	59.169342
422.972260	721.999512	14839.367188	9144.065430	59.657486
423.331757	726.086182	14782.898438	9168.211914	60.057186
423.691315	730.692932	14769.151367	9230.032227	60.543251
424.050781	730.767273	14856.458008	9362.959961	61.109879
424.410248	721.999512	14954.387695	9480.507813	61.539268
424.769653	725.194580	15048.008789	9621.831055	62.115143
425.128998	735.076843	15116.739258	9719.464844	62.471134
425.488373	738.123230	15079.885742	9732.393555	62.713844
425.847656	733.367859	14956.989258	9658.684570	62.749958
426.206940	719.250305	14796.791992	9582.598633	62.960911
426.566193	721.107910	14524.472656	9463.492188	63.335171
426.925385	722.668274	14286.629883	9353.895508	63.633530
427.284576	734.036621	13896.168945	9138.268555	63.851601
427.643677	743.621643	13618.872070	8986.170898	64.018555
428.002777	737.974609	13314.825195	8839.942383	64.419685
428.361847	742.804382	13027.867188	8672.019531	64.543549
428.720856	738.717590	12761.492188	8531.364258	64.815712
429.079865	738.197510	12534.942383	8399.921875	64.947784
429.438812	729.429871	12405.953125	8336.169922	65.145592
429.797760	726.754944	12343.835938	8297.532227	65.169357
430.156616	734.928223	12221.237305	8215.577148	65.126656
430.515503	737.974609	12152.582031	8177.906250	65.179039
430.874268	735.299744	12083.851563	8165.349121	65.471344
431.233093	728.092346	12101.090820	8219.515625	65.870262
431.591827	728.092285	12122.192383	8270.413086	66.194969
431.950562	733.888000	12154.809570	8316.407227	66.391479
432.309204	732.179016	12210.760742	8367.082031	66.514336
432.667877	727.869446	12312.183594	8445.768555	66.623703
433.026459	723.039795	12435.674805	8526.013672	66.620140
433.385010	718.284363	12577.964844	8611.165039	66.552223
433.743561	720.513489	12743.734375	8735.696289	66.664192
434.102051	724.154297	12909.875000	8852.351563	66.702637
434.460510	736.117126	13097.117188	8993.749023	66.803917
434.818939	735.819885	13145.934570	9057.797852	67.058022
435.177338	736.637207	13196.015625	9090.492188	67.048729
435.535675	728.612488	13133.898438	9068.572266	67.229080
435.894012	729.652649	13126.541992	9038.777344	67.025887
436.252289	731.213074	13129.586914	9071.991211	67.273163
436.610535	731.733215	13120.596680	9064.784180	67.262436
436.968719	735.671204	13217.784180	9171.483398	67.583206
437.326935	732.550476	13294.614258	9228.844727	67.634544
437.685028	732.104675	13412.235352	9326.403320	67.777679
438.043152	728.315247	13469.375000	9391.121094	67.991249
438.401215	732.104675	13627.713867	9516.989258	68.123070
438.759277	736.117004	13843.710938	9665.668945	68.125031
439.117249	739.014832	14214.258789	9866.956055	67.738594
439.475250	732.847839	14483.979492	10046.991211	67.733650
439.833130	737.528809	14803.332031	10283.645508	67.867561
440.191071	736.562805	15003.577148	10457.215820	68.133759
440.548889	733.070618	15281.989258	10635.394531	68.062271
440.906708	730.098572	15609.739258	10813.201172	67.764420
441.264496	732.476257	15845.948242	10959.131836	67.665825
441.622223	743.250183	16046.936523	11107.514648	67.723976
441.979950	743.175781	16109.127930	11169.555664	67.853783
442.337616	733.144836	16165.894531	11226.546875	67.994377
442.695251	731.064453	16067.516602	11180.479492	68.134499
443.052887	726.977844	15928.645508	11076.454102	68.081192
443.410461	735.225403	15782.640625	10965.668945	67.988045
443.768005	727.869446	15648.375000	10864.097656	67.934883
444.125458	731.361633	15544.426758	10809.559570	68.035873
444.482941	718.284363	15544.722656	10804.729492	68.030128
444.840393	724.154297	15616.277344	10874.500000	68.159157
445.197754	727.200745	15829.526367	11059.661133	68.416351
445.555084	737.603210	16041.289063	11228.999023	68.554695
445.912415	734.556702	16402.400391	11475.164063	68.551918
446.269714	730.098572	16664.837891	11652.301758	68.543343
446.626953	726.829285	16977.130859	11865.698242	68.545616
446.984161	730.024231	17242.242188	12055.468750	68.588264
447.341309	732.104736	17510.923828	12233.125000	68.544876
447.698456	729.578430	17724.246094	12390.350586	68.614304
448.055542	728.092285	17867.203125	12473.198242	68.528091
448.412598	730.618652	17855.833984	12453.136719	68.451797
448.769653	733.813660	17730.560547	12366.648438	68.441544
449.126617	739.906494	17482.388672	12205.335938	68.481064
449.483582	742.507080	17254.876953	12071.293945	68.607887
449.840515	745.181946	16979.287109	11886.057617	68.626366
450.197388	738.271790	16754.373047	11754.468750	68.782013
450.554230	734.333801	16631.029297	11633.800781	68.564354
450.911041	730.618652	16510.064453	11546.198242	68.542206
451.267822	726.903503	16387.687500	11447.597656	68.455666
451.624573	727.869446	16177.335938	11345.653320	68.725891
451.981262	733.739319	16085.127930	11288.440430	68.754051
452.337921	732.401855	15938.527344	11210.125000	68.904617
452.694580	732.996338	15896.027344	11165.468750	68.802025
453.051147	734.259460	15892.385742	11163.760742	68.804688
453.407715	738.197510	15887.481445	11129.506836	68.592743
453.764221	740.649475	15944.472656	11133.667969	68.357925
454.120728	737.157227	15769.637695	11022.957031	68.423836
454.477142	734.631042	15726.914063	11021.842773	68.616714
454.833557	727.497986	15522.582031	10944.643555	69.057709
455.189911	726.829285	15398.718750	10851.020508	69.004005
455.546265	734.408142	15226.632813	10714.229492	68.863281
455.902557	730.915833	15094.151367	10643.567383	69.014053
456.258820	728.612488	15056.257813	10633.611328	69.132080
456.615051	723.039734	15101.210938	10673.808594	69.207474
456.971252	729.355469	15089.249023	10665.932617	69.196732
457.327393	724.897400	15227.524414	10771.814453	69.276535
457.683502	738.123291	15452.215820	10921.311523	69.207047
458.039612	733.739441	15850.700195	11194.225586	69.197021
458.395630	742.507141	16260.109375	11457.405273	69.049957
458.751648	736.117004	16626.197266	11721.105469	69.131104
459.107605	738.271790	17199.220703	12082.291992	68.914742
459.463562	732.476257	17738.138672	12500.465820	69.200417
459.819458	724.080017	18330.851563	12919.535156	69.265709
460.175323	724.748718	18849.783203	13301.598633	69.389381
460.531158	726.457703	19401.406250	13655.429688	69.231628
460.886932	728.835449	19754.568359	13910.956055	69.285751
461.242676	726.086243	19942.107422	14061.046875	69.395012
461.598419	723.782898	19821.439453	14029.393555	69.671432
461.954102	723.262756	19509.218750	13816.665039	69.697823
462.309723	726.457703	19000.169922	13433.485352	69.537193
462.665344	737.082947	18413.849609	13007.656250	69.416389
463.020905	740.426575	17931.697266	12651.746094	69.287018
463.376373	740.426575	17506.912109	12394.584961	69.508652
463.731873	737.900391	17168.759766	12183.863281	69.661377
464.087341	737.157288	16846.804688	12026.340820	70.077164
464.442749	738.791931	16707.560547	11917.859375	70.005821
464.798126	736.042725	16581.619141	11838.058594	70.063820
465.153503	737.305847	16669.148438	11843.629883	69.711487
465.508820	732.847717	16696.119141	11863.395508	69.725983
465.864105	731.956055	16866.494141	11940.075195	69.466629
466.219330	733.293518	17083.458984	12127.243164	69.687057
466.574524	737.603210	17264.681641	12260.393555	69.720673
466.929657	737.008789	17440.556641	12400.456055	69.826172
467.284790	726.457703	17611.156250	12529.891602	69.906090
467.639893	726.011902	17824.033203	12661.481445	69.806145
467.994934	727.497986	18064.031250	12815.807617	69.727379
468.349945	730.767273	18167.312500	12867.225586	69.603569
468.704926	724.897278	18137.441406	12894.418945	69.889389
469.059875	722.296692	17953.542969	12779.250000	69.971451
469.414764	728.686768	17715.033203	12648.551758	70.173218
469.769653	737.008606	17569.474609	12514.213867	69.967194
470.124451	736.711487	17462.402344	12443.476563	69.992706
470.479248	726.754883	17337.720703	12337.075195	69.895523
470.834015	720.142029	17239.867188	12286.250977	70.013939
471.188721	718.284424	17281.177734	12322.066406	70.058914
471.543365	729.949951	17370.267578	12349.854492	69.829819
471.898010	734.779602	17473.548828	12410.114258	69.750259
472.252625	730.990173	17592.580078	12483.897461	69.702248
472.607178	727.126465	17859.103516	12694.769531	69.855583
472.961700	732.104675	18058.310547	12859.497070	69.994514
473.316193	734.110840	18326.392578	13076.833008	70.159874
473.670654	731.138733	18462.220703	13196.757813	70.303772
474.025055	715.237976	18722.503906	13354.206055	70.188156
474.379456	719.176025	18925.201172	13444.557617	69.896538
474.733795	722.816833	19097.732422	13556.605469	69.844070
475.088104	729.058289	19227.537109	13699.268555	70.115013
475.442383	729.801270	19241.134766	13742.066406	70.293503
475.796570	728.463867	19319.375000	13825.284180	70.447441
476.150787	724.154297	19460.029297	13910.137695	70.378265
476.504944	721.553711	19694.529297	14061.492188	70.310204
476.859070	719.027405	19943.890625	14203.930664	70.143036
477.213135	729.504089	20149.859375	14355.804688	70.165047
477.567200	728.761047	20533.259766	14625.152344	70.167854
477.921173	730.841553	20938.804688	14901.856445	70.125893
478.275146	725.417480	21413.748047	15203.377930	69.981293
478.629089	732.922058	21727.080078	15412.687500	69.923096
478.983002	730.990234	22106.099609	15697.711914	70.019394
479.336823	732.476257	22481.998047	15961.190430	70.018616
479.690643	733.070618	22834.267578	16254.165039	70.227394
480.044403	740.872498	23274.734375	16578.720703	70.284660
480.398163	744.364685	23805.923828	17004.845703	70.509033
480.751862	739.014893	24630.906250	17580.396484	70.489944
481.105499	733.813660	25573.955078	18272.970703	70.608116
481.459137	730.693054	26882.203125	19159.177734	70.468147
481.812744	728.463867	28476.146484	20276.691406	70.449944
482.166290	729.801331	30368.265625	21631.007813	70.520546
482.519806	727.200745	32700.031250	23369.914063	70.818604
482.873291	722.073914	35370.472656	25299.482422	70.933746
483.226715	724.525879	38597.812500	27617.056641	71.006599
483.580139	731.138733	41831.167969	29920.591797	71.020523
483.933502	734.259460	45228.140625	32447.181641	71.274788
484.286804	730.692932	48298.777344	34838.687500	71.703529
484.640106	722.222473	50963.199219	37005.503906	72.218506
484.993347	723.336975	52715.183594	38621.289063	72.892105
485.346558	723.262695	53484.062500	39397.011719	73.300156
485.699738	723.114075	53169.246094	39246.253906	73.452774
486.052887	728.612488	52069.859375	38268.800781	73.118965
486.405975	733.070618	50431.410156	36836.761719	72.645668
486.759064	737.825989	48609.285156	35262.878906	72.120331
487.112061	742.209900	46922.988281	33867.777344	71.730202
487.464996	735.225403	45817.656250	32912.839844	71.375069
487.817963	737.751770	45395.027344	32543.181641	71.221161
488.170868	730.841553	45394.281250	32554.548828	71.252251
488.523743	730.470032	45570.894531	32705.533203	71.308563
488.876587	724.451599	45644.160156	32757.470703	71.311729
489.229401	735.894104	45514.058594	32631.601563	71.230492
489.582153	741.912598	44882.042969	32227.837891	71.331749
489.934845	745.033386	43938.613281	31583.115234	71.395065
490.287537	734.333801	42786.925781	30770.093750	71.424271
490.640198	736.414307	41843.128906	30064.740234	71.346802
490.992798	737.751770	41058.496094	29470.615234	71.260742
491.345337	740.278015	40719.972656	29212.708984	71.217232
491.697876	733.219299	40690.031250	29131.494141	71.072426
492.050354	730.841553	41089.402344	29401.216797	71.039139
492.402832	721.033691	41526.449219	29627.021484	70.838608
492.755219	725.789063	41659.082031	29729.259766	70.855453
493.107605	724.748779	41330.292969	29512.593750	70.896347
493.459930	733.739441	40451.292969	28969.070313	71.090302
493.812225	728.315247	39116.964844	28026.466797	71.109962
494.164490	735.076843	37295.359375	26746.974609	71.147972
494.516724	737.603210	35251.144531	25358.255859	71.336205
494.868896	739.609375	33335.250000	23989.078125	71.326927
495.221039	735.745605	31802.234375	22857.968750	71.209282
495.573120	731.213074	30613.908203	21948.427734	71.001678
495.925201	731.361633	29866.125000	21424.966797	71.027199
496.277222	735.151123	29441.187500	21110.294922	70.978607
496.629211	732.922058	29299.568359	20996.908203	70.935822
496.981140	733.813721	29234.406250	20935.089844	70.880196
497.333069	730.544373	29304.400391	20998.619141	70.932236
497.684967	736.265686	29441.638672	21038.072266	70.724762
498.036804	733.665039	29584.000000	21086.666016	70.546837
498.388580	735.299622	29571.888672	21068.240234	70.510910
498.740326	730.692871	29440.890625	21020.537109	70.671211
499.092072	726.234802	29171.916016	20884.712891	70.866570
499.443756	716.872559	28899.744141	20668.267578	70.792625
499.795410	718.581543	28639.687500	20462.298828	70.712517
500.147003	724.674377	28323.677734	20232.482422	70.683014
500.498566	731.510254	27973.634766	20010.166016	70.767815
500.850098	730.470032	27541.568359	19764.001953	70.991241
501.201599	729.281189	27249.335938	19555.583984	70.988930
501.553009	728.166687	26901.896484	19325.095703	71.051888
501.904449	731.361633	26712.273438	19164.976563	70.950607
502.255859	735.671204	26468.931641	19014.810547	71.033127
502.607178	741.243958	26389.796875	18987.392578	71.139099
502.958405	736.117004	26255.162109	18905.658203	71.199928
503.309692	733.739441	26204.193359	18869.248047	71.202141
503.660919	720.959290	26203.005859	18832.396484	71.075287
504.012115	729.281189	26248.404297	18838.117188	70.961830
504.363251	722.519714	26323.375000	18879.429688	70.923058
504.714294	730.321472	26393.664063	18899.267578	70.797272
505.065369	725.120300	26468.189453	18956.183594	70.819305
505.416443	729.578430	26531.568359	18997.570313	70.800713
505.767395	730.247253	26572.509766	19100.111328	71.084579
506.118317	728.092346	26547.916016	19112.369141	71.202179
506.469238	730.915833	26550.888672	19164.083984	71.391121
506.820160	728.686829	26552.228516	19151.156250	71.339821
507.170929	729.801331	26610.851563	19189.125000	71.323708
507.521729	736.860107	26689.462891	19182.212891	71.073227
507.872498	738.717590	26752.398438	19238.162109	71.114288
508.223236	746.296448	26908.062500	19349.767578	71.109383
508.573883	737.454407	27086.240234	19480.687500	71.135094
508.924500	733.590637	27277.494141	19615.623047	71.135101
509.275116	723.708496	27426.248047	19733.613281	71.191376
509.625702	719.621826	27642.916016	19909.117188	71.274696
509.976196	725.491760	27922.515625	20086.404297	71.187614
510.326660	728.984070	28197.810547	20263.689453	71.115906
510.677124	733.293518	28402.513672	20415.341797	71.133369
511.027557	734.036621	28613.904297	20601.693359	71.261658
511.377869	731.956055	28846.693359	20802.234375	71.387032
511.728180	733.887939	28997.453125	20961.093750	71.566360
512.078430	733.516418	29124.882813	21019.271484	71.450439
512.428650	734.482361	29223.556641	21088.226563	71.444038
512.778931	735.374023	29363.468750	21122.406250	71.213371
513.129028	737.157288	29397.648438	21170.332031	71.293877
513.479126	737.900391	29478.859375	21173.453125	71.102547
513.829285	739.312073	29447.951172	21209.119141	71.301903
514.179382	737.603027	29462.960938	21202.951172	71.244881
514.529297	741.838379	29363.693359	21204.732422	71.493950
514.879272	744.438965	29396.681641	21219.000000	71.458839
515.229187	742.507141	29292.955078	21170.628906	71.550964
515.579163	739.089172	29336.869141	21172.783203	71.452026
515.928955	735.745544	29338.726563	21169.216797	71.438255
516.278748	736.414307	29523.814453	21262.912109	71.303757
516.628540	735.745605	29762.031250	21432.470703	71.303391
516.978333	731.807556	30155.759766	21703.970703	71.275818
517.327942	729.355469	30661.318359	22125.564453	71.482811
517.677612	725.491760	31214.724609	22516.843750	71.472290
518.027222	729.132568	31768.796875	22973.583984	71.664597
518.376831	726.829163	32445.771484	23459.451172	71.668915
518.726379	732.773438	33130.621094	23959.656250	71.692673
519.075867	729.355469	33703.269531	24309.619141	71.511871
519.425293	738.420471	34199.460938	24626.669922	71.391235
519.774658	736.265625	34453.503906	24822.531250	71.436058
520.124084	735.374023	34636.285156	24951.150391	71.431053
520.473389	731.807434	34447.335938	24862.134766	71.570374
520.822693	728.835449	34182.144531	24681.431641	71.600082
521.171997	733.739441	33754.390625	24416.837891	71.722076
521.521240	735.299622	33337.179688	24111.828125	71.703011
521.870361	737.157227	32927.621094	23795.072266	71.629639
522.219482	733.070618	32541.771484	23521.267578	71.641396
522.568604	737.751709	32227.392578	23330.162109	71.745529
522.917664	745.181946	32033.166016	23216.330078	71.820374
523.266724	748.005432	32038.888672	23191.365234	71.724915
523.615662	738.346130	32213.203125	23306.757813	71.702988
523.964600	732.104675	32581.517578	23577.443359	71.729233
524.313538	731.881836	33048.214844	23961.068359	71.880646
524.662354	732.401917	33666.929688	24402.275391	71.869476
525.011169	740.278015	34429.574219	24948.773438	71.858124
525.359985	741.392578	35400.566406	25661.484375	71.900421
525.708740	742.209900	36578.562500	26485.798828	71.836525
526.057434	732.773438	37868.308594	27385.755859	71.772179
526.406067	730.915833	39320.261719	28435.208984	71.792595
526.754700	726.531982	40861.144531	29555.765625	71.831352
527.103333	727.126404	42628.214844	30947.306641	72.122658
527.451782	720.513489	44585.566406	32471.478516	72.383278
527.800293	726.309082	46703.792969	34119.734375	72.629951
528.148743	725.343079	48831.375000	35781.812500	72.873337
528.497131	727.275085	50810.730469	37378.355469	73.180016
528.845642	726.234680	52506.312500	38994.363281	73.905121
529.193909	730.915833	53910.261719	40484.656250	74.754097
529.542175	736.785828	54959.191406	41722.386719	75.587944
529.890503	735.522644	55554.355469	42423.136719	76.046150
530.238770	733.367920	55617.519531	42530.582031	76.155342
530.586914	727.869446	55199.265625	42068.121094	75.893501
530.934998	733.888000	54266.921875	41081.675781	75.369888
531.283142	736.265625	52922.113281	39753.214844	74.765381
531.631226	733.665039	51090.777344	38035.339844	74.074295
531.979248	728.983948	49128.292969	36281.050781	73.455734
532.327148	730.767273	47236.843750	34635.472656	72.903816
532.675110	740.055115	45791.355469	33387.480469	72.467224
533.023071	737.751709	44954.332031	32731.611328	72.357155
533.370850	730.841614	44613.433594	32473.111328	72.334534
533.718689	726.903564	44792.425781	32638.287109	72.418030
534.066467	728.018066	45085.550781	32819.957031	72.348343
534.414246	728.984070	45349.105469	32972.351563	72.261948
534.761963	738.494812	45382.468750	33019.753906	72.308212
535.109619	743.770203	45253.925781	32960.906250	72.381538
535.457153	750.308899	44795.843750	32661.765625	72.451057
535.804749	735.968506	44069.761719	32150.937500	72.495316
536.152344	736.414307	43134.136719	31495.365234	72.548592
536.499817	727.275085	42194.804688	30746.541016	72.392220
536.847229	728.315247	41231.546875	29959.302734	72.169525
537.194641	724.154358	40327.281250	29243.396484	72.012604
537.542114	730.024231	39641.023438	28764.515625	72.047729
537.889404	737.380188	39143.042969	28406.453125	72.044250
538.236694	726.383362	38791.964844	28126.255859	71.980705
538.583984	726.754883	38457.675781	27913.156250	72.053375
538.931213	721.405090	38249.035156	27750.580078	72.024734
539.278381	730.990173	38049.308594	27601.976563	72.004814
539.625488	729.355530	37956.949219	27511.548828	71.941780
539.972595	724.674500	38034.824219	27633.257813	72.121353
540.319641	723.336975	38494.386719	27955.732422	72.098587
540.666687	726.011902	39265.050781	28522.140625	72.124603
541.013611	728.686768	40372.753906	29301.279297	72.072807
541.360596	733.442200	41650.613281	30271.375000	72.189575
541.707458	724.377197	43123.292969	31315.251953	72.150139
542.054260	730.990234	44394.984375	32306.078125	72.313789
542.401062	723.485657	45575.953125	33199.871094	72.407127
542.747864	727.200745	46334.511719	33827.503906	72.576752
543.094666	717.467041	46647.250000	34053.089844	72.579536
543.441284	717.318542	46362.222656	33877.433594	72.648010
543.787903	719.696106	45553.957031	33362.738281	72.808250
544.134460	724.154297	44453.167969	32559.898438	72.802338
544.481079	732.253357	43027.292969	31495.958984	72.735962
544.827637	728.018066	41479.121094	30245.072266	72.432533
545.174072	734.110901	39788.363281	28994.333984	72.361443
545.520508	730.544434	38336.265625	27904.537109	72.260262
545.866943	730.692932	37083.968750	27017.062500	72.308113
546.213318	729.429749	36236.027344	26390.990234	72.272652
546.559631	732.847656	35457.035156	25847.318359	72.325584
546.905823	737.082947	34814.988281	25387.306641	72.334915
547.252136	744.736145	34274.878906	24970.916016	72.251938
547.598389	736.711426	33827.800781	24643.835938	72.246414
547.944458	737.677429	33484.000000	24399.974609	72.259399
548.290588	729.504150	32998.953125	24063.679688	72.310425
548.636658	733.070618	32481.287109	23694.320313	72.322960
548.982727	729.281189	31853.130859	23202.734375	72.206535
549.328735	723.931396	31224.828125	22737.523438	72.173592
549.674622	721.330811	30495.101563	22180.849609	72.075249
550.020569	729.281189	29762.625000	21667.416016	72.117546
550.366455	732.624817	28981.255859	21068.240234	71.987968
550.712280	738.494690	28259.107422	20591.513672	72.138725
551.058044	736.562927	27687.125000	20173.412109	72.120384
551.403748	740.203796	27234.101563	19859.779297	72.165962
551.749512	729.875671	26914.525391	19618.220703	72.135185
552.095154	723.634094	26700.162109	19394.570313	71.876183
552.440735	728.538147	26602.453125	19348.798828	71.965378
552.786316	735.002441	26620.658203	19320.937500	71.800133
553.131897	740.798096	26634.626953	19395.685547	72.043755
553.477417	729.801270	26668.656250	19387.437500	71.929298
553.822815	724.823059	26664.197266	19410.470703	72.035851
554.168213	717.987244	26636.412109	19363.064453	71.937538
554.513672	715.906738	26573.994141	19362.916016	72.112869
554.859009	723.262695	26448.275391	19273.531250	72.109856
555.204285	727.795105	26300.041016	19202.794922	72.246292
555.549500	732.922058	26112.056641	19033.386719	72.108307
555.894714	731.584534	25870.423828	18843.320313	72.046829
556.239990	726.457703	25560.431641	18616.027344	72.036674
556.585022	728.315247	25300.671875	18434.951172	72.059166
556.930115	725.640381	25027.906250	18240.500000	72.070892
557.275146	727.497986	24797.937500	18084.835938	72.110596
557.620178	730.470032	24524.208984	17915.574219	72.225319
557.965149	736.265625	24315.712891	17778.857422	72.277313
558.310059	741.466858	24132.187500	17633.373047	72.216270
558.654968	746.965271	23998.146484	17518.279297	72.131020
558.999756	743.844543	23885.054688	17458.833984	72.230408
559.344604	740.278015	23818.779297	17420.345703	72.275352
559.689331	730.024231	23758.218750	17331.779297	72.093170
560.033997	733.442200	23716.460938	17264.832031	71.928719
560.378723	731.658875	23706.802734	17219.953125	71.765793
560.723389	728.686768	23692.388672	17249.673828	71.943916
561.067932	725.343079	23742.171875	17276.498047	71.908928
561.412476	719.919006	23705.541016	17278.205078	72.037582
561.757019	722.371033	23691.572266	17277.017578	72.073235
562.101501	718.804504	23686.593750	17255.765625	72.000664
562.445862	723.485596	23697.812500	17246.998047	71.921638
562.790222	717.838623	23712.671875	17251.681641	71.902428
563.134644	719.770508	23664.302734	17253.091797	72.057785
563.478943	726.234802	23680.646484	17271.593750	72.079208
563.823181	736.042786	23660.806641	17256.361328	72.063202
564.167358	740.575195	23717.279297	17278.501953	71.976929
564.511536	737.454529	23745.515625	17318.330078	72.065506
564.855774	738.420410	23780.509766	17331.556641	72.012291
565.199768	726.977844	23844.781250	17380.595703	72.038063
565.543823	725.640381	23940.115234	17446.205078	72.026459
565.887817	719.250305	24158.416016	17629.955078	72.147217
566.231812	724.971619	24335.775391	17780.863281	72.237656
566.575745	727.126404	24555.859375	17876.712891	71.970200
566.919617	718.135742	24745.779297	17970.929688	71.803932
567.263428	711.225647	24902.705078	18083.423828	71.811226
567.607239	711.374207	25003.607422	18223.484375	72.089340
567.950989	717.689941	25040.240234	18278.468750	72.199577
568.294678	733.590759	25120.562500	18338.951172	72.191666
568.638367	731.881836	25073.525391	18297.638672	72.163399
568.981995	743.324402	24971.435547	18223.558594	72.148567
569.325623	741.689758	24779.806641	18075.029297	72.107727
569.669128	740.129395	24643.166016	17931.031250	71.919319
570.012573	728.315247	24510.460938	17824.181641	71.885300
570.356140	721.702332	24422.041016	17774.029297	71.949715
570.699524	722.816895	24351.525391	17757.533203	72.093300
571.042908	729.801270	24393.658203	17810.289063	72.179642
571.386230	737.305969	24487.724609	17865.419922	72.117104
571.729492	739.014893	24679.054688	17986.681641	72.045273
572.072815	735.596924	24842.593750	18106.976563	72.059494
572.416016	732.550537	24971.656250	18197.107422	72.051163
572.759094	728.463867	25106.814453	18315.693359	72.142822
573.102234	729.132568	25199.990234	18360.500000	72.050468
573.445374	729.652649	25292.794922	18424.250000	72.037193
573.788391	734.631042	25294.501953	18438.070313	72.082787
574.131409	738.123230	25290.119141	18470.318359	72.223030
574.474365	741.392578	25272.287109	18448.398438	72.182472
574.817261	737.528809	25162.689453	18374.246094	72.207169
575.160156	740.129395	24992.091797	18245.181641	72.179939
575.502930	734.854004	24784.562500	18070.349609	72.081940
575.845703	735.745605	24590.859375	17890.458984	71.912102
576.188477	738.494812	24387.490234	17715.328125	71.786697
576.531250	738.048889	24112.867188	17545.099609	71.902382
576.873901	741.838379	23848.275391	17379.925781	72.006287
577.216431	736.711487	23600.255859	17220.919922	72.098221
577.559082	735.448425	23377.345703	17062.431641	72.109612
577.901611	730.024231	23079.166016	16859.509766	72.170486
578.244080	729.801270	22759.890625	16615.203125	72.107750
578.586487	729.206848	22433.179688	16371.268555	72.070038
578.928955	797.045349	22146.890625	16191.973633	72.107918
579.271301	800.388916	21777.458984	15981.698242	72.370972
579.613647	802.617981	21387.443359	15721.489258	72.475090
579.955872	737.380188	20994.751953	15430.817383	72.533783
580.298157	731.361633	20723.623047	15214.151367	72.441978
580.640320	732.104675	20454.572266	15053.508789	72.614670
580.982483	728.166687	20238.574219	14907.207031	72.674232
581.324524	732.253235	20023.542969	14763.504883	72.733612
581.666626	728.761047	19899.679688	14637.339844	72.550407
582.008728	735.745605	19794.171875	14532.274414	72.390709
582.350647	728.761047	19709.167969	14425.206055	72.160973
582.692566	729.727051	19622.904297	14340.722656	72.041855
583.034424	728.463867	19510.111328	14262.706055	72.060989
583.376343	731.435974	19364.923828	14198.432617	72.273087
583.718201	731.733215	19282.820313	14177.702148	72.480759
584.059937	731.064453	19200.046875	14122.940430	72.510094
584.401611	727.572205	19140.902344	14053.168945	72.369293
584.743347	732.922058	19049.212891	13989.715820	72.377068
585.085022	729.652649	18964.361328	13935.772461	72.422981
585.426514	732.401917	18878.837891	13892.007813	72.518951
585.768127	729.281250	18775.332031	13811.018555	72.490860
586.109619	729.281250	18713.435547	13749.867188	72.400322
586.451172	732.624817	18675.023438	13709.520508	72.325310
586.792542	727.720886	18636.310547	13693.471680	72.399620
587.133850	733.962219	18577.613281	13682.252930	72.565262
587.475220	728.463867	18560.152344	13674.895508	72.603516
587.816589	729.801331	18608.966797	13659.441406	72.316795
588.157776	723.485657	18645.078125	13669.545898	72.237228
588.498962	729.206848	18694.859375	13696.293945	72.177101
588.840210	731.510254	18665.513672	13777.061523	72.741989
589.181335	738.420410	18747.320313	13833.531250	72.714661
589.522400	739.832214	18802.154297	13864.143555	72.661263
589.863403	738.123230	18871.851563	13856.937500	72.344826
590.204407	737.083008	18850.228516	13848.467773	72.386024
590.545410	729.801270	18881.287109	13904.195313	72.580254
590.886353	730.172852	18905.361328	13907.463867	72.501541
591.227112	730.024231	18919.033203	13903.747070	72.426826
591.567932	727.943848	18868.208984	13831.895508	72.236824
591.908752	726.234863	18819.392578	13789.840820	72.201912
592.249512	723.188416	18784.619141	13784.268555	72.314758
592.590149	732.179016	18671.308594	13732.703125	72.470207
592.930786	741.541199	18546.035156	13684.851563	72.696877
593.271423	744.290344	18449.142578	13613.002930	72.684669
593.612000	739.757874	18403.373047	13561.288086	72.587234
593.952576	730.915833	18387.250000	13539.293945	72.542679
594.292969	724.080017	18392.673828	13533.348633	72.497383
594.633484	726.606262	18451.593750	13575.403320	72.489731
594.973877	729.206848	18548.857422	13612.257813	72.296875
595.314209	729.652771	18685.052734	13674.004883	72.091698
595.654480	725.417480	18847.628906	13803.440430	72.165718
595.994812	729.727051	19050.697266	13957.468750	72.200005
596.335022	725.937561	19240.021484	14107.114258	72.275665
596.675171	729.875549	19390.708984	14204.301758	72.206985
597.015320	722.965393	19559.001953	14333.217773	72.256454
597.355408	730.767273	19718.529297	14419.409180	72.091919
597.695496	732.327637	19851.236328	14506.195313	72.043167
598.035461	730.172852	19859.408203	14495.792969	71.961166
598.375366	730.172852	19833.550781	14511.840820	72.142570
598.715271	727.720886	19771.804688	14494.083008	72.286819
599.055176	735.374023	19595.113281	14399.718750	72.452461
599.395081	734.556641	19376.960938	14236.252930	72.424652
599.734802	732.773438	19085.544922	14013.195313	72.361938
600.074524	731.064514	18749.474609	13759.750000	72.307632
600.414246	735.448303	18356.634766	13470.191406	72.269501
600.753906	734.853943	17994.410156	13193.265625	72.182686
601.093506	737.157227	17678.548828	12968.574219	72.198425
601.433044	736.562805	17416.781250	12831.040039	72.507904
601.772583	739.757813	17216.683594	12733.257813	72.789673
602.112122	740.798096	17199.148438	12665.047852	72.451065
602.451538	737.008606	17241.128906	12642.237305	72.134880
602.790894	730.098633	17330.291016	12688.004883	72.034752
603.130310	720.587830	17451.404297	12845.082031	72.468033
603.469604	710.631287	17605.064453	12994.653320	72.710472
603.808838	715.163757	17861.333984	13162.653320	72.596329
604.148010	715.535217	18121.244141	13305.760742	72.333885
604.487305	717.095520	18413.626953	13494.043945	72.200294
604.826416	714.792175	18645.525391	13682.773438	72.322655
605.165527	714.569153	18881.957031	13872.393555	72.425514
605.504456	716.723938	19060.580078	13994.323242	72.381729
605.843445	717.689941	19186.595703	14048.414063	72.179283
606.182434	723.931396	19228.650391	14077.541992	72.163269
606.521423	726.383484	19161.630859	14061.195313	72.333237
606.860229	723.931458	18998.833984	13994.323242	72.615387
607.199036	718.953125	18767.158203	13845.940430	72.732925
607.537903	721.999512	18534.068359	13659.812500	72.635094
607.876648	732.401917	18237.826172	13458.453125	72.697762
608.215271	735.968445	17940.093750	13237.179688	72.664032
608.553955	735.374023	17650.091797	13017.984375	72.614922
608.892578	732.401917	17429.041016	12820.562500	72.398766
609.231140	736.860107	17280.658203	12687.709961	72.237640
609.569641	736.785828	17183.619141	12628.194336	72.302109
609.908081	739.014832	17158.802734	12622.398438	72.372337
610.246521	733.887939	17133.837891	12645.953125	72.634773
610.584961	739.534912	17182.951172	12677.010742	72.597298
610.923340	736.339905	17233.031250	12674.484375	72.366905
611.261597	742.507080	17194.021484	12642.237305	72.332130
611.599854	740.278015	17100.548828	12563.030273	72.265015
611.938110	735.374023	16970.146484	12497.867188	72.452469
612.276245	732.401917	16797.986328	12372.741211	72.455124
612.614319	724.823059	16503.005859	12202.958008	72.746872
612.952393	725.194519	16166.414063	11944.682617	72.659340
613.290466	720.810730	15868.237305	11696.289063	72.457710
613.628479	727.572266	15576.895508	11463.276367	72.297600
613.966370	740.872375	15315.203125	11262.137695	72.190384
614.304260	742.729980	15034.338867	11084.405273	72.361870
614.642151	741.541199	14819.456055	10924.729492	72.334496
614.979980	725.268860	14630.726563	10798.339844	72.439697
615.317749	725.417480	14506.565430	10661.547852	72.099442
615.655396	725.343201	14423.049805	10598.020508	72.075401
615.993164	727.869446	14358.554688	10557.154297	72.111450
616.330811	718.507324	14298.815430	10555.296875	72.434212
616.668396	713.380371	14237.738281	10537.239258	72.638268
617.005859	719.027344	14179.782227	10484.856445	72.550385
617.343445	728.389587	14173.690430	10463.160156	72.402771
617.680908	727.646545	14197.391602	10426.455078	72.004395
618.018311	726.383362	14223.843750	10460.485352	72.118027
618.355652	731.361633	14215.223633	10482.850586	72.319702
618.692993	738.420471	14211.657227	10499.345703	72.446770
619.030273	737.603088	14227.558594	10508.708008	72.432449
619.367554	733.293518	14280.165039	10514.502930	72.202721
619.704712	733.665039	14295.695313	10525.872070	72.203102
620.041870	734.556702	14257.799805	10511.903320	72.300308
620.379028	732.624817	14173.317383	10489.463867	72.591789
620.716064	734.036621	14117.144531	10452.608398	72.618202
621.053040	728.166687	14069.887695	10408.472656	72.556648
621.389954	734.705261	14025.382813	10358.245117	72.408195
621.726929	732.030334	13949.073242	10305.192383	72.430435
622.063843	732.253357	13883.463867	10263.657227	72.475487
622.400635	721.999512	13824.616211	10243.670898	72.669998
622.737427	722.148132	13785.383789	10222.494141	72.725822
623.074219	725.640381	13766.437500	10165.950195	72.390587
623.410889	729.949951	13719.922852	10102.867188	72.155014
623.747559	728.835449	13670.140625	10084.365234	72.292007
624.084167	731.881836	13607.875000	10088.674805	72.668518
624.420715	730.098572	13586.178711	10066.831055	72.625031
624.757324	726.977844	13596.358398	10046.100586	72.413139
625.093750	722.668274	13611.590820	10058.731445	72.434784
625.430176	718.210144	13643.614258	10117.207031	72.717239
625.766602	726.977844	13658.622070	10157.180664	72.923462
626.102905	722.222473	13729.285156	10209.491211	72.939362
626.439209	723.708496	13829.221680	10247.237305	72.668114
626.775452	716.129700	13960.589844	10307.199219	72.415710
627.111694	719.027405	14049.010742	10341.229492	72.184654
627.447876	725.789001	14134.903320	10413.526367	72.247406
627.783997	730.395691	14174.804688	10463.382813	72.394310
628.120056	727.869446	14260.921875	10548.088867	72.564705
628.456055	730.247131	14262.036133	10535.753906	72.462753
628.792053	730.321472	14276.375977	10539.989258	72.417160
629.128052	732.104675	14174.953125	10460.485352	72.368446
629.463928	735.002625	14098.273438	10410.108398	72.400734
629.799744	730.024231	13989.940430	10317.452148	72.303833
630.135559	733.442200	13877.965820	10243.149414	72.347298
630.471375	728.240967	13722.375000	10133.033203	72.377213
630.807068	732.030457	13523.467773	10011.696289	72.545921
631.142700	731.881836	13382.812500	9913.692383	72.578140
631.478333	729.504150	13229.004883	9803.797852	72.597252
631.813965	729.949951	13121.860352	9698.362305	72.373123
632.149475	730.990234	12980.090820	9569.000977	72.152321
632.484924	736.711487	12904.747070	9518.996094	72.175041
632.820435	734.705322	12830.593750	9472.630859	72.238808
633.155884	738.271790	12780.141602	9414.600586	72.051346
633.491150	739.460693	12724.934570	9354.341797	71.877686
633.826477	739.906494	12634.583008	9314.217773	72.085281
634.161804	735.596924	12549.135742	9281.301758	72.338234
634.497009	730.395813	12457.445313	9236.050781	72.530220
634.832153	728.835449	12393.397461	9166.875977	72.339111
635.167297	733.516541	12338.264648	9119.322266	72.261848
635.502380	737.528809	12270.574219	9063.000000	72.187965
635.837463	740.723816	12204.000000	9019.831055	72.222870
636.172424	737.677429	12114.984375	8955.780273	72.232407
636.507324	734.631042	12030.278320	8896.041992	72.252708
636.842224	737.454529	11902.477539	8827.385742	72.457809
637.177124	733.070618	11767.620117	8738.965820	72.552986
637.511963	725.045898	11647.992188	8648.390625	72.538528
637.846741	719.993408	11529.702148	8545.333008	72.391769
638.181396	714.494934	11426.049805	8470.212891	72.405151
638.516113	714.643616	11306.570313	8393.681641	72.498970
638.850769	718.507324	11224.911133	8330.226563	72.448372
639.185303	722.445313	11119.179688	8257.336914	72.473640
639.519836	727.497986	11047.105469	8194.178711	72.354309
639.854370	724.971680	10943.007813	8122.104980	72.392906
640.188843	730.024170	10866.772461	8065.560547	72.365776
640.523254	731.733215	10762.600586	8010.353516	72.562225
640.857605	731.213074	10663.481445	7955.294922	72.733452
641.191895	729.355469	10588.063477	7902.094238	72.755363
641.526184	729.206848	10523.569336	7839.234375	72.593063
641.860413	734.185242	10488.125977	7791.160156	72.349991
642.194580	732.104675	10429.426758	7755.197754	72.423019
642.528748	729.206848	10351.631836	7701.031250	72.453926
642.862793	727.200745	10273.911133	7661.130371	72.631615
643.196838	730.321472	10221.602539	7607.484375	72.457687
643.530823	732.030457	10177.837891	7580.215332	72.499733
643.864746	723.262695	10138.458008	7534.593262	72.344017
644.198669	730.395752	10082.285156	7506.654785	72.458710
644.532532	730.247131	10023.585938	7460.142090	72.416328
644.866333	737.305908	9978.038086	7435.845215	72.489265
645.200073	736.562927	9941.109375	7417.195313	72.579697
645.533813	740.798157	9943.413086	7408.650391	72.456055
645.867554	741.318298	9929.370117	7388.067871	72.341225
646.201172	737.900330	9927.883789	7374.693848	72.217690
646.534729	742.729980	9908.713867	7389.776855	72.518639
646.868225	740.278015	9931.524414	7408.724121	72.552147
647.201782	737.380188	9905.444336	7408.724609	72.767204
647.535217	730.841614	9930.929688	7394.829590	72.433960
647.868591	740.872498	9939.178711	7378.482910	72.161224
648.201965	748.079773	9970.236328	7381.009277	71.923851
648.535278	747.262451	9943.933594	7382.049316	72.143356
648.868591	735.596985	9924.540039	7404.935059	72.580032
649.201782	724.302917	9884.937500	7385.467285	72.715096
649.534912	723.485657	9870.968750	7375.585449	72.720543
649.868103	719.919128	9823.117188	7336.725098	72.686607
650.201172	726.977783	9800.231445	7322.161621	72.688187
650.534180	729.949890	9748.591797	7288.799316	72.725471
650.867188	743.547363	9723.848633	7250.607910	72.459274
651.200134	737.454407	9680.083984	7227.202637	72.570915
651.533020	730.098450	9632.009766	7197.556152	72.652458
651.865845	731.510254	9583.936523	7178.014160	72.821892
652.198608	737.157288	9553.398438	7121.841309	72.419571
652.531433	746.147949	9514.315430	7092.640137	72.381050
652.864136	735.225403	9462.005859	7054.968750	72.417809
653.196777	1034.145264	9759.588867	7360.873047	72.508949
653.529358	1049.080078	9734.844727	7348.464844	72.525391
653.861938	1052.498047	9686.919922	7302.917480	72.389557
654.194519	757.516296	9288.433594	6937.794434	72.445648
654.526978	739.014893	9224.310547	6873.670410	72.297485
654.859375	734.779602	9177.722656	6830.277344	72.196358
655.191833	734.556641	9124.001953	6806.203125	72.372444
655.524170	733.367859	9082.243164	6774.030762	72.353020
655.856445	736.711426	9039.223633	6755.157715	72.489464
656.188660	740.500916	9016.263672	6735.170410	72.436462
656.520874	743.472961	8991.372070	6686.873047	72.059555
656.853088	739.014893	8974.653320	6688.656738	72.242622
657.185181	731.138733	8973.465820	6664.359375	71.984779
657.517212	729.429871	8993.081055	6702.179688	72.277374
657.849243	735.448303	9005.935547	6717.114746	72.325439
658.181274	730.990173	9027.631836	6765.485840	72.734200
658.513123	727.200684	9069.687500	6802.859375	72.827911
658.844971	732.476257	9149.340820	6846.996094	72.646057
659.176819	732.699158	9224.906250	6898.562012	72.606133
659.508667	735.374023	9289.400391	6962.536621	72.798027
659.840393	727.126404	9372.025391	6997.979004	72.538177
660.172058	729.652771	9444.397461	7039.514160	72.404427
660.503662	732.699219	9503.020508	7056.232422	72.101501
660.835266	729.801331	9535.565430	7095.835938	72.293953
661.166931	735.151123	9495.813477	7063.216797	72.232727
661.498413	734.928223	9468.321289	7040.107910	72.196228
661.829773	738.197510	9392.977539	6966.251465	71.960854
662.161194	734.556702	9293.709961	6910.599121	72.157166
662.492615	728.166687	9160.930664	6800.110840	72.004204
662.823975	733.219238	8978.294922	6675.059082	72.065315
663.155212	734.853943	8839.200195	6543.394531	71.671921
663.486450	745.479187	8660.725586	6421.984375	71.716087
663.817627	748.005554	8515.612305	6344.857422	72.053749
664.148743	754.469910	8368.715820	6272.115234	72.464767
664.479858	746.147949	8266.327148	6219.138184	72.777390
664.810913	743.250183	8183.404297	6153.974609	72.723282
665.141907	735.448303	8119.727051	6078.408691	72.355888
665.472778	738.791931	8027.517578	6020.154785	72.459343
665.803711	746.965271	7964.657715	5990.210938	72.644348
666.134583	749.268616	7915.988770	5978.173828	72.960922
666.465454	749.045715	7897.264160	5954.322754	72.819221
666.796143	743.844543	7862.861816	5916.577637	72.660774
667.126831	744.587585	7848.894043	5895.698730	72.506882
667.457458	747.113831	7827.865723	5880.243652	72.494133
667.788147	738.866272	7812.782715	5859.810059	72.391914
668.118774	735.448303	7773.848145	5845.246094	72.598854
668.449219	736.117004	7765.303223	5828.008301	72.439270
668.779663	744.290344	7767.531738	5824.962402	72.340843
669.110107	739.312073	7762.033691	5806.609375	72.155746
669.440552	731.064453	7736.770996	5785.581543	72.148567
669.770874	726.457703	7685.947754	5767.303223	72.431252
670.101135	726.977783	7647.459473	5733.718750	72.346718
670.431396	731.584534	7605.924316	5720.343750	72.570740
670.761597	728.463867	7573.899902	5686.981934	72.435387
671.091797	729.801270	7545.070313	5678.287598	72.608818
671.421875	724.748779	7489.268066	5639.724609	72.658165
671.751892	723.857117	7467.645996	5618.325684	72.577431
672.081909	729.652649	7449.145020	5606.064941	72.571144
672.411865	728.240967	7412.513672	5589.272949	72.723427
672.741821	735.596924	7367.561035	5552.493652	72.631523
673.071716	733.145020	7306.707031	5487.701660	72.328468
673.401550	744.216064	7287.685547	5451.665527	71.941177
673.731262	733.665039	7238.570801	5433.163574	72.245453
674.060974	727.274963	7200.602051	5416.148438	72.433746
674.390625	722.742615	7193.617676	5404.259766	72.347511
674.720276	724.228577	7170.806641	5378.179688	72.192581
675.049927	735.002502	7135.810059	5354.105469	72.164375
675.379395	733.293518	7056.306152	5315.170898	72.463516
675.708923	737.157227	6995.824219	5278.020020	72.553192
676.038330	729.652649	6937.273438	5242.279785	72.694954
676.367737	731.584534	6894.994629	5208.174805	72.631714
676.697083	736.265625	6859.404297	5195.097656	72.819389
677.026428	742.655762	6824.407715	5165.525391	72.723610
677.355652	737.454529	6804.271973	5148.212891	72.703003
677.684875	735.299744	6808.878418	5121.983887	72.225693
678.013977	731.213074	6827.231934	5129.710938	72.153610
678.343079	734.705322	6847.292969	5136.695801	72.015167
678.672180	729.355469	6846.029785	5152.448242	72.312050
679.001221	726.383362	6865.720215	5165.079590	72.299278
679.330139	726.531982	6897.149902	5176.967285	72.123009
679.659058	731.064453	6932.592285	5189.376465	71.890541
679.987976	732.847839	6975.464844	5217.239746	71.835129
680.316772	732.030457	7015.514160	5252.236328	71.937897
680.645630	728.018066	7062.102051	5292.285645	72.058846
680.974304	729.355530	7087.142090	5312.867188	72.092880
681.302979	729.578430	7110.398926	5360.495605	72.575577
681.631653	726.606262	7145.395996	5369.857910	72.338425
681.960266	719.473206	7175.414063	5404.408203	72.567810
682.288757	721.330811	7194.360840	5393.040039	72.171898
682.617249	728.166687	7185.890137	5394.080078	72.253227
682.945679	732.624817	7172.664551	5370.080566	72.009735
683.274109	732.847717	7138.187988	5361.089844	72.255989
683.602478	729.875671	7092.269043	5333.077637	72.350166
683.930725	727.795105	7037.062012	5287.084473	72.263382
684.259033	727.572205	6956.740723	5223.555176	72.176292
684.587280	727.720764	6865.126465	5171.171875	72.399498
684.915344	737.603088	6772.395996	5108.386230	72.426399
685.243469	736.340027	6707.826660	5064.548340	72.481255
685.571533	739.386414	6649.053223	5008.523438	72.239891
685.899536	730.692932	6582.329590	4959.409668	72.265541
686.227539	724.080078	6506.763672	4901.527832	72.240639
686.555420	720.067688	6462.479004	4882.060547	72.478142
686.883301	714.569153	6441.748535	4879.756836	72.726685
687.211121	716.723938	6441.451660	4879.905762	72.722794
687.538940	713.826172	6452.968750	4866.233887	72.352409
687.866638	723.188416	6461.735840	4875.001465	72.349548
688.194336	725.120300	6476.002441	4881.020020	72.265434
688.521973	728.612488	6473.104004	4898.927246	72.596764
688.849609	728.983948	6435.284668	4870.023438	72.569595
689.177063	737.305908	6396.201172	4845.429199	72.595848
689.504578	740.946716	6342.851563	4803.150879	72.514694
689.832031	738.643372	6295.966797	4765.627930	72.462669
690.159485	735.968506	6205.392090	4726.173340	72.954758
690.486816	730.841553	6133.838379	4668.811035	72.884911
690.814087	737.231628	6075.287598	4626.755859	72.864052
691.141296	729.801331	5997.864746	4540.193359	72.330032
691.468506	730.470154	5878.756348	4461.283691	72.467094
691.795715	723.039795	5775.179199	4384.455078	72.472565
692.122803	728.166687	5709.421387	4342.548340	72.559662
692.449829	737.751648	5676.951172	4303.762207	72.198143
692.776855	746.742371	5615.726074	4251.675781	71.984901
693.103821	746.073547	5542.982910	4207.614258	72.161896
693.430664	733.739441	5460.878418	4154.785156	72.370316
693.757568	726.383484	5392.816895	4122.166016	72.770401
694.084351	724.897400	5340.953613	4089.473389	72.888542
694.411133	731.733215	5305.362793	4066.662354	72.916473
694.737854	735.522644	5260.781250	4029.808350	72.797729
695.064575	737.380188	5249.041016	3997.263672	72.254623
695.391174	731.956055	5217.388184	3982.700195	72.473373
695.717773	725.417480	5205.797363	3978.390625	72.604851
696.044250	721.033630	5184.546875	3988.421143	73.202148
696.370789	723.485596	5194.800781	3982.625732	72.889961
696.697205	722.371094	5208.917969	3996.966064	72.986977
697.023621	730.618652	5264.273926	3997.412109	72.056503
697.349915	733.962219	5302.836426	4034.117920	72.231270
697.676208	739.757874	5381.226074	4074.018311	71.836334
698.002380	735.448303	5442.823242	4136.952637	72.259048
698.328674	738.866211	5535.552734	4208.431641	72.332542
698.654724	739.980774	5632.889160	4291.576660	72.586601
698.980896	737.454529	5748.429688	4375.910156	72.609734
699.306946	733.888000	5836.479004	4444.491699	72.719994
699.632935	730.247131	5906.397949	4484.912109	72.537781
699.958862	731.956116	5944.589355	4493.903320	72.169807
700.284729	725.863281	5948.601563	4497.989746	72.225075
700.610596	723.559875	5908.701172	4467.896973	72.212830
700.936340	724.228699	5846.583984	4426.732910	72.281281
701.262146	727.572266	5760.244141	4328.505371	71.551117
701.587830	730.098572	5638.462402	4246.251953	71.635956
701.913513	734.779602	5479.900391	4149.286621	71.958275
702.239075	728.092468	5337.313477	4073.052002	72.571037
702.564697	729.652771	5215.531250	3981.436768	72.489349
702.890137	727.943665	5078.145020	3890.416016	72.697151
703.215698	735.968445	4946.554688	3806.082764	72.914169
703.541016	735.968445	4843.645508	3734.751953	73.004356
703.866455	734.333801	4767.856934	3667.731201	72.725441
704.191711	736.414307	4708.340332	3603.236328	72.177124
704.517029	738.940613	4631.437012	3547.731689	72.159119
704.842163	736.860046	4569.542969	3508.277100	72.310104
705.167419	733.516418	4529.122559	3484.649170	72.482040
705.492493	728.983948	4490.113281	3453.293213	72.433281
705.817566	730.618652	4453.927734	3412.426758	72.027542
706.142578	736.860046	4414.918945	3381.739502	71.909653
706.467590	750.754700	4403.476563	3367.399414	71.635475
706.792480	753.355286	4384.455078	3364.427002	71.908562
707.117371	744.513245	4384.975098	3361.826416	71.895088
707.442200	732.327637	4376.728027	3364.724365	72.231270
707.766907	727.646545	4376.801758	3361.603516	72.179909
708.091675	727.943665	4369.520020	3348.303467	71.956749
708.416321	734.482361	4362.609863	3343.993896	71.924469
708.741028	736.711487	4372.343262	3363.164063	72.241989
709.065552	745.256287	4394.336914	3381.887939	72.254684
709.390137	737.305908	4412.764160	3404.253174	72.560944
709.714600	745.181946	4441.074219	3420.897217	72.397003
710.039063	740.798157	4457.717773	3448.315186	72.843033
710.363403	745.107727	4486.695801	3459.757813	72.553421
710.687744	733.442139	4531.797363	3479.967773	72.308289
711.012085	731.510254	4575.189941	3504.413330	72.141884
711.336304	727.646667	4641.394043	3546.096924	72.014107
711.660461	731.584656	4685.232910	3562.815430	71.610588
711.984619	731.138733	4715.845703	3592.313721	71.803902
712.308716	725.194580	4719.485840	3606.208252	72.128281
712.632751	716.946960	4730.110840	3620.177002	72.342674
712.956726	719.324646	4712.204102	3600.115234	72.148201
713.280701	723.485596	4681.517090	3567.719482	71.859810
713.604553	736.860107	4622.297363	3532.202881	71.944099
713.928467	729.132629	4588.564453	3499.063721	71.770439
714.252258	726.086182	4534.100586	3452.550537	71.598061
714.575989	726.754883	4461.655762	3408.117432	71.792068
714.899719	728.092468	4388.244629	3362.718506	71.981323
715.223267	732.550537	4335.860840	3343.250977	72.452835
715.546936	726.977844	4297.892090	3327.052979	72.812592
715.870422	728.018066	4255.168457	3314.124268	73.319984
716.193970	730.395752	4214.301758	3281.282471	73.219162
716.517395	729.058289	4195.057129	3249.926758	72.731369
716.840820	731.213074	4180.494141	3218.273682	72.103737
717.164124	733.590759	4153.745605	3198.657959	72.074722
717.487488	739.312073	4108.717773	3173.171875	72.234100
717.810730	737.008728	4063.318604	3153.778564	72.656181
718.133972	732.179016	4012.346924	3115.067139	72.645309
718.457092	725.937561	3966.056396	3079.773438	72.646591
718.780212	734.110901	3924.149658	3031.625000	72.021507
719.103210	728.166687	3868.273682	3001.532471	72.397720
719.426208	729.206848	3818.342529	2958.437256	72.163567
719.749207	724.748718	3769.748291	2928.121338	72.360359
720.072083	732.327637	3724.498047	2890.524414	72.128136
720.394958	735.299744	3674.864014	2860.431885	72.294121
720.717773	732.773438	3621.069092	2821.719971	72.324539
721.040527	732.104675	3601.824219	2787.169189	71.612030
721.363281	725.789001	3573.143555	2768.296143	71.733505
721.685913	728.909668	3547.063232	2757.745361	71.991669
722.008545	732.550537	3501.738525	2735.751953	72.338943
722.331055	737.305847	3460.352295	2717.473389	72.718834
722.653503	741.020996	3428.178955	2683.888672	72.301956
722.976013	745.479248	3410.272217	2677.052734	72.484940
723.298401	740.055115	3407.002686	2668.062012	72.292641
723.620789	737.305908	3397.120361	2665.833008	72.506073
723.943115	726.606262	3377.875977	2656.619385	72.795807
724.265381	735.745605	3352.241455	2632.768311	72.502419
724.587585	733.070618	3335.672119	2629.052979	72.849510
724.909790	732.550537	3338.421631	2618.353516	72.367470
725.231873	721.256531	3339.015625	2621.845703	72.603668
725.553894	726.457703	3351.944336	2616.941650	72.005089
725.875916	809.751038	3434.420166	2690.798828	71.667999
726.197937	809.230957	3453.442139	2703.801758	71.649757
726.519775	802.692383	3449.355469	2706.922363	71.948334
726.841675	722.742615	3384.414795	2644.508057	72.201431
727.163513	735.894226	3390.953125	2646.142822	71.947502
727.485291	737.677429	3417.479492	2664.049805	71.884872
727.806946	738.271790	3440.141846	2683.294189	71.988007
728.128662	731.213074	3482.048584	2700.680908	71.595261
728.450256	728.686768	3503.150391	2715.987305	71.628281
728.771790	728.538147	3497.577881	2725.126709	72.104004
729.093323	737.380188	3494.679688	2735.826172	72.478378
729.414795	738.048889	3498.915039	2739.615479	72.497780
729.736145	732.699158	3527.150146	2737.238037	71.732834
730.057495	731.436035	3521.948975	2726.909424	71.509193
730.378845	733.219238	3510.729248	2715.095459	71.354424
730.700134	742.878601	3500.178467	2718.067871	71.634911
731.021301	741.466858	3495.199951	2716.433350	71.719604
731.342468	737.974609	3492.970703	2718.290771	71.880905
731.663574	733.590820	3497.503174	2718.513916	71.815704
731.984680	725.045898	3511.917969	2734.191406	72.093208
732.305664	727.423645	3536.809326	2755.293701	72.181976
732.626648	721.627991	3537.924072	2764.209717	72.527237
732.947571	720.067688	3541.490479	2762.575439	72.392830
733.268433	724.823059	3535.323486	2740.135742	71.706543
733.589233	728.612488	3529.156250	2728.024658	71.393715
733.909973	732.847839	3513.404297	2720.148438	71.471329
734.230713	733.888000	3478.927734	2718.662354	72.304031
734.551331	732.030457	3442.817139	2690.204346	72.236366
734.871948	739.832214	3397.343750	2662.638184	72.353622
735.192505	734.779602	3349.418213	2626.378418	72.346474
735.513062	744.364685	3305.133545	2600.892578	72.498848
735.833435	737.380188	3256.019531	2550.812500	72.000473
736.153931	739.163513	3213.964111	2504.819092	71.345367
736.474304	733.516541	3173.394775	2466.181641	71.014404
736.794617	738.049011	3147.909180	2449.909424	71.035675
737.114807	742.655762	3110.014893	2443.370850	71.840179
737.434998	740.723877	3101.692627	2439.061279	71.933922
737.755188	740.129395	3082.002686	2420.634033	71.758987
738.075256	734.779602	3110.683350	2430.664795	71.378532
738.395325	734.110901	3106.299561	2435.048828	71.703316
738.715271	733.442139	3129.779053	2450.058105	71.635002
739.035278	728.092346	3143.376709	2451.469971	71.352989
739.355164	738.791992	3166.335938	2460.088867	70.906929
739.675049	731.658936	3172.354736	2477.550049	71.532516
739.994873	737.900330	3159.871826	2479.481689	71.907593
740.314636	730.321472	3139.810303	2480.893555	72.653252
740.634277	730.172852	3118.930908	2472.348877	72.932297
740.953979	725.343201	3099.315186	2454.218994	72.826294
741.273499	731.361633	3084.305908	2440.027100	72.618187
741.593140	737.751709	3057.333984	2411.049072	72.137878
741.912598	741.243896	3034.151611	2381.179199	71.522079
742.232117	730.692932	2988.901123	2333.031006	70.956169
742.551453	724.748718	2941.050049	2305.316162	71.315544
742.870850	729.429749	2890.301514	2286.072021	72.037697
743.190063	739.906433	2864.815430	2268.016357	71.914131
743.509338	743.621582	2840.667236	2244.685303	71.579926
743.828552	729.875671	2820.457031	2213.849365	70.983780
744.147705	723.559875	2785.683350	2188.215088	71.026550
744.466797	722.891113	2754.104736	2162.951904	70.896568
744.785828	731.510254	2721.708740	2149.354736	71.241364
745.104858	730.767273	2706.476563	2142.667480	71.462952
745.423706	730.247070	2707.368164	2131.819336	70.889549
745.742615	729.058289	2692.433350	2119.559570	70.821991
746.061401	737.825989	2678.018799	2109.528564	70.699295
746.380249	733.813660	2651.789795	2103.361572	71.405891
746.698975	732.030457	2640.718750	2096.896973	71.508087
747.017639	720.067627	2624.892334	2092.736084	72.062721
747.336304	728.166565	2617.239014	2091.027100	72.144432
747.654907	734.110840	2605.721924	2094.296631	72.674599
747.973389	740.723877	2617.982178	2091.918945	71.977043
748.291931	739.757874	2609.511475	2088.129395	72.114929
748.610352	733.962219	2624.892334	2080.922119	71.232666
748.928711	731.881836	2623.109131	2090.581299	71.842209
749.247070	729.429871	2641.684570	2100.389160	71.693344
749.565308	733.962219	2639.752686	2099.051758	71.628525
749.883545	726.457703	2623.703369	2082.185303	71.457672
750.201782	732.699158	2612.483398	2067.176025	70.990959
750.519836	734.631042	2600.892334	2066.953125	71.389900
750.837952	742.284180	2600.818359	2059.225586	70.859146
751.155884	741.169617	2583.654297	2041.838867	70.593216
751.473877	745.404846	2560.992188	2037.232056	71.152023
751.791809	741.987000	2533.277100	2033.442505	72.096397
752.109619	735.448303	2524.063232	2031.213501	72.445168
752.427490	720.067688	2521.834229	2011.151733	71.656563
752.745300	722.073914	2516.707275	2003.944336	71.427986
753.062988	720.587708	2507.271240	1995.994141	71.384018
753.380615	728.538147	2500.360596	1998.223145	71.659836
753.698303	731.881836	2503.927246	1994.136353	71.231499
754.015808	732.847717	2509.277100	2002.012573	71.444710
754.333374	729.949951	2497.388672	2000.972290	71.913231
754.650757	722.593994	2487.729248	1999.263306	72.326996
754.968262	720.662109	2482.899658	1992.873169	72.192940
755.285583	728.909668	2492.633301	1985.963013	71.272697
755.602905	731.287354	2493.673584	1990.718384	71.461693
755.920105	731.064453	2488.249268	1980.093140	71.081238
756.237305	722.965515	2474.206055	1975.486328	71.521919
756.554443	728.018066	2458.453857	1955.350220	70.926186
756.871582	736.042725	2435.494629	1947.177124	71.266174
757.188599	743.621582	2430.219238	1945.319336	71.249817
757.505615	735.671204	2443.445068	1958.693970	71.615021
757.822510	738.866211	2453.921631	1972.217163	71.913185
758.139465	736.562805	2465.884521	1980.316284	71.921455
758.456238	737.454529	2481.636475	1980.836304	71.287392
758.773010	731.064453	2501.401123	1991.387329	71.191139
759.089783	731.807434	2528.447266	2001.938110	70.694778
759.406433	732.773438	2532.831055	2005.430298	70.700897
759.723145	732.401917	2548.360352	2010.111328	70.360062
760.039673	733.813660	2546.056885	2016.798706	70.795418
760.356201	736.117004	2547.543213	2025.566406	71.184212
760.672668	730.692932	2542.342041	2024.600586	71.421539
760.989136	728.463867	2543.753662	2015.758423	70.913994
761.305481	731.510315	2542.193359	2012.340454	70.737396
761.621826	734.556702	2551.555420	2018.359009	70.655098
761.938049	734.631042	2556.459229	2039.981079	71.650566
762.254333	735.745544	2563.220947	2053.207275	72.091896
762.570496	736.860107	2596.880127	2072.525635	71.809204
762.886597	728.092346	2658.254150	2114.283936	71.817375
763.202637	727.275085	2780.482178	2193.713623	71.421852
763.518677	723.931396	2916.010498	2288.746826	71.384987
763.834656	730.172852	3075.315186	2378.801514	70.299728
764.150574	724.823059	3192.044922	2466.404541	70.588768
764.466370	736.265625	3277.418701	2535.877686	70.818718
764.782288	732.476257	3314.867188	2584.694580	71.724937
765.097961	733.887939	3336.712158	2599.554932	71.678566
765.413696	725.268860	3308.551514	2572.136963	71.493073
765.729309	726.754883	3230.384766	2493.822021	70.580208
766.044861	727.646545	3111.129150	2408.076904	70.503151
766.360474	731.658936	2958.139893	2308.585449	70.825958
766.675903	738.940491	2817.559326	2225.143555	71.499550
766.991394	742.432800	2689.089844	2136.946289	71.636322
767.306763	736.191345	2588.929932	2069.627930	71.971115
767.622131	730.915833	2499.172119	2011.968872	72.447243
767.937378	725.640442	2429.476318	1950.892212	71.911369
768.252625	731.658936	2396.114258	1911.214478	70.867363
768.567810	737.974670	2350.492188	1871.016724	70.265404
768.882996	743.547363	2305.167480	1841.741577	70.324028
769.197998	738.271790	2238.740967	1809.568481	71.397438
769.513062	733.219299	2208.128174	1789.060913	71.586899
769.828064	731.138855	2179.075928	1768.850586	71.668289
770.142944	730.098572	2163.546631	1754.510132	71.464859
770.457825	731.733215	2125.280518	1732.442261	71.810196
770.772705	725.566101	2096.599854	1721.073853	72.610016
771.087402	730.841553	2072.302734	1699.897461	72.238831
771.402100	721.776672	2059.745850	1685.482788	72.027527
771.716736	725.566101	2044.736328	1661.037231	70.913605
772.031372	724.971680	2023.931641	1651.377930	71.319077
772.345947	731.733154	1996.068359	1644.022095	72.155624
772.660461	729.281189	1982.173828	1636.963379	72.446930
772.974854	724.080017	1965.232788	1628.938599	72.904686
773.289246	724.377258	1955.722046	1608.505371	71.801834
773.603638	729.206970	1939.226685	1597.880005	71.789986
773.917908	733.962341	1924.663574	1580.270142	71.076424
774.232178	733.665039	1921.988647	1571.948364	70.543350
774.546265	726.309082	1908.168091	1559.465454	70.495415
774.860474	714.643555	1900.960938	1544.679321	69.967430
775.174561	713.900574	1895.016602	1544.084961	70.288132
775.488586	717.021240	1888.403687	1537.323242	70.028542
775.802551	727.869446	1868.787720	1533.905273	70.647995
776.116516	724.674500	1843.227661	1521.719727	71.256798
776.430359	722.148132	1825.766479	1502.326660	70.692780
776.744202	726.383362	1826.212280	1495.862305	69.963516
777.057922	725.268860	1817.518921	1482.710815	69.346939
777.371704	729.726990	1808.305298	1487.466187	70.253510
777.685303	719.101746	1787.574829	1481.670532	71.369957
777.998962	722.148132	1772.640015	1479.812988	72.124763
778.312500	722.445313	1767.141602	1479.218628	72.439552
778.626038	727.646545	1767.141479	1470.079468	71.422470
778.939453	725.120300	1776.132202	1461.608887	70.074234
779.252869	725.268860	1779.847290	1459.379761	69.611794
779.566223	720.587830	1778.138306	1458.785278	69.802567
779.879578	726.160461	1781.259155	1466.735718	70.190147
780.192749	729.504089	1759.191284	1465.621094	71.489380
780.505920	731.956116	1755.699219	1477.063843	72.782684
780.819031	732.179016	1737.717773	1464.655273	72.844162
781.132141	740.054993	1748.268677	1459.082520	71.316978
781.445190	744.959045	1727.315430	1445.410767	71.303215
781.758118	741.838379	1724.268921	1433.893921	70.443207
782.071045	737.454590	1710.968750	1420.593750	70.172493
782.383911	731.361633	1710.745728	1407.665039	69.053947
782.696838	738.123230	1690.535522	1405.881836	70.112343
783.009583	730.990173	1671.365356	1400.680542	71.215233
783.322266	730.098572	1661.706055	1397.188477	71.606331
783.634888	720.067627	1652.046509	1390.055298	71.888718
783.947510	719.844727	1642.090210	1378.984375	71.471169
784.260132	718.878723	1626.783691	1368.433228	71.544327
784.572571	726.606262	1631.762085	1365.312622	70.563141
784.885010	722.371033	1620.319336	1369.696411	72.089378
785.197449	727.943787	1616.307129	1360.854370	71.244560
785.509766	723.411316	1607.242188	1358.402344	71.845306
785.822083	731.287354	1614.598145	1345.250732	69.507065
786.134277	733.516418	1612.963501	1354.018555	70.555939
786.446533	736.265686	1610.882935	1349.931763	70.163956
786.758606	734.333801	1600.034790	1355.801758	71.787827
787.070740	737.231628	1600.629272	1361.300171	72.280548
787.382690	743.547363	1604.641602	1359.814087	71.567863
787.694641	746.965271	1617.867554	1361.671753	70.582718
788.006653	745.702148	1636.889038	1364.049438	69.384697
788.318481	741.541199	1652.641113	1389.237915	71.089539
788.630310	737.083008	1677.086792	1412.568970	71.859917
788.942017	733.590759	1703.835571	1422.005371	70.952675
789.253784	730.247131	1724.120483	1423.342896	69.736832
789.565430	734.259460	1722.782837	1426.166504	69.993996
789.877014	736.934326	1720.925293	1427.355347	70.165382
790.188538	740.203613	1709.408569	1427.875366	70.952148
790.500061	737.157288	1695.439453	1402.538086	69.434746
790.811462	737.157227	1664.529419	1385.151245	69.874214
791.122925	742.209778	1638.969360	1362.786133	69.202087
791.434204	742.358459	1618.461792	1357.659302	70.231537
791.745483	742.432800	1596.765259	1342.650269	70.255722
792.056702	730.172852	1577.297974	1328.012573	70.572777
792.367920	732.476257	1567.564453	1306.613403	68.751678
792.678955	739.386414	1552.406738	1299.777466	68.927063
792.990112	742.655701	1554.710083	1293.387329	67.819550
793.301086	740.723816	1539.626831	1285.511353	68.191948
793.612122	732.476257	1533.013672	1282.910767	68.758125
793.922974	731.658936	1500.394897	1278.006836	71.070946
794.233826	726.977844	1495.713867	1280.533081	72.008492
794.544556	727.275085	1483.750977	1279.715698	73.028183
794.855286	725.937561	1491.924438	1277.709473	72.034119
795.166016	738.866272	1495.713867	1278.229614	71.264458
795.476624	738.643372	1522.685547	1282.687866	69.389694
795.787292	744.141785	1534.796875	1295.765137	69.767891
796.097778	737.528809	1546.536743	1304.978638	70.141441
796.408264	737.825989	1549.360352	1310.254150	70.536530
796.718689	735.819824	1561.694702	1307.504883	69.221748
797.029053	735.299744	1572.022827	1318.501709	69.700714
797.339355	742.358459	1571.948608	1321.176636	69.771584
797.649658	743.175781	1563.329468	1326.377930	71.108887
797.959839	740.798157	1554.338501	1316.124023	70.718788
798.270020	728.538269	1544.902222	1299.703125	69.964485
798.580078	732.327637	1547.502930	1287.145996	68.061234
798.890137	730.618652	1535.985962	1275.480469	67.653831
799.200195	732.030334	1522.537109	1276.669312	68.897446
799.510071	725.268860	1502.475464	1268.718872	69.923492
799.820007	723.114075	1485.237183	1264.335083	71.014908
800.129883	734.630920	1478.029785	1249.400269	69.245377
800.439575	736.637146	1470.227905	1242.564331	68.965858
800.749329	741.541077	1464.358032	1239.815186	68.935036
801.058960	734.556641	1449.125977	1232.161987	69.637100
801.368591	731.807434	1433.745483	1234.539673	71.620598
801.678162	725.863281	1427.875366	1228.521118	71.602448
801.987671	722.668274	1427.875366	1226.960815	71.509850
802.297119	721.330811	1430.178711	1215.369507	69.696007
802.606506	730.172852	1424.457397	1205.858887	68.514565
802.915894	730.321472	1421.336792	1207.419189	69.042999
803.225159	738.049011	1409.745483	1211.208618	70.442474
803.534424	736.265686	1401.646484	1212.620361	71.591286
803.843628	729.801453	1385.374390	1210.911499	73.387726
804.152771	722.371094	1396.073853	1204.372925	71.545174
804.461792	721.776611	1404.172852	1208.310913	71.297920
804.770874	719.696106	1412.791992	1206.899048	70.293732
805.079773	720.067688	1406.253296	1207.939331	71.099075
805.388733	721.330811	1409.968384	1213.437622	71.460930
805.697571	735.225403	1426.612305	1219.530640	70.048370
806.006470	738.643311	1435.305664	1226.886597	70.083199
806.315125	733.219238	1439.838257	1219.753540	68.853836
806.623901	728.240967	1431.516235	1220.942261	70.058098
806.932495	730.395752	1427.578125	1220.496460	70.297348
807.241150	740.352295	1418.438965	1215.592529	70.085472
807.549622	740.798096	1412.197632	1214.478027	70.551125
807.858154	729.504150	1413.683594	1200.954834	68.907463
808.166565	716.724121	1404.841675	1196.273804	69.690079
808.474915	723.857117	1396.816895	1186.911621	68.808647
808.783264	735.745605	1386.191528	1190.403809	69.899460
809.091492	737.603088	1380.247437	1188.026123	70.089005
809.399719	727.572266	1379.875610	1188.174805	70.611710
809.707825	723.857117	1371.553833	1186.688721	71.458076
810.015930	723.559875	1363.975098	1185.499878	72.131325
810.323975	732.773438	1347.702759	1179.407104	72.631706
810.632080	737.825989	1335.888794	1168.187378	71.959229
810.939880	738.346191	1340.421143	1162.540405	70.455383
811.247864	733.813660	1348.594360	1153.921265	68.334549
811.555664	732.104736	1341.832886	1154.887207	69.339500
811.863464	735.448425	1334.105469	1144.782104	68.375320
812.171143	740.723816	1326.229370	1142.850098	68.680183
812.478882	738.717590	1326.675171	1138.689087	68.027267
812.786438	735.299744	1321.473999	1142.775879	69.514503
813.094055	727.126465	1313.003296	1140.175293	70.500969
813.401489	726.531982	1311.740112	1133.413696	69.527695
813.708984	732.922058	1297.548462	1132.819336	70.825111
814.016357	735.002441	1299.331665	1136.014404	71.059929
814.323730	735.151062	1291.306885	1138.243408	72.478310
814.630981	726.903503	1301.263428	1136.980225	71.397171
814.938232	725.343201	1297.622681	1127.246460	70.228493
815.245361	727.869446	1299.182983	1117.512817	68.201317
815.552490	730.767273	1292.718628	1109.785522	67.446808
815.859619	737.974609	1292.718750	1116.769897	68.282883
816.166565	737.083008	1299.554565	1126.577881	69.247032
816.473572	742.358459	1306.390503	1133.116577	69.279419
816.780457	735.745544	1308.916748	1129.104248	68.628487
817.087341	732.476257	1317.981689	1124.943237	67.030457
817.394043	730.470032	1326.303589	1130.664551	67.165489
817.700806	731.956055	1341.609985	1137.797485	66.569145
818.007507	734.333801	1339.083496	1143.667603	67.686485
818.314209	737.083008	1343.318970	1142.701538	66.907700
818.620667	740.575195	1336.854614	1148.422974	68.398766
818.927246	741.912659	1347.405640	1166.181274	70.069946
819.233704	738.643372	1365.386719	1186.763062	71.499710
819.540161	728.389587	1399.194702	1213.066284	72.252983
819.846497	726.086243	1436.940430	1233.945313	71.443497
820.152832	726.680664	1491.255737	1259.431152	69.679291
820.458984	736.934387	1547.577148	1294.501953	68.780922
820.765259	736.934387	1614.300903	1335.071289	68.174118
821.071350	738.643372	1699.154663	1406.699219	69.552109
821.377502	736.637207	1844.119141	1507.527832	69.607513
821.683472	742.358398	2126.469727	1705.916016	69.615616
821.989441	736.042725	2593.239258	2023.411621	69.317863
822.295349	736.339905	3266.347656	2465.364258	68.340675
822.601196	732.996338	4010.192139	2963.861328	68.072372
822.907043	736.637207	4682.854492	3420.897461	68.021095
823.212769	730.692932	5119.085938	3731.705811	68.385239
823.518494	727.869446	5264.273438	3841.748047	68.642006
823.824097	725.343079	5132.386230	3765.810547	68.991104
824.129700	723.857117	4827.596191	3580.276611	69.605286
824.435242	721.999512	4482.683105	3368.513672	70.373222
824.740723	718.433044	4172.246582	3163.661377	70.797928
825.046082	722.073914	3877.041748	2959.848877	70.928612
825.351501	721.702393	3571.731689	2739.095459	70.784996
825.656799	733.813721	3230.459229	2495.085205	70.545517
825.962036	733.442200	2905.607666	2266.010010	70.554840
826.267212	739.832214	2648.817627	2072.822998	69.827187
826.572449	737.825989	2503.481689	1954.978882	68.934891
826.877502	737.157288	2481.785400	1926.149414	68.151611
827.182495	733.962219	2547.989258	1984.774048	68.952209
827.487488	728.909668	2674.675049	2064.129639	68.621841
827.792419	731.584534	2775.206299	2139.918213	68.913620
828.097290	733.144958	2817.336182	2175.137939	69.187172
828.402100	734.853821	2767.553467	2156.710693	69.949188
828.706848	736.265625	2665.238525	2088.129150	70.082039
829.011597	737.751709	2515.444336	1982.842285	70.039703
829.316223	734.036621	2360.597412	1876.366577	70.229774
829.620789	734.259460	2219.719482	1772.862915	69.917976
829.925354	731.956116	2090.209717	1688.157837	70.399345
830.229797	732.624817	1960.551758	1609.694214	71.426834
830.534302	737.380188	1819.747925	1523.057129	72.588730
830.838562	727.869446	1693.507446	1424.977539	72.191452
831.142944	734.853821	1578.932739	1340.569824	71.760590
831.447144	735.225403	1507.602173	1277.412354	70.197212
831.751404	745.850769	1451.578003	1225.994995	68.035385
832.055542	738.940613	1419.553589	1199.765991	67.707405
832.359619	729.578430	1396.816895	1183.270874	67.995544
832.663635	729.801331	1396.073853	1194.490601	69.744621
832.967651	726.606262	1423.640137	1214.255005	69.960548
833.271545	721.628113	1487.094727	1252.446655	69.345749
833.575439	713.826233	1584.728516	1313.597778	68.867836
833.879211	714.569275	1707.476563	1382.550781	67.275314
834.183044	720.216309	1821.382690	1467.924683	67.901489
834.486694	721.925293	1915.152710	1534.054077	68.061523
834.790344	728.018066	1955.870483	1576.629517	69.113472
835.093933	730.247131	1956.762085	1577.818359	69.104034
835.397522	733.665039	1912.626343	1547.799927	69.055267
835.700928	730.915955	1853.109741	1512.208984	69.621933
836.004395	739.757874	1778.361328	1472.085449	70.510796
836.307739	737.900391	1715.872681	1429.881470	70.756714
836.611023	741.615417	1647.142700	1386.786133	71.248070
836.914307	736.711426	1580.121704	1337.374634	71.218391
837.217529	740.352295	1510.202759	1283.951050	70.610954
837.520691	737.305908	1436.123047	1225.474731	69.856445
837.823730	731.138855	1362.637573	1175.023193	70.290619
838.126831	730.247131	1296.953979	1143.444458	72.912003
838.429749	734.185242	1258.688110	1116.398315	72.871490
838.732727	737.454529	1225.474731	1096.113770	73.492706
839.035522	736.117004	1204.892944	1077.240845	72.769058
839.338379	731.138733	1185.500000	1071.370972	74.881439
839.641113	733.665039	1188.843506	1071.073608	74.126656
839.943848	733.739319	1202.886597	1077.166504	73.202423
840.246460	734.631042	1228.966919	1089.797974	71.847290
840.549072	732.922058	1262.700439	1099.977417	69.284698
840.851563	731.435974	1282.762207	1112.980347	69.204826
841.154053	733.070618	1281.870483	1118.181519	70.173286
841.456482	739.089172	1269.982056	1124.051636	72.512268
841.758850	739.312195	1249.474487	1105.995972	71.875908
842.061157	740.946777	1232.533569	1081.773315	69.331917
842.363403	731.064453	1210.985718	1057.253418	67.967186
842.665588	725.194519	1190.775391	1042.764404	68.209396
842.967712	724.525818	1173.091309	1029.612793	68.013924
843.269775	724.748718	1148.274292	1018.913269	69.456146
843.571777	729.652649	1123.680054	1003.309631	69.451256
843.873840	731.956055	1102.355103	989.637939	69.568726
844.175659	735.374023	1088.460571	975.891907	68.118675
844.477600	742.878601	1078.726929	966.009705	66.438057
844.779297	738.048889	1066.838501	957.985046	66.892670
845.081116	733.887939	1051.457886	942.827332	65.793190
845.382751	727.423645	1040.015259	942.827209	68.908936
845.684387	726.457703	1032.213501	934.282410	67.970818
845.985962	729.801270	1024.931763	931.904785	68.479378
846.287537	736.860046	1009.996887	925.143127	68.933609
846.588989	739.386414	1003.532471	926.406250	70.801674
846.890381	731.584656	999.668762	928.041016	73.281616
847.191711	731.361633	1001.674988	927.818115	72.677315
847.493042	730.618652	987.854675	921.651062	74.263474
847.794250	735.671204	984.288147	911.991638	70.920525
848.095459	728.909668	979.681335	900.028809	68.237030
848.396606	726.086243	975.446106	904.487000	71.543495
848.697693	728.240967	971.210876	909.168152	74.464851
848.998657	730.395752	975.148926	915.186707	75.500946
849.299622	737.603088	980.870300	916.078308	73.365913
849.600464	739.832214	982.727783	921.130798	74.640549
849.901367	735.076721	969.650452	911.471436	75.197983
850.202087	731.658875	970.542175	898.468445	69.828896
850.502808	723.039795	967.198486	883.459412	65.703011
850.803467	732.550537	969.056152	889.254944	66.258217
851.104065	736.191406	971.210938	887.991760	64.590530
851.404663	737.825989	972.994141	890.220886	64.802521
851.705139	736.488586	977.526611	887.397400	62.607887
852.005615	731.287415	967.718567	894.307556	68.950363
852.306030	729.429871	958.876648	893.267273	71.405403
852.606384	728.241028	957.242004	895.496338	73.036942
852.906616	731.658875	967.792969	892.598633	68.156090
853.206909	733.813660	970.765137	894.010315	67.607368
853.506958	729.652649	959.025208	889.552185	69.711708
853.807129	726.086243	950.629089	894.307556	74.917244
854.107178	732.699158	943.198730	898.988586	78.997513
854.407166	735.671204	949.365906	907.682068	80.493744
854.707092	734.036621	948.325684	908.350769	81.345329
855.007019	733.887939	950.034668	906.270325	79.752487
855.306763	730.767273	952.783752	904.635559	78.313232
855.606567	730.990051	954.046936	899.062988	75.349808
855.906250	729.652649	954.641357	895.199219	73.579948
856.205933	735.151123	952.635193	894.604736	73.317375
856.505493	739.237793	950.926208	898.914307	75.429970
856.805054	733.962219	951.743469	894.679016	73.797356
857.104492	730.395813	948.622864	888.289063	72.352737
857.403931	729.206970	942.827332	875.434753	68.452171
857.703308	734.259521	944.313416	885.539856	72.019768
858.002563	730.024231	949.217285	891.261169	73.559326
858.301819	731.584656	954.269836	900.623291	75.909241
858.601013	731.213135	949.514465	894.084656	74.608582
858.900208	738.866394	938.963379	883.310791	72.187195
859.199219	741.615540	931.161621	879.669922	72.834206
859.498291	744.290344	939.260681	879.818542	69.512215
859.797302	746.073547	944.833435	881.156006	67.962639
860.096191	747.856934	947.879883	880.561523	66.344681
860.395020	748.748535	934.579651	875.657532	68.292648
860.693787	750.606140	932.350586	879.075500	70.686813
860.992554	742.135559	932.647766	876.103455	70.319847
861.291260	741.615417	934.728210	876.103333	69.642159
861.589844	731.435974	932.201904	876.400635	72.205811
861.888428	733.665039	929.452698	878.926941	74.193596
862.186890	731.064453	932.573425	885.688416	76.733040
862.485413	731.807434	939.260559	880.784363	71.812332
862.783813	728.909668	942.752869	880.933044	71.091049
863.082153	728.983948	941.638367	876.474915	69.357117
863.380371	728.240906	936.808655	880.487305	72.996140
863.678589	732.699158	942.307129	883.013611	71.712181
863.976746	730.247131	944.016052	886.654297	73.166466
864.274902	730.767273	948.325623	888.140381	72.336044
864.572937	727.720886	946.542419	892.895752	75.483826
864.870911	726.754883	950.257507	894.827637	75.199455
865.168884	727.572266	948.771484	893.044434	74.806847
865.466736	723.485535	939.632141	888.511963	76.349304
865.764587	726.309082	943.273010	886.728699	73.938385
866.062317	734.333801	954.789978	896.016541	73.340080
866.360107	747.411133	970.765076	892.672852	65.036560
866.657715	746.519470	961.700134	897.279602	70.062119
866.955322	744.141785	950.628967	892.152649	71.680412
867.252808	738.123230	936.957275	892.078430	77.428993
867.550293	730.544434	948.177002	889.923645	73.233162
867.847717	719.398926	949.960266	883.162109	71.028030
868.145081	718.655945	960.659851	883.013489	67.915245
868.442383	727.423645	952.115051	881.304626	68.485474
868.739624	734.036621	953.526855	881.007385	66.960045
869.036804	731.733215	944.981995	879.967102	69.512184
869.333984	725.566101	942.678650	871.422363	67.180023
869.631042	728.240967	938.591980	872.165344	68.421051
869.928101	726.680664	946.542419	878.406799	69.009789
870.224976	731.584656	956.499023	886.059875	68.681793
870.521851	734.779602	967.272949	893.713135	68.360466
870.818726	736.785828	968.461731	890.889587	66.516960
871.115479	738.197571	966.604187	890.295166	66.590714
871.412231	737.305908	958.059326	888.363281	68.428101
871.708862	735.671204	958.282166	887.174500	68.057426
872.005493	736.117004	957.613464	883.459290	66.521278
872.302063	729.652649	967.198547	889.700745	67.375648
872.598572	724.154297	966.529785	895.644958	70.754128
872.895020	725.640381	969.799133	907.236145	74.376106
873.191406	730.395813	968.833191	899.137207	70.769691
873.487671	731.956116	961.551514	892.821472	70.064713
873.783997	722.593994	963.557678	888.289063	68.763504
874.080200	720.662109	957.093445	878.926941	66.939026
874.376343	732.253357	957.762146	885.242615	67.841820
874.672424	734.928223	958.728027	887.174500	68.027885
874.968445	736.042786	964.969482	890.072266	67.283318
875.264465	730.915833	975.074646	893.713135	66.676811
875.560364	736.265625	975.817627	893.415955	65.601761
875.856201	738.940491	971.062317	895.347717	67.381523
876.152039	742.358459	969.799133	884.425293	62.463249
876.447754	739.237732	965.489563	888.437683	65.944199
876.743469	736.562805	971.359436	898.542786	68.987350
877.039063	734.259460	976.709290	906.567444	71.069542
877.334595	727.720886	972.771240	899.508728	70.103081
877.630127	726.754883	971.656677	904.561279	72.603142
877.925537	727.126465	961.923035	901.514832	74.272110
878.221008	734.779602	972.622559	908.647949	73.102165
878.516296	730.321472	974.331543	903.372498	70.919624
878.811646	736.414307	980.052917	910.431213	71.424194
879.106812	736.637207	985.328430	921.205139	74.215698
879.401978	741.987000	996.919617	932.722107	74.817848
879.697083	733.219238	1027.160767	949.737366	73.660271
879.992126	735.151184	1052.646606	957.836365	70.138077
880.287109	729.206848	1089.946655	983.396484	70.463432
880.582031	732.922058	1142.330078	1029.910034	72.540833
880.876892	731.510254	1262.328979	1116.918457	72.606369
881.171753	736.191345	1465.844116	1250.143311	70.437881
881.466492	730.395691	1764.986694	1448.680054	69.426888
881.761230	730.470032	2132.339600	1696.405396	68.903366
882.055786	727.795166	2515.146973	1942.644531	67.969238
882.350403	731.956055	2795.565674	2122.457275	67.381989
882.644958	732.179016	2926.709717	2222.171631	67.895729
882.939453	731.361633	2886.363281	2237.403564	69.885887
883.233826	734.036560	2798.686279	2187.471924	70.396217
883.528137	729.429871	2695.851318	2112.946533	70.357079
883.822449	733.219238	2618.947998	2038.792358	69.234406
884.116577	728.463867	2519.605225	1981.133423	69.936943
884.410828	735.151123	2401.389648	1901.555298	70.002235
884.704956	736.117126	2243.050293	1797.902954	70.460052
884.999023	738.346191	2051.720947	1669.433594	70.892746
885.292969	736.265625	1830.224609	1520.159180	71.656578
885.586914	731.881775	1634.734009	1384.928345	72.331497
885.880798	732.104675	1479.144165	1270.204956	72.031036
886.174622	730.544434	1377.275269	1196.571045	72.058823
886.468384	732.253357	1293.238892	1140.398193	72.754967
886.762085	727.869446	1231.567505	1101.835083	74.244011
887.055664	722.891174	1186.391479	1066.987061	74.238548
887.349304	727.869446	1167.964478	1042.838745	71.568474
887.642822	728.463867	1153.846924	1018.393066	68.157204
887.936340	732.624817	1129.475586	1002.417969	67.983528
888.229736	733.962219	1094.107544	987.854675	70.497223
888.523071	743.398743	1075.011719	971.359436	68.742996
888.816284	751.571960	1051.309204	966.232605	71.616272
889.109619	752.017822	1036.820190	947.731201	68.719017
889.402710	749.342957	1016.684082	943.050110	72.456924
889.695862	741.169617	1015.941101	926.629333	67.495987
889.988892	730.098572	1006.801819	924.325867	70.193359
890.281921	715.535217	989.043457	913.477661	72.371658
>>>>>End Processed Spectral Data<<<<<
