Jaz Data File
++++++++++++++++++++++++++++++++++++
Date: Fri Jun 04 17:04:47 2021
User: jaz
Dark Spectrum Present: Yes
Reference Spectrum Present: Yes
Processed Spectrum Present: Yes
Spectrometers: JAZA3586
Integration Time (usec): 122000 (JAZA3586)
Spectra Averaged: 10 (JAZA3586)
Boxcar Smoothing: 1 (JAZA3586)
Correct for Electrical Dark: No (JAZA3586)
Strobe/Lamp Enabled: Yes (JAZA3586)
Correct for Detector Non-linearity: No (JAZA3586)
Correct for Stray Light: No (JAZA3586)
Number of Pixels in Processed Spectrum: 2048
>>>>>Begin Processed Spectral Data<<<<<
W	D	R	S	P
191.335022	0.000000	0.000000	0.000000	0.000000
191.713211	230.487015	226.177490	223.056763	172.414658
192.091385	464.540619	461.122711	454.732666	286.957794
192.469528	699.262878	689.975098	688.786316	112.799416
192.847641	705.429993	700.228821	705.355774	1.426962
193.225739	712.637390	707.064697	721.925232	-166.667038
193.603790	720.067688	719.101746	737.380188	-1792.291138
193.981842	730.247070	730.024231	742.729980	-5601.752930
194.359863	731.956055	737.157288	744.067444	232.856125
194.737854	743.324402	750.606140	746.370850	41.836819
195.115829	747.708252	749.045715	752.389343	349.997711
195.493774	751.200500	747.485352	748.451355	73.998260
195.871704	747.262451	748.451355	740.203674	-593.721436
196.249603	749.342957	748.897156	735.671204	3066.785400
196.627457	749.342957	748.599915	734.259460	2029.965454
197.005310	751.051941	736.711487	737.231628	96.372910
197.383133	746.073547	736.488586	738.569031	78.294701
197.760910	752.835144	744.438965	744.290344	101.770096
198.138687	747.039551	751.572083	743.993164	-67.211594
198.516449	743.695862	751.274902	740.278015	-45.096035
198.894180	736.042725	739.906555	729.504089	-169.226761
199.271866	747.039551	737.677429	724.674500	238.888702
199.649536	740.575256	732.327637	725.640381	181.081039
200.027191	736.488586	738.049011	728.092346	-538.073975
200.404816	724.154297	736.191406	729.801331	46.913536
200.782410	728.018066	753.726807	733.442200	21.098402
201.159988	731.807434	764.575012	739.534973	23.582882
201.537537	730.395752	777.132141	746.668030	34.817146
201.915070	730.172852	772.450989	742.655701	29.525541
202.292557	730.395752	769.999084	739.906433	24.014851
202.670029	734.036560	770.593506	742.655579	23.576965
203.047485	739.089111	774.828796	739.386414	0.831855
203.424911	743.027161	773.862854	742.729980	-0.963754
203.802292	745.850769	771.782410	737.008728	-34.097500
204.179688	744.067383	772.079590	744.661865	2.122226
204.557037	738.643372	773.268372	746.370850	22.317627
204.934357	734.631042	775.125977	743.473083	21.834930
205.311661	729.727051	779.138367	741.541199	23.909801
205.688934	724.377197	775.200256	742.135559	34.941544
206.066177	722.965515	764.872253	741.243958	43.616955
206.443390	727.126465	762.494446	740.946777	39.075775
206.820587	730.098572	770.519226	736.562805	15.992402
207.197769	727.052063	775.868958	740.055115	26.636375
207.574921	730.990173	770.965027	739.460632	21.189468
207.952042	729.058289	761.602844	742.209778	40.410721
208.329147	729.355469	759.893860	744.290344	48.905247
208.706223	763.980530	802.617920	781.367371	45.000038
209.083267	763.089050	805.664368	783.224915	47.294689
209.460297	765.466614	806.630371	782.481934	41.335682
209.837280	723.337097	754.172607	740.203674	54.698551
210.214264	721.330872	751.497742	729.429749	26.846926
210.591217	715.163757	755.955872	725.120300	24.408009
210.968124	718.730225	770.147705	729.949890	21.820723
211.345016	724.525879	775.571777	731.138855	12.954961
211.721893	733.442200	771.039368	731.213074	-5.928973
212.098724	733.070618	762.717468	726.606262	-21.804527
212.475555	735.968506	771.633789	728.686768	-20.416880
212.852356	737.528809	771.485168	734.185242	-9.846659
213.229126	738.048889	778.023743	741.838379	9.479684
213.605865	733.219238	765.169434	744.661804	35.813759
213.982590	727.720886	772.228210	737.305847	21.535694
214.359283	718.655945	767.918640	732.847717	28.808355
214.735931	723.262695	760.711243	732.030334	23.412495
215.112579	714.569275	755.064209	734.631042	49.541424
215.489197	721.033630	757.590576	737.454529	44.918682
215.865799	718.433044	761.974426	734.705322	37.371983
216.242355	727.200684	759.299500	734.631042	23.148390
216.618896	730.395752	755.732910	738.271912	31.085411
216.995407	730.470032	754.469788	735.522644	21.052765
217.371902	726.754883	761.677185	736.191406	27.021481
217.748367	720.513489	772.451111	733.665039	25.321817
218.124802	722.965515	772.896973	738.271912	30.654816
218.501236	726.606262	765.466614	736.562805	25.621340
218.877609	729.949890	752.612244	731.287354	5.901697
219.253983	726.680664	755.955872	735.299744	29.441566
219.630295	723.559875	760.042480	739.683594	44.195633
220.006592	720.959290	762.420227	743.101563	53.405144
220.382889	715.163635	757.739075	733.739441	43.630333
220.759140	715.758118	752.612305	731.658875	43.145050
221.135391	714.717957	753.652527	725.045959	26.526562
221.511581	715.089355	752.537903	730.767273	41.865223
221.887772	711.968750	755.807312	723.559875	26.440479
222.263931	716.278259	766.209656	734.853821	37.202168
222.640060	724.971680	773.565674	736.785828	24.311951
223.016159	730.990173	765.318054	742.209778	32.683651
223.392212	729.875671	756.921875	733.367859	12.911932
223.768265	723.559875	757.070496	726.309082	8.203986
224.144302	719.398926	765.763855	720.141907	1.602463
224.520294	717.169922	762.494568	718.953125	3.934290
224.896286	717.392761	766.878418	729.875671	25.225309
225.272217	722.668274	773.862793	735.299805	24.673599
225.648148	728.612488	779.658386	736.785828	16.011747
226.024048	729.801270	773.714172	727.572266	-5.075966
226.399902	721.107910	764.500732	733.442200	28.424723
226.775772	712.265808	763.014648	734.259521	43.338356
227.151581	713.231750	759.819641	741.466858	60.606110
227.527374	710.333984	762.122986	734.482422	46.628506
227.903137	711.968689	767.175598	731.733154	35.800709
228.278870	711.151367	777.057861	727.795166	25.253654
228.654572	716.278259	776.834961	731.881836	25.766886
229.030273	716.724121	774.680176	739.089111	38.589565
229.405930	715.386536	767.398621	735.819824	39.285656
229.781555	717.095520	760.116882	734.928223	41.450809
230.157181	722.965515	755.732971	730.693054	23.582970
230.532761	722.668274	750.977539	729.578430	24.409521
230.908325	723.634094	763.460449	734.928223	28.358429
231.283859	719.398926	764.946533	739.683594	44.535091
231.659332	721.479431	769.479004	745.999329	51.083576
232.034821	719.176086	759.150940	739.757813	51.486683
232.410263	722.593933	756.030273	726.829163	12.666546
232.785690	722.668213	757.739075	725.789001	8.898522
233.161087	717.838623	762.123047	722.742493	11.073577
233.536469	713.231750	762.791748	736.637207	47.226509
233.911804	711.968567	762.717468	743.324402	61.786236
234.287140	725.045898	759.448059	748.525574	68.250580
234.662430	727.497864	758.630798	741.169617	43.914116
235.037704	727.126465	763.683350	733.665039	17.886026
235.412933	720.067627	763.014648	729.504089	21.972332
235.788162	717.615723	766.655457	731.733215	28.787865
236.163345	719.324646	762.123047	738.866272	45.659710
236.538513	721.925293	765.466614	738.049011	37.030842
236.913635	725.714661	763.683350	738.420410	33.463757
237.288742	723.931458	769.999023	733.293640	20.322720
237.663834	720.959290	775.348877	741.541199	37.841637
238.038879	712.711731	774.977356	744.736145	51.431931
238.413910	716.426819	764.723633	741.021057	50.923107
238.788910	718.135803	758.928040	743.398743	61.930756
239.163879	724.897400	759.076599	738.717590	40.434505
239.538834	718.061523	760.488342	741.763977	55.866676
239.913757	723.114075	772.525391	735.225403	24.511244
240.288651	726.531982	778.989746	739.312073	24.362629
240.663528	732.104736	784.265198	737.454529	10.256413
241.038361	726.383484	771.410828	740.872498	32.178257
241.413177	718.804504	769.701843	739.906555	41.460026
241.787979	721.850891	766.729736	734.036621	27.152504
242.162735	719.919006	772.748291	730.693054	20.394083
242.537476	718.804504	764.946472	726.532043	16.747311
242.912170	713.454773	771.113586	736.414246	39.819538
243.286865	715.237976	769.850403	738.271790	42.176872
243.661514	714.272034	777.577942	739.014893	39.084599
244.036148	720.141907	782.556213	729.206970	14.524015
244.410751	716.649719	785.231140	723.262695	9.642518
244.785339	720.810730	785.825684	728.018066	11.085660
245.159882	716.724060	775.794739	737.305908	34.842751
245.534378	717.615662	774.085754	745.181946	48.815723
245.908890	714.569275	765.838196	747.708313	64.637672
246.283356	713.380432	770.667908	751.646301	66.796219
246.657791	716.946960	766.432617	751.646301	70.119995
247.032196	718.878906	782.927795	750.234558	48.955811
247.406586	715.906738	777.057800	738.643250	37.180893
247.780960	718.061523	784.785339	732.104675	21.046686
248.155289	716.352539	772.228210	731.064453	26.329731
248.529602	715.163635	773.937195	739.832214	41.972240
248.903870	714.569275	770.073425	745.330627	55.421715
249.278122	713.603333	769.627625	740.798096	48.541019
249.652344	715.683838	769.330383	742.209961	49.446098
250.026550	721.033630	773.268494	737.826111	32.148033
250.400711	731.138855	779.064026	745.627747	30.232321
250.774857	733.070618	785.379700	744.587585	22.017147
251.148987	718.432922	782.779114	744.216003	40.069321
251.523071	713.751953	781.441650	738.494690	36.553181
251.897125	718.358704	778.989746	744.587585	43.259823
252.271164	725.120300	772.451111	746.147949	44.426979
252.645187	720.439148	767.621399	744.884766	51.811047
253.019165	709.368103	763.088928	735.225403	48.132729
253.393112	710.111084	777.132141	745.850769	53.326054
253.767044	714.494934	787.608887	745.627747	42.581219
254.140930	716.129578	795.039124	744.959045	36.534828
254.514801	715.089355	792.512756	732.773438	22.840746
254.888657	715.683777	782.927795	731.361633	23.314871
255.262466	727.869446	778.321045	733.665039	11.487432
255.636276	731.956116	777.726563	744.959167	28.409275
256.010010	735.299744	776.834961	747.113953	28.443836
256.383759	732.401855	776.834961	742.507141	22.742695
256.757446	729.132568	776.612000	736.414246	15.336488
257.131134	722.891113	785.454041	741.838379	30.285133
257.504791	720.810730	780.104248	746.816650	43.859634
257.878418	715.609558	773.416992	746.667969	53.727364
258.252014	720.884949	769.999084	739.089172	37.065140
258.625580	722.668274	783.893738	743.324402	33.737804
258.999115	729.132629	794.296082	735.374023	9.578059
259.372650	721.850891	804.401306	738.197510	19.801983
259.746124	716.278259	798.308411	732.327637	19.565218
260.119598	715.460938	806.927551	744.959167	32.250271
260.493042	721.925232	803.955383	746.073547	29.438341
260.866425	725.640320	810.865540	743.472961	20.924137
261.239838	724.005676	805.590088	732.179016	10.018262
261.613159	722.519714	808.562195	728.389587	6.822064
261.986511	722.742615	802.469421	733.293518	13.233822
262.359802	721.999512	790.878113	735.819824	20.064741
262.733063	721.405090	777.206482	742.581360	37.949356
263.106293	714.494934	778.246643	737.454529	36.014084
263.479523	716.649719	788.723328	746.147949	40.927921
263.852692	715.237976	794.296082	739.609314	30.827122
264.225861	715.163635	787.311584	740.872375	35.633362
264.598969	716.278137	779.955627	735.076843	29.521744
264.972076	709.293762	782.556213	732.996338	32.352966
265.345154	710.408386	798.085510	731.956116	24.576227
265.718201	712.563049	803.063782	730.841553	20.197079
266.091217	728.018066	812.500244	743.101563	17.854057
266.464203	736.711487	818.815979	748.079773	13.846120
266.837158	738.940613	817.404297	746.296570	9.374983
267.210114	728.835388	811.905823	733.665039	5.813923
267.583038	727.275085	802.246521	732.996399	7.631324
267.955902	718.433044	812.946045	731.361755	13.679294
268.328766	718.581604	820.153503	737.157410	18.288332
268.701569	711.002747	818.593079	733.516418	20.925367
269.074371	717.095520	810.642761	732.179016	16.123934
269.447144	718.804504	811.237061	732.699036	15.032075
269.819885	719.844727	814.580750	734.705261	15.686255
270.192596	719.027405	823.719910	739.460632	19.517374
270.565277	719.547546	835.831238	741.987000	19.297163
270.937927	722.816833	840.512390	739.534912	14.204512
271.310577	718.507324	838.803467	740.278015	18.097580
271.683136	713.900574	832.339111	735.968445	18.632339
272.055725	712.934570	836.648682	732.922058	16.156191
272.428284	712.414551	837.317383	736.934387	19.631130
272.800812	721.628113	837.317383	740.203674	16.056425
273.173279	725.268860	842.369934	745.404846	17.195391
273.545776	732.773438	850.394714	736.860107	3.474431
273.918152	732.476257	854.109802	734.110901	1.343909
274.290558	729.652649	848.834290	734.779602	4.301798
274.662964	729.206848	849.502991	743.547363	11.921010
275.035278	716.872620	849.354431	742.284180	19.181170
275.407593	718.804504	855.224365	739.609192	15.250483
275.779907	714.272034	855.298645	740.872375	18.861931
276.152161	721.330750	860.202637	745.404968	17.335560
276.524384	721.256531	861.242859	748.154114	19.214436
276.896606	718.284363	859.905334	741.169617	16.159510
277.268799	717.467102	863.546204	739.609192	15.157602
277.640930	711.225647	860.351135	736.265625	16.791212
278.013031	717.690125	862.134460	733.293457	10.802316
278.385162	719.919128	863.471985	728.240967	5.797055
278.757233	721.851013	868.747375	732.847717	7.486029
279.129272	720.364929	873.502747	740.500977	13.148972
279.501282	718.135742	867.038513	749.417297	21.008041
279.873230	719.696106	866.295593	747.931152	19.259991
280.245178	719.770508	872.091064	742.655701	15.024363
280.617126	720.587830	878.629700	739.237732	11.800609
280.988983	720.736389	893.490234	733.144958	7.182804
281.360870	723.559875	906.418884	739.980774	8.980087
281.732697	721.479309	909.391052	740.352356	10.043570
282.104492	723.411316	910.282654	745.553528	11.848907
282.476288	727.720886	907.533447	740.426697	7.066142
282.848053	730.470032	919.198975	749.640137	10.157480
283.219757	730.247131	917.341370	755.732910	13.621894
283.591461	724.302917	922.022461	758.556458	17.324306
283.963135	720.736389	911.991516	749.491516	15.034958
284.334747	722.742615	922.988464	742.432800	9.833006
284.706360	712.860352	934.505371	744.736145	14.381462
285.077942	721.553711	951.074890	751.274719	12.949136
285.449524	714.569275	948.028503	755.807312	17.663914
285.821014	715.683777	947.656982	750.903320	15.182591
286.192535	714.940735	953.526855	741.987000	11.336060
286.563995	713.380432	965.192383	742.878601	11.714364
286.935425	714.494934	965.043762	743.398682	11.536174
287.306824	709.888184	965.117981	738.866211	11.353701
287.678223	710.705566	962.591736	730.172852	7.728604
288.049561	718.581604	964.523621	729.875671	4.592167
288.420898	720.662109	968.758789	735.076843	5.810128
288.792145	726.680664	973.365540	744.364685	7.168669
289.163452	722.816895	974.182922	741.541199	7.449019
289.534668	723.857117	977.600891	738.346130	5.710096
289.905914	717.987122	984.956848	739.014893	7.876463
290.277039	717.764343	997.811218	746.445129	10.241424
290.648193	722.148193	1011.260010	761.305664	13.544058
291.019318	729.727051	1023.742859	752.092102	7.606751
291.390381	732.253357	1021.736633	744.513245	4.235094
291.761475	727.497986	1015.941101	735.671204	2.833563
292.132507	725.714600	1013.711975	730.470032	1.651207
292.503510	723.559875	1017.129944	731.064453	2.556316
292.874481	733.962219	1020.993713	733.665100	-0.103514
293.245422	733.516418	1020.547913	743.175781	3.365262
293.616364	734.408142	1026.120483	746.519348	4.151763
293.987213	719.250305	1029.835693	745.256348	8.373235
294.358093	715.832458	1049.748779	746.370850	9.145522
294.728943	709.888184	1070.182007	744.438965	9.589612
295.099731	711.448547	1094.033203	737.751770	6.875138
295.470490	715.089355	1101.240723	735.968445	5.406970
295.841248	720.959290	1111.345825	739.534973	4.758280
296.211975	716.575439	1125.389038	746.296570	7.270093
296.582642	713.900574	1131.779053	744.513367	7.325765
296.953308	716.575439	1146.862427	742.878601	6.112935
297.323883	719.176025	1147.382690	736.340027	4.008345
297.694519	716.649719	1166.181274	734.333801	3.933891
298.065063	711.597168	1170.639404	734.259460	4.936864
298.435608	715.683777	1169.450562	730.098572	3.176697
298.806122	714.569275	1152.063599	732.996338	4.211955
299.176575	716.278137	1129.327026	735.448303	4.641137
299.547028	709.442383	1123.531494	741.095276	7.643981
299.917450	708.327820	1130.664551	743.398743	8.304019
300.287872	705.058411	1136.311523	741.912659	8.545851
300.658234	711.894348	1133.933960	741.318298	6.971846
301.028564	713.454773	1128.732544	744.290344	7.425288
301.398865	720.141907	1118.776001	743.918884	5.964612
301.769135	721.405090	1120.484985	746.296570	6.237217
302.139374	727.126404	1119.147583	751.497742	6.216842
302.509583	728.983948	1130.515869	755.955872	6.717255
302.879791	727.572266	1142.032837	754.246887	6.435986
303.249939	731.436035	1147.679810	742.581360	2.677596
303.620087	722.371094	1145.450806	735.299805	3.055857
303.990173	721.850891	1131.704712	732.922058	2.701248
304.360260	717.021240	1141.364136	740.129395	5.445632
304.730286	722.296692	1152.286621	739.683594	4.043560
305.100281	726.531982	1157.116333	745.925049	4.503895
305.470276	729.281189	1153.624023	741.615479	2.906680
305.840179	733.293518	1157.859253	742.061279	2.065113
306.210144	727.943787	1163.506348	731.807434	0.887048
306.579987	733.590759	1178.441284	737.008728	0.768341
306.949890	733.070618	1179.109985	734.259460	0.266533
307.319702	735.894226	1200.286133	744.364685	1.823989
307.689484	729.652771	1199.543091	737.603210	1.691978
308.059265	731.213074	1214.329224	739.460693	1.707171
308.429016	730.172852	1223.171265	741.020996	2.200442
308.798737	728.315247	1238.477661	746.147949	3.495495
309.168396	722.593933	1257.053345	752.983704	5.686077
309.538055	726.011902	1273.994507	741.243958	2.779660
309.907684	725.937561	1290.266724	737.825989	2.106648
310.277313	719.844727	1300.297485	728.315247	1.459295
310.646851	711.374207	1314.340698	738.123230	4.436237
311.016388	709.516663	1327.418091	742.209961	5.291022
311.385895	717.764343	1336.111450	754.321228	5.912033
311.755371	716.575439	1333.436646	750.606140	5.516752
312.124817	712.860291	1330.167358	753.429504	6.571967
312.494232	712.563049	1334.328247	748.822815	5.831746
312.863617	719.027344	1329.795776	756.698914	6.167897
313.232971	727.720764	1324.000244	748.674255	3.514039
313.602295	725.491760	1318.947632	748.154114	3.818709
313.971619	729.875671	1328.235352	738.123230	1.378361
314.340820	730.767273	1338.860718	736.488586	0.940861
314.710083	739.460693	1354.092651	736.637207	-0.459378
315.079285	727.943665	1370.959473	746.965271	2.958186
315.448486	730.098572	1393.918945	758.630798	4.298185
315.817596	719.696106	1393.919067	761.900085	6.259647
316.186707	721.107910	1373.560181	749.640137	4.373075
316.555786	713.083191	1353.498413	744.513245	4.907762
316.924866	712.042969	1334.402466	743.250061	5.014319
317.293884	721.405090	1337.523071	748.005432	4.317410
317.662872	726.086182	1336.037231	749.788757	3.885980
318.031830	722.073792	1354.464355	745.479187	3.701098
318.400757	719.919128	1366.575684	752.017822	4.963793
318.769684	716.203918	1378.538452	747.633972	4.745344
319.138550	723.559875	1372.742798	745.553467	3.387888
319.507416	713.380432	1379.875854	740.872375	4.124851
319.876190	706.916016	1375.714844	735.745605	4.310652
320.244995	711.076965	1395.479492	733.888000	3.332985
320.613770	722.445313	1386.563110	735.076843	1.902002
320.982483	726.977844	1387.083130	732.550476	0.844203
321.351166	716.278259	1376.160767	730.990173	2.229475
321.719818	709.070801	1377.498169	723.114014	2.100933
322.088440	707.882019	1390.501099	727.275085	2.840979
322.457062	715.980957	1405.733276	729.429871	1.949818
322.825623	721.107910	1423.194336	733.590759	1.777965
323.194183	733.665039	1440.135376	729.355530	-0.610006
323.562653	735.225403	1464.432251	734.928223	-0.040754
323.931183	732.922058	1502.847046	740.352356	0.965068
324.299591	718.507324	1541.335815	749.863098	3.810730
324.668060	715.312317	1560.505859	745.107727	3.525277
325.036407	716.203918	1577.818359	743.027161	3.113137
325.404755	723.337097	1577.446655	748.376953	2.931691
325.773102	724.154297	1577.298218	755.287109	3.649186
326.141388	719.547546	1577.298218	764.500671	5.240815
326.509674	717.541443	1580.864624	761.825867	5.129530
326.877899	724.005676	1594.833618	758.630798	3.976115
327.246124	732.699158	1595.799683	749.045715	1.893934
327.614288	735.151123	1602.338257	747.931213	1.473741
327.982422	723.262695	1606.944946	746.073669	2.581355
328.350525	720.885010	1610.362915	758.184998	4.193470
328.718628	724.600098	1610.585938	756.624573	3.614558
329.086700	725.789001	1613.186523	762.197266	4.102813
329.454712	722.668274	1621.136719	751.720642	3.233544
329.822693	716.352539	1631.613403	747.336731	3.385285
330.190674	720.810730	1640.381226	750.383118	3.215891
330.558563	722.593933	1649.594727	747.931152	2.733247
330.926483	721.330811	1659.922852	759.076599	4.021533
331.294312	719.919128	1682.213745	748.228455	2.941856
331.662231	719.398926	1709.482788	750.457458	3.136960
332.029999	714.866455	1726.572266	743.621582	2.842242
332.397766	716.723938	1733.259644	742.507080	2.536373
332.765503	722.519714	1748.566040	740.055115	1.709026
333.133240	728.909668	1776.801147	742.061279	1.255055
333.500916	722.816895	1809.048462	748.822815	2.394141
333.868561	718.804504	1823.760254	752.092102	3.012573
334.236176	717.541321	1832.230835	751.571960	3.052926
334.603790	724.971680	1825.171875	763.757629	3.525354
334.971344	721.553711	1826.955200	770.667786	4.443098
335.338867	720.885010	1840.775757	770.593567	4.438697
335.706360	715.981018	1860.391602	755.807312	3.480070
336.073853	713.677551	1862.323242	751.349121	3.279651
336.441284	716.278259	1869.307739	763.237610	4.072693
336.808655	717.169922	1865.741211	774.977356	5.032986
337.176086	724.748779	1844.936523	777.132141	4.676302
337.543396	720.885071	1784.825562	774.308594	5.021289
337.910706	720.142029	1746.336914	769.033142	4.764311
338.277954	721.925293	1783.934082	771.485168	4.666616
338.645264	732.179016	1862.174805	775.348877	3.820356
339.012421	730.767273	1949.406250	774.977356	3.627825
339.379669	724.748779	2005.430298	783.076355	4.554417
339.746796	721.850891	2044.810913	778.989746	4.319016
340.113953	730.544434	2072.525635	792.661438	4.628754
340.481018	726.606262	2078.469971	793.924561	4.979666
340.848114	726.309082	2082.333740	800.983337	5.506851
341.215118	720.810730	2077.801270	798.085510	5.694571
341.582153	733.367859	2084.711670	805.144287	5.311486
341.949066	730.767273	2096.525391	805.441589	5.467609
342.316010	728.909668	2109.899902	812.425964	6.047566
342.682922	724.600159	2118.073242	811.460022	6.233336
343.049835	719.770508	2132.488037	815.026550	6.742752
343.416656	727.572266	2172.314453	828.103821	6.958443
343.783478	727.126404	2213.775391	830.035706	6.922233
344.150269	731.287354	2273.291992	839.472168	7.015855
344.516998	721.479431	2325.303711	835.905579	7.134582
344.883728	723.782776	2383.334229	839.620789	6.980079
345.250427	726.829285	2420.411133	847.645508	7.133770
345.617065	731.584656	2429.847656	846.828125	6.785962
345.983704	722.593994	2429.178955	857.304871	7.893593
346.350281	713.826233	2427.395752	851.434998	8.030533
346.716827	711.894348	2430.813477	857.973633	8.498322
347.083405	708.327820	2419.296631	862.877502	9.032876
347.449860	730.024170	2404.882080	887.991882	9.431708
347.816376	732.253235	2378.578857	900.326111	10.208969
348.182770	733.293518	2372.634521	899.211609	10.121023
348.549194	712.785950	2363.643799	886.134277	10.500500
348.915558	712.042969	2378.207275	882.864990	10.252412
349.281921	724.525879	2391.581787	889.403564	9.890351
349.648193	728.463867	2404.287354	901.291992	10.313026
350.014526	731.807556	2431.853760	917.861511	10.944054
350.380737	719.696228	2463.581055	917.935852	11.367702
350.746948	722.073792	2504.596191	930.567322	11.696545
351.113159	717.764343	2523.246094	939.632141	12.288566
351.479309	720.142029	2535.729248	957.762024	13.087777
351.845428	714.049133	2560.620361	961.997314	13.427490
352.211517	712.934570	2583.654297	967.049866	13.583825
352.577576	707.584778	2615.827393	977.823792	14.161669
352.943604	711.597168	2642.130615	982.207703	14.017397
353.309601	714.643555	2677.870117	989.192139	13.984559
353.675537	716.872620	2730.030518	999.743103	14.051083
354.041473	715.980957	2781.968018	1021.216614	14.774325
354.407379	715.832336	2841.930664	1030.281494	14.789963
354.773254	728.761047	2897.583252	1051.383545	14.875469
355.139038	732.253235	2951.155518	1064.609375	14.978403
355.504913	727.943787	3019.811279	1096.262329	16.070675
355.870636	717.912903	3082.522705	1101.314941	16.214178
356.236389	711.002747	3139.141357	1115.581177	16.662081
356.602081	718.507324	3206.756836	1119.519165	16.116222
356.967804	723.708496	3273.555420	1139.803833	16.318443
357.333405	723.931458	3357.145752	1159.345337	16.535452
357.699036	715.683838	3429.962158	1182.676392	17.205036
358.064606	707.584900	3519.348389	1210.317017	17.879602
358.430176	704.909912	3590.010498	1230.973145	18.233791
358.795654	707.436218	3639.347412	1256.682007	18.733372
359.161163	711.522766	3637.043945	1277.263794	19.338127
359.526581	714.940735	3647.372070	1281.796265	19.330564
359.892029	720.216248	3674.566406	1291.529907	19.338049
360.257416	716.055359	3730.516357	1309.065308	19.672173
360.622772	721.033508	3817.004883	1353.424194	20.426245
360.988098	718.655945	3926.973389	1380.321655	20.623449
361.353394	722.148193	4093.262695	1421.559570	20.747185
361.718658	721.851013	4248.629883	1453.807007	20.754236
362.083893	722.593994	4386.684082	1484.939819	20.805870
362.449097	729.355530	4464.107910	1501.360718	20.670853
362.814209	726.829163	4487.810059	1502.252319	20.617577
363.179382	724.748718	4399.761230	1508.642456	21.330370
363.544434	725.120178	4251.898926	1487.837524	21.626459
363.909546	728.909668	4063.912842	1461.831665	21.976650
364.274536	731.658875	3917.387939	1438.574829	22.190084
364.639587	723.114075	3795.680420	1420.742310	22.705067
365.004517	721.925293	3723.458252	1420.519409	23.274578
365.369507	713.008972	3685.563721	1419.776367	23.776430
365.734344	718.284424	3670.702881	1422.599731	23.855537
366.099274	718.804504	3662.677734	1434.488281	24.310957
366.464081	724.823059	3642.839111	1435.602905	24.358324
366.828918	724.228699	3642.319336	1450.686157	24.894958
367.193665	723.857117	3642.022217	1453.584351	25.006372
367.558411	723.188416	3672.263428	1462.649048	25.074326
367.923126	711.151306	3677.984619	1464.060669	25.377542
368.287781	710.036804	3693.068115	1476.692261	25.700550
368.652435	707.361877	3668.473877	1483.156616	26.199438
369.017059	725.120300	3666.170654	1481.744751	25.726336
369.381653	729.058289	3654.430664	1481.596191	25.724518
369.746185	733.887939	3670.925781	1488.432129	25.690653
370.110687	731.138672	3681.699951	1506.933594	26.293131
370.475220	731.435974	3704.807861	1506.933594	26.081421
370.839661	736.117004	3733.489014	1522.388306	26.232021
371.204041	735.299805	3772.052002	1535.540039	26.351845
371.568451	729.949890	3812.918701	1559.391235	26.903982
371.932770	730.024231	3870.131592	1579.304321	27.046211
372.297150	727.646484	3893.313721	1590.301147	27.250326
372.661377	729.206848	3920.063232	1600.777954	27.314646
373.025696	725.120300	3932.620361	1601.892212	27.335056
373.389862	723.039734	3949.932617	1607.167969	27.398748
373.754059	725.937561	3963.232666	1613.557983	27.418581
374.118225	718.581543	3972.966553	1621.062500	27.731230
374.482361	724.154297	4007.368896	1626.040649	27.469614
374.846436	723.857117	4044.222656	1628.344116	27.240585
375.210510	732.104736	4112.878418	1649.594727	27.138462
375.574524	733.962219	4185.546387	1679.241577	27.386826
375.938538	726.680664	4264.901855	1716.838745	27.984629
376.302460	728.166687	4350.647461	1748.045898	28.154165
376.666412	718.061523	4461.209961	1785.271484	28.511024
377.030304	721.851013	4553.939941	1812.391968	28.458136
377.394196	714.717957	4636.267090	1834.757202	28.561144
377.757996	723.782776	4714.656738	1848.800415	28.189754
378.121796	722.891174	4779.671387	1862.397827	28.088940
378.485565	728.018066	4798.023926	1866.930298	27.983061
378.849304	721.182190	4764.810547	1859.797241	28.158249
379.212982	722.668274	4704.997070	1848.280273	28.265171
379.576630	719.398926	4624.006836	1826.806641	28.361561
379.940277	718.358704	4554.311035	1830.076050	28.981520
380.303864	710.259583	4499.104004	1817.593140	29.226152
380.667450	709.070801	4498.286621	1829.109985	29.558601
381.030945	711.745789	4500.887207	1821.902832	29.298378
381.394501	717.318420	4539.004395	1845.531128	29.521332
381.757935	718.358704	4560.849609	1859.425659	29.696020
382.121399	720.216248	4565.382324	1877.035278	30.085024
382.484741	719.993347	4583.437500	1887.734863	30.225401
382.848145	724.451477	4606.396973	1899.028931	30.257441
383.211487	719.696106	4669.108887	1925.332031	30.526968
383.574768	720.216248	4726.693359	1954.978882	30.819162
383.938019	715.832458	4791.336426	1975.263306	30.902458
384.301270	719.176086	4855.534180	1995.696655	30.860977
384.664459	721.776672	4903.235840	2020.290894	31.054092
385.027649	720.587830	4953.984863	2056.178955	31.548922
385.390778	724.228699	5000.350098	2095.782471	32.074711
385.753876	717.244141	5045.377441	2127.509766	32.583691
386.116943	717.169861	5073.315430	2149.726318	32.885872
386.479980	716.352539	5084.832031	2158.939697	33.022636
386.842987	723.262695	5123.098145	2181.973633	33.153763
387.205994	724.154358	5148.361328	2206.196289	33.498478
387.568909	720.513489	5196.509277	2227.595459	33.670319
387.931793	722.965515	5216.868652	2245.205322	33.873444
388.294678	724.005676	5265.685059	2271.582764	34.075001
388.657471	721.256592	5300.607422	2295.879639	34.385292
389.020294	724.302979	5325.350098	2314.975586	34.571972
389.383057	722.742615	5348.161621	2336.671875	34.892605
389.745819	721.182190	5354.922363	2352.944336	35.214798
390.108521	717.021240	5363.021484	2367.507813	35.524895
390.471191	713.231873	5419.565918	2387.569580	35.576260
390.833801	719.547546	5494.908691	2437.946533	35.984688
391.196442	712.785950	5624.642090	2494.713867	36.278099
391.558960	717.467041	5719.897949	2546.502686	36.562939
391.921509	714.123474	5840.713379	2588.112061	36.554291
392.284027	723.634216	5935.672363	2641.833252	36.803242
392.646484	715.535217	6025.355957	2680.247559	37.001484
393.008911	716.501160	6068.525879	2711.603516	37.277523
393.371307	710.631287	6079.225098	2725.646729	37.533394
393.733673	714.049133	6051.659668	2726.240967	37.698364
394.096008	713.603333	6013.914063	2717.324707	37.803848
394.458344	711.820129	6007.078125	2730.699219	38.126171
394.820587	720.587830	6015.771484	2761.460205	38.542049
395.182831	721.776672	6059.312500	2794.227783	38.827866
395.545013	723.857178	6078.482910	2795.565674	38.690071
395.907196	723.485657	6058.940918	2780.705078	38.557526
396.269287	722.742493	5998.310059	2773.200439	38.867062
396.631409	723.931458	5915.759277	2750.240967	39.028831
396.993469	721.107910	5840.342285	2742.067627	39.477772
397.355530	719.919128	5798.732910	2728.172852	39.541782
397.717499	717.838623	5776.664551	2736.866455	39.910995
398.079468	716.872742	5775.624512	2746.154297	40.114273
398.441376	716.575439	5770.572266	2752.172607	40.276974
398.803284	713.900574	5791.079590	2762.798096	40.355034
399.165131	713.528992	5823.029785	2781.076904	40.464771
399.526978	720.141907	5846.806152	2796.679932	40.504665
399.888763	722.593994	5863.895996	2809.014404	40.581558
400.250519	722.222473	5869.691895	2819.565186	40.745125
400.612244	730.024231	5887.450684	2838.586670	40.884007
400.973938	725.937561	5903.054199	2853.893311	41.103107
401.335602	718.135742	5918.880371	2849.955078	40.990658
401.697205	707.956299	5968.588379	2868.456299	41.069210
402.058807	713.306152	6010.718750	2896.691406	41.216068
402.420349	716.649719	6086.209473	2954.053467	41.668293
402.781860	706.990417	6158.580566	2987.266602	41.827724
403.143341	706.767517	6249.527344	3027.910400	41.877026
403.504822	707.882019	6347.235840	3066.993408	41.833008
403.866241	715.832458	6450.813965	3121.234375	41.942627
404.227631	713.008972	6572.001465	3183.425781	42.164532
404.588959	717.244141	6701.213379	3232.465576	42.032661
404.950287	712.711731	6810.513184	3283.288818	42.155804
405.311554	713.454773	6898.189941	3314.495850	42.055817
405.672821	715.460938	6957.781250	3357.591064	42.326092
406.034027	716.575378	6958.152344	3358.260010	42.323990
406.395203	717.169861	6928.580078	3343.622314	42.284317
406.756348	712.414551	6880.729004	3327.572998	42.396645
407.117493	710.631287	6859.479004	3331.585693	42.625130
407.478516	716.724060	6842.760254	3343.548096	42.879669
407.839600	724.451477	6856.060547	3343.399414	42.712250
408.200592	736.711426	6854.054688	3351.721436	42.747478
408.561554	730.767273	6851.082031	3358.928711	42.941605
408.922485	726.160461	6863.416504	3369.925781	43.077320
409.283417	719.398926	6888.159668	3371.262939	42.988602
409.644257	720.736328	6970.486816	3383.597412	42.607479
410.005096	721.033508	7047.613281	3426.916016	42.770069
410.365906	719.250305	7117.309082	3478.110596	43.120274
410.726715	721.925232	7198.224609	3533.168945	43.408180
411.087433	718.358704	7252.763184	3557.465820	43.448601
411.448120	717.838562	7339.994141	3588.375732	43.347473
411.808807	720.142029	7363.622559	3599.075195	43.334713
412.169434	727.869446	7373.876465	3597.291748	43.175133
412.530029	733.070618	7377.814453	3596.697266	43.096119
412.890564	720.141907	7367.188965	3596.623047	43.274574
413.251099	718.358704	7364.811035	3610.740967	43.517689
413.611572	717.318420	7390.074219	3626.195557	43.593342
413.972076	728.092346	7435.398926	3650.343750	43.568180
414.332489	726.457703	7487.113281	3681.625244	43.711254
414.692871	720.959290	7576.275879	3723.011963	43.791599
415.053223	717.764343	7669.452637	3760.535156	43.770241
415.413574	713.306152	7822.961426	3811.729736	43.580505
415.773834	717.318420	7917.920410	3859.208984	43.633720
416.134094	720.513489	8051.220215	3922.812256	43.683357
416.494263	717.615662	8160.519531	3988.050049	43.940300
416.854462	718.730225	8349.397461	4075.653076	43.992523
417.214630	719.027405	8553.581055	4184.209473	44.229477
417.574738	725.343201	8772.477539	4291.502441	44.315891
417.934784	729.875671	8990.407227	4391.588379	44.327812
418.294861	723.337097	9240.137695	4487.661621	44.198807
418.654846	716.575500	9558.079102	4609.146484	44.026119
419.014832	716.724121	9877.952148	4766.742188	44.208241
419.374756	718.730225	10237.354492	4929.316406	44.235237
419.734680	732.922058	10581.004883	5112.398438	44.470345
420.094543	726.160461	10927.034180	5265.388184	44.498417
420.454376	725.120300	11228.032227	5424.099121	44.739773
420.814148	715.981018	11559.497070	5555.985840	44.635017
421.173920	715.386658	11920.906250	5708.752441	44.561661
421.533691	717.987244	12291.676758	5848.144531	44.326031
421.893341	721.330872	12594.088867	5978.025391	44.275261
422.253021	722.742615	12816.253906	6069.566406	44.212334
422.612640	723.262695	12927.261719	6115.708496	44.185890
422.972260	725.268860	12945.539063	6125.813965	44.193333
423.331757	724.079895	12912.030273	6117.566406	44.252613
423.691315	732.922058	12908.461914	6140.748047	44.415493
424.050781	739.386292	12956.610352	6188.153809	44.599064
424.410248	739.237793	13025.192383	6205.466309	44.491684
424.769653	732.401917	13120.895508	6234.593262	44.413727
425.128998	723.188477	13201.141602	6249.824219	44.291206
425.488373	727.572266	13199.209961	6267.285156	44.418488
425.847656	722.816895	13100.757813	6228.275879	44.477985
426.206940	724.302979	12962.333008	6179.311035	44.574230
426.566193	719.473328	12743.140625	6095.720703	44.713875
426.925385	715.683777	12529.296875	6015.027832	44.857944
427.284576	714.792175	12237.510742	5870.063965	44.740067
427.643677	722.742615	12006.874023	5785.878906	44.869522
428.002777	731.733215	11777.575195	5688.096191	44.870846
428.361847	727.720886	11525.096680	5606.065918	45.180840
428.720856	719.473206	11282.348633	5491.937012	45.181484
429.079865	715.015076	11079.723633	5410.946777	45.306931
429.438812	719.473328	10963.588867	5352.024902	45.221588
429.797760	717.912903	10911.131836	5327.207520	45.219223
430.156616	720.067688	10807.850586	5288.125000	45.283062
430.515503	723.708496	10723.887695	5270.737793	45.469475
430.874268	729.058350	10689.783203	5278.613770	45.674946
431.233093	726.234802	10712.817383	5293.994629	45.738964
431.591827	720.587830	10724.186523	5317.474609	45.952332
431.950562	722.742493	10733.770508	5322.972656	45.951622
432.309204	718.358704	10798.414063	5357.449219	46.022469
432.667877	718.210144	10929.855469	5398.464355	45.832520
433.026459	714.346375	11049.038086	5450.996582	45.832527
433.385010	721.182129	11150.312500	5506.500000	45.884148
433.743561	722.296692	11300.403320	5570.549316	45.832893
434.102051	723.559875	11435.932617	5629.322754	45.795292
434.460510	723.039734	11606.828125	5690.176270	45.637939
434.818939	721.330750	11670.727539	5714.102051	45.598598
435.177338	717.541321	11730.467773	5745.085938	45.651302
435.535675	717.392822	11705.500977	5744.863281	45.753742
435.894012	719.770508	11664.338867	5762.993652	46.079689
436.252289	721.107910	11667.831055	5748.578613	45.926720
436.610535	719.844727	11648.957031	5745.309082	45.982365
436.968719	730.618652	11755.953125	5782.980469	45.825024
437.326935	732.401917	11857.526367	5835.735840	45.872154
437.685028	739.237793	11981.015625	5889.605469	45.814533
438.043152	731.807556	12061.784180	5928.763184	45.869076
438.401215	731.138733	12212.246094	6020.377441	46.069065
438.759277	722.593933	12397.929688	6113.776855	46.175827
439.117249	724.525818	12676.862305	6252.574219	46.250774
439.475250	722.222473	12889.515625	6361.056152	46.344193
439.833130	731.138733	13180.708008	6505.054688	46.378441
440.191071	732.847839	13388.831055	6602.019531	46.374680
440.548889	733.070618	13634.176758	6695.120605	46.213478
440.906708	725.268860	13872.094727	6792.978027	46.153412
441.264496	716.946960	14076.426758	6889.125488	46.200741
441.622223	723.188416	14273.403320	6981.409668	46.185402
441.979950	726.457703	14351.198242	7009.124512	46.112198
442.337616	732.401855	14424.609375	7017.371582	45.901802
442.695251	735.299744	14342.356445	7002.214355	46.056358
443.052887	728.018066	14218.717773	6975.910645	46.312592
443.410461	718.061462	14091.362305	6945.224121	46.564140
443.768005	715.163635	13973.742188	6895.515625	46.613987
444.125458	726.457703	13913.333008	6869.063965	46.581215
444.482941	730.544373	13915.190430	6901.162598	46.801544
444.840393	726.829285	13994.249023	6942.771973	46.851181
445.197754	715.163757	14194.344727	7028.814941	46.840023
445.555084	713.157532	14387.458008	7112.628418	46.799255
445.912415	702.829407	14676.421875	7263.091309	46.947567
446.269714	709.888184	14878.749023	7386.953613	47.124928
446.626953	710.333984	15178.485352	7508.067871	46.984123
446.984161	720.290527	15436.167969	7626.951660	46.933399
447.341309	722.816895	15668.364258	7741.823730	46.963867
447.698456	724.080017	15840.449219	7839.903809	47.073631
448.055542	727.423584	16005.028320	7902.911621	46.967365
448.412598	730.990173	16030.589844	7915.469238	46.958607
448.769653	733.813660	15932.213867	7883.221191	47.040527
449.126617	729.355530	15712.203125	7783.062012	47.078545
449.483582	726.160461	15554.532227	7704.820801	47.062889
449.840515	727.646545	15353.541992	7606.814941	47.034168
450.197388	726.309082	15152.032227	7526.122559	47.136726
450.554230	726.606262	14989.831055	7460.290527	47.210110
450.911041	726.457703	14853.782227	7405.975098	47.280842
451.267822	724.005676	14756.965820	7387.993652	47.488113
451.624573	715.089355	14626.862305	7342.297363	47.637405
451.981262	712.414551	14549.585938	7302.843262	47.628437
452.337921	715.535156	14444.522461	7244.664063	47.557251
452.694580	721.627991	14404.401367	7205.060547	47.383907
453.051147	719.324646	14404.624023	7215.462891	47.468002
453.407715	720.216309	14388.870117	7202.832031	47.426876
453.764221	722.668213	14430.331055	7255.958496	47.661591
454.120728	730.618652	14278.234375	7200.231934	47.754627
454.477142	728.686829	14235.137695	7205.952637	47.956829
454.833557	727.126465	14092.700195	7132.169434	47.921944
455.189911	721.479492	14005.096680	7099.773438	48.016243
455.546265	723.931458	13853.147461	7040.628906	48.111763
455.902557	731.658875	13733.965820	7021.235840	48.372780
456.258820	726.532043	13737.979492	7025.990234	48.414738
456.615051	723.485596	13795.042969	7046.646973	48.373432
456.971252	717.244202	13810.127930	7066.485840	48.493835
457.327393	721.256531	13907.090820	7142.200684	48.695778
457.683502	721.033691	14068.700195	7242.138184	48.855766
458.039612	719.844788	14404.176758	7398.619141	48.805996
458.395630	719.770508	14727.096680	7550.122559	48.762711
458.751648	715.460938	15093.483398	7723.173340	48.739056
459.107605	716.278259	15578.084961	7954.626465	48.704361
459.463562	715.089355	16120.569336	8202.796875	48.604179
459.819458	720.216309	16598.113281	8443.092773	48.639168
460.175323	718.953125	17054.109375	8631.152344	48.436630
460.531158	714.717834	17476.150391	8833.479492	48.437160
460.886932	709.962463	17840.677734	9009.205078	48.446560
461.242676	705.355713	18062.992188	9130.391602	48.537922
461.598419	717.169861	18080.230469	9157.736328	48.612206
461.954102	721.033630	17877.681641	9054.307617	48.571693
462.309723	726.309082	17431.417969	8867.508789	48.734787
462.665344	714.197754	16919.472656	8622.608398	48.801456
463.020905	719.324707	16445.496094	8411.959961	48.916134
463.376373	718.581604	16068.484375	8240.914063	49.005733
463.731873	719.919006	15752.176758	8110.958984	49.167862
464.087341	713.677673	15537.741211	8006.267090	49.194267
464.442749	716.055359	15425.320313	7938.576660	49.101852
464.798126	715.758118	15345.815430	7906.329590	49.149303
465.153503	716.724060	15385.270508	7929.957520	49.174831
465.508820	714.569275	15409.046875	7951.505371	49.249359
465.864105	721.553711	15494.272461	7987.839844	49.187195
466.219330	725.863342	15673.565430	8099.294434	49.328190
466.574524	730.470032	15803.445313	8179.169922	49.417580
466.929657	725.343201	15982.737305	8265.509766	49.419750
467.284790	725.268860	16165.448242	8346.202148	49.357800
467.639893	723.188416	16380.554688	8435.959961	49.259701
467.994934	724.748718	16620.107422	8546.596680	49.208378
468.349945	725.194519	16730.521484	8592.441406	49.153927
468.704926	721.330811	16804.601563	8645.047852	49.266827
469.059875	724.154297	16657.035156	8599.871094	49.430588
469.414764	721.851013	16508.205078	8526.088867	49.436607
469.769653	722.296692	16331.070313	8460.776367	49.577755
470.124451	718.284424	16236.928711	8401.409180	49.508995
470.479248	719.696106	16070.862305	8357.496094	49.753876
470.834015	715.386536	15990.391602	8314.473633	49.748508
471.188721	711.374207	16049.610352	8349.767578	49.799686
471.543365	710.705505	16116.184570	8404.380859	49.941162
471.898010	710.185364	16199.627930	8462.114258	50.046532
472.252625	713.231750	16289.979492	8530.695313	50.186749
472.607178	704.315430	16511.625000	8616.366211	50.053116
472.961700	702.606506	16693.369141	8699.957031	50.012314
473.316193	707.361877	16934.630859	8814.680664	49.961082
473.670654	717.095520	17110.505859	8899.161133	49.910698
474.025055	724.600098	17379.927734	9037.438477	49.910984
474.379456	717.764343	17589.980469	9132.993164	49.876247
474.733795	724.302979	17769.646484	9242.961914	49.976460
475.088104	728.092346	17906.880859	9310.799805	49.961071
475.442383	738.494812	17908.666016	9360.508789	50.215069
475.796570	731.361633	17973.828125	9380.644531	50.162678
476.150787	725.640381	18069.083984	9458.586914	50.353012
476.504944	723.634277	18251.794922	9539.949219	50.298004
476.859070	731.361633	18448.919922	9657.496094	50.380161
477.213135	735.299805	18647.306641	9751.563477	50.336422
477.567200	726.086182	18960.271484	9928.032227	50.465355
477.921173	722.296814	19336.984375	10112.303711	50.444073
478.275146	717.169861	19762.443359	10314.257813	50.390915
478.629089	730.618652	20095.392578	10432.399414	50.100155
478.983002	731.435974	20490.089844	10605.673828	49.974243
479.336823	729.058289	20860.193359	10769.808594	49.876720
479.690643	720.810730	21228.660156	10995.987305	50.103630
480.044403	718.878906	21614.884766	11211.909180	50.215485
480.398163	723.262695	22142.359375	11506.964844	50.346203
480.751862	721.628113	22894.599609	11888.807617	50.363930
481.105499	717.912903	23808.226563	12399.340820	50.590164
481.459137	719.993408	24988.375000	13027.049805	50.712311
481.812744	720.810730	26433.046875	13842.523438	51.032951
482.166290	730.544434	28209.771484	14774.799805	51.108627
482.519806	727.795166	30341.294922	15893.054688	51.210629
482.873291	729.727051	32770.546875	17118.158203	51.148602
483.226715	719.844788	35465.433594	18548.560547	51.312168
483.580139	719.027527	38193.453125	20012.992188	51.485683
483.933502	719.027405	41202.191406	21574.537109	51.516502
484.286804	725.789063	44150.894531	23062.896484	51.438232
484.640106	724.525879	46969.718750	24508.677734	51.430542
484.993347	724.674500	49013.937500	25631.986328	51.579403
485.346558	717.169861	50221.359375	26364.537109	51.808475
485.699738	721.479431	50366.027344	26489.068359	51.904171
486.052887	720.439148	49661.265625	26092.218750	51.841743
486.405975	718.730164	48318.468750	25322.587891	51.689060
486.759064	715.312256	46491.359375	24333.992188	51.596153
487.112061	711.894348	44614.625000	23357.876953	51.582172
487.464996	712.191589	43118.984375	22547.531250	51.490192
487.817963	716.872620	42362.207031	22105.208984	51.358299
488.170868	722.816895	42171.996094	21916.927734	51.132763
488.523743	719.696106	42340.886719	21988.998047	51.102100
488.876587	713.751953	42549.230469	22065.234375	51.036785
489.229401	715.237976	42512.226563	22092.947266	51.146530
489.582153	724.600098	42125.109375	21871.154297	51.078007
489.934845	726.829285	41400.359375	21513.833984	51.106956
490.287537	723.485596	40527.753906	21077.007813	51.134014
490.640198	725.863281	39586.558594	20638.695313	51.241573
490.992798	723.782898	38688.089844	20245.634766	51.421593
491.345337	725.417480	38184.167969	19945.822266	51.310852
491.697876	720.736328	37948.332031	19799.890625	51.250034
492.050354	733.293518	38199.027344	19861.119141	51.054188
492.402832	733.145020	38489.773438	20000.287109	51.029827
492.755219	739.906555	38755.703125	20081.724609	50.878372
493.107605	729.206970	38652.574219	19974.501953	50.747852
493.459930	727.126465	38156.230469	19701.218750	50.693417
493.812225	722.668274	37079.882813	19185.556641	50.781910
494.164490	721.405090	35593.457031	18453.898438	50.850163
494.516724	714.420654	33823.566406	17580.693359	50.941437
494.868896	716.798340	32044.236328	16673.232422	50.934372
495.221039	716.352539	30520.736328	15900.039063	50.944477
495.573120	723.708496	29204.908203	15252.120117	51.010536
495.925201	722.742615	28403.851563	14862.401367	51.080536
496.277222	726.606262	27862.703125	14623.742188	51.212727
496.629211	723.411316	27694.333984	14507.753906	51.108162
496.981140	717.838562	27590.828125	14458.418945	51.131565
497.333069	714.420654	27669.591797	14487.395508	51.095852
497.684967	718.061523	27755.632813	14564.893555	51.213299
498.036804	716.203918	27881.875000	14639.864258	51.254612
498.388580	716.724121	27865.453125	14612.448242	51.183704
498.740326	712.860352	27796.500000	14576.708008	51.189011
499.092072	717.392822	27621.443359	14466.887695	51.105667
499.443756	714.866455	27398.833984	14365.762695	51.157673
499.795410	717.838623	27162.771484	14201.331055	50.987053
500.147003	723.411316	26860.062500	14052.129883	50.996277
500.498566	725.937561	26520.275391	13897.729492	51.064663
500.850098	724.525818	26159.537109	13749.941406	51.210575
501.201599	717.689941	25856.455078	13635.143555	51.384598
501.553009	717.244141	25611.181641	13484.828125	51.287926
501.904449	714.420654	25427.431641	13410.229492	51.372971
502.255859	715.237976	25248.435547	13269.796875	51.173756
502.607178	721.776611	25168.634766	13262.960938	51.299782
502.958405	721.925232	25058.220703	13197.351563	51.262638
503.309692	718.655945	24992.093750	13205.526367	51.442528
503.660919	708.402161	24988.080078	13181.747070	51.373600
504.012115	713.751953	25023.968750	13194.379883	51.339024
504.363251	712.191589	25131.039063	13213.252930	51.194313
504.714294	725.194580	25144.931641	13243.418945	51.262733
505.065369	731.287354	25186.765625	13267.715820	51.262249
505.416443	746.073547	25222.281250	13309.325195	51.328426
505.767395	741.912659	25308.992188	13339.641602	51.278900
506.118317	734.036621	25310.181641	13357.473633	51.364597
506.469238	717.467102	25347.482422	13371.293945	51.375637
506.820160	711.671387	25294.205078	13357.176758	51.441021
507.170929	715.163635	25328.685547	13421.523438	51.623493
507.521729	717.021179	25350.304688	13451.319336	51.695496
507.872498	718.358704	25487.914063	13525.918945	51.706867
508.223236	711.299988	25671.812500	13561.956055	51.483944
508.573883	715.906799	25798.720703	13643.242188	51.538612
508.924500	716.872742	25937.369141	13718.289063	51.550991
509.275116	721.405090	26103.734375	13830.336914	51.645897
509.625702	722.148132	26354.953125	13953.457031	51.618652
509.976196	723.931335	26616.720703	14110.606445	51.700397
510.326660	723.114075	26853.447266	14217.750977	51.643566
510.677124	729.281250	27069.000000	14343.249023	51.686077
511.027557	737.305847	27267.611328	14476.547852	51.786976
511.377869	747.039551	27476.697266	14622.331055	51.909721
511.728180	741.838318	27641.726563	14679.468750	51.812969
512.078430	728.240967	27807.048828	14705.995117	51.618793
512.428650	714.346375	27950.232422	14735.640625	51.480953
512.778931	712.860352	28051.431641	14818.414063	51.595798
513.129028	720.141907	28105.451172	14833.350586	51.535694
513.479126	725.640381	28120.236328	14859.875000	51.594975
513.829285	725.714661	28119.271484	14877.781250	51.662025
514.179382	723.857117	28120.833984	14924.370117	51.832409
514.529297	724.600098	28101.437500	14906.760742	51.803501
514.879272	724.971680	28188.148438	14931.725586	51.730194
515.229187	720.810730	28098.687500	14898.364258	51.784710
515.579163	719.473206	28162.515625	14951.194336	51.859119
515.928955	714.420654	28141.787109	14962.710938	51.949173
516.278748	718.433044	28331.478516	15046.300781	51.888042
516.628540	722.519714	28513.447266	15151.290039	51.918995
516.978333	730.692932	28850.927734	15330.062500	51.917664
517.327942	726.309082	29278.244141	15551.188477	51.922501
517.677612	722.296814	29751.478516	15805.006836	51.957062
518.027222	717.615723	30272.634766	16062.539063	51.919857
518.376831	714.866455	30927.021484	16385.162109	51.867523
518.726379	709.145203	31560.080078	16712.835938	51.874249
519.075867	707.064697	32137.859375	16961.601563	51.715324
519.425293	721.033630	32574.833984	17222.107422	51.802528
519.774658	726.086243	32939.140625	17367.146484	51.659367
520.124084	727.423645	33140.277344	17501.560547	51.751495
520.473389	719.919006	33100.671875	17465.078125	51.713310
520.822693	717.689941	32885.496094	17386.687500	51.818882
521.171997	724.228577	32563.763672	17243.654297	51.883377
521.521240	727.720886	32195.146484	17073.650391	51.945557
521.870361	733.442139	31813.005859	16898.296875	52.011200
522.219482	725.343201	31458.507813	16695.970703	51.965454
522.568604	721.479431	31159.736328	16547.958984	51.995354
522.917664	721.182190	30966.031250	16400.095703	51.839943
523.266724	724.525879	30892.544922	16389.396484	51.925423
523.615662	721.628113	31038.697266	16462.583984	51.921101
523.964600	714.197754	31343.115234	16687.945313	52.152504
524.313538	714.792175	31822.294922	16921.923828	52.100395
524.662354	722.965393	32426.750000	17224.560547	52.049294
525.011169	731.584656	33165.019531	17607.294922	52.031834
525.359985	727.275085	34026.484375	18104.154297	52.184055
525.708740	716.798340	35049.484375	18650.726563	52.235725
526.057434	717.392822	36188.988281	19262.609375	52.281883
526.406067	716.055359	37543.378906	19992.708984	52.343346
526.754700	717.392761	39041.250000	20855.064453	52.546047
527.103333	709.962463	40785.730469	21840.689453	52.726940
527.451782	707.882019	42682.082031	22911.617188	52.898529
527.800293	715.535156	44673.394531	23989.525391	52.946140
528.148743	716.649719	46665.300781	25116.103516	53.101563
528.497131	724.005676	48548.207031	26181.007813	53.230373
528.845642	721.330811	50240.453125	27226.818359	53.525764
529.193909	722.593933	51714.988281	28153.822266	53.794746
529.542175	719.324646	52929.613281	28951.384766	54.073750
529.890503	718.061462	53747.761719	29556.134766	54.380989
530.238770	714.569153	54091.859375	29755.343750	54.406612
530.586914	710.705505	53936.050781	29676.359375	54.420792
530.934998	715.163635	53220.066406	29099.177734	54.059738
531.283142	722.222412	52070.457031	28400.283203	53.902653
531.631226	731.807434	50339.500000	27294.734375	53.545986
531.979248	721.479431	48384.296875	26175.289063	53.403915
532.327148	716.055359	46383.769531	24960.140625	53.088020
532.675110	712.414490	44704.234375	24004.015625	52.945301
533.023071	715.460876	43598.531250	23329.939453	52.735214
533.370850	722.296814	43032.199219	22977.521484	52.600510
533.718689	721.479431	43113.410156	22934.203125	52.398476
534.066467	725.640381	43370.277344	23027.156250	52.296181
534.414246	720.290527	43674.394531	23122.337891	52.153446
534.761963	713.677673	43782.433594	23196.492188	52.202145
535.109619	717.541443	43858.441406	23231.117188	52.186153
535.457153	713.603333	43577.730469	23129.173828	52.294472
535.804749	720.885010	43049.136719	22853.437500	52.287899
536.152344	715.386536	42200.902344	22417.281250	52.311981
536.499817	723.857117	41233.925781	21885.273438	52.237423
536.847229	712.191589	40214.937500	21318.341797	52.163841
537.194641	708.922302	39241.644531	20779.720703	52.087673
537.542114	705.281433	38556.648438	20413.927734	52.068520
537.889404	716.724060	38028.578125	20088.929688	51.919704
538.236694	719.696106	37663.976563	19920.187500	51.971485
538.583984	713.974854	37394.554688	19759.992188	51.923985
538.931213	712.340149	37239.488281	19743.125000	52.100384
539.278381	706.470276	37142.968750	19706.640625	52.145981
539.625488	713.231873	37049.343750	19711.396484	52.284523
539.972595	709.293762	37118.964844	19782.578125	52.385216
540.319641	714.272156	37422.488281	19941.736328	52.379189
540.666687	714.197754	37989.121094	20244.443359	52.395138
541.013611	717.169922	38936.781250	20723.177734	52.344879
541.360596	721.925293	40047.312500	21245.453125	52.189003
541.707458	719.250305	41359.273438	21917.296875	52.160519
542.054260	718.953125	42542.691406	22521.822266	52.130367
542.401062	724.897278	43758.730469	23202.361328	52.232079
542.747864	725.640381	44688.550781	23645.505859	52.134548
543.094666	728.686829	45237.875000	23910.986328	52.084301
543.441284	725.640442	45166.246094	23866.703125	52.071888
543.787903	724.451599	44637.503906	23621.208984	52.141125
544.134460	721.702332	43729.980469	23116.837891	52.071686
544.481079	715.089355	42489.042969	22477.835938	52.096447
544.827637	720.736328	40963.832031	21652.406250	52.013073
545.174072	718.210144	39281.101563	20801.343750	52.078911
545.520508	722.593933	37806.121094	19998.947266	51.980907
545.866943	719.547546	36607.390625	19352.142578	51.918961
546.213318	728.612488	35649.257813	18820.136719	51.807529
546.559631	731.213074	34834.597656	18386.208984	51.769047
546.905823	726.309082	34113.265625	18002.732422	51.746029
547.252136	720.141907	33584.828125	17712.283203	51.703339
547.598389	714.717957	33102.230469	17456.162109	51.691044
547.944458	719.696106	32790.160156	17264.535156	51.589024
548.290588	727.275085	32391.007813	17058.121094	51.575871
548.636658	732.550476	31993.490234	16788.179688	51.360035
548.982727	730.024231	31399.587891	16488.888672	51.382744
549.328735	723.857117	30821.365234	16175.924805	51.340023
549.674622	719.696106	30097.359375	15848.622070	51.498055
550.020569	723.708496	29439.556641	15512.476563	51.500370
550.366455	720.439209	28655.140625	15127.215820	51.573048
550.712280	711.151367	27985.822266	14785.202148	51.601173
551.058044	710.854187	27366.359375	14483.682617	51.669731
551.403748	713.528992	26865.708984	14227.039063	51.672596
551.749512	720.290588	26536.919922	14046.854492	51.620075
552.095154	713.603333	26311.115234	13916.601563	51.579224
552.440735	720.810730	26258.580078	13887.104492	51.556164
552.786316	717.615723	26213.033203	13853.073242	51.520855
553.131897	722.593994	26222.619141	13855.747070	51.502510
553.477417	717.838562	26203.744141	13855.377930	51.548252
553.822815	721.850891	26183.609375	13828.331055	51.475159
554.168213	724.302979	26139.843750	13799.278320	51.444805
554.513672	721.553711	26099.500000	13763.315430	51.390141
554.859009	724.005676	26024.156250	13724.456055	51.384872
555.204285	730.024231	25902.599609	13660.926758	51.369007
555.549500	736.711487	25727.093750	13552.296875	51.282066
555.894714	733.888000	25543.492188	13474.575195	51.353855
556.239990	728.909729	25280.906250	13356.507813	51.432060
556.585022	725.714661	25067.062500	13222.243164	51.338688
556.930115	724.525879	24788.130859	13079.061523	51.341164
557.275146	722.222473	24545.009766	12952.450195	51.338356
557.620178	719.176086	24307.093750	12847.385742	51.417042
557.965149	725.566101	24097.859375	12755.772461	51.472084
558.310059	718.210144	23937.216797	12654.347656	51.406757
558.654968	722.371094	23801.390625	12556.268555	51.275562
558.999756	712.637390	23680.650391	12463.090820	51.160076
559.344604	724.451477	23630.865234	12439.166992	51.141640
559.689331	717.987244	23534.568359	12421.409180	51.293491
560.033997	723.039795	23472.080078	12395.403320	51.309254
560.378723	718.804504	23404.017578	12372.815430	51.372719
560.723389	720.290588	23419.548828	12355.057617	51.256153
561.067932	713.974915	23480.552734	12351.043945	51.114704
561.412476	711.894348	23485.232422	12319.167969	50.968697
561.757019	714.494934	23448.525391	12313.148438	51.018902
562.101501	721.850891	23474.978516	12332.096680	51.027035
562.445862	727.200684	23472.970703	12337.372070	51.043213
562.790222	728.612488	23470.224609	12355.577148	51.126389
563.134644	731.658875	23417.541016	12347.774414	51.204159
563.478943	730.247070	23437.603516	12363.972656	51.233292
563.823181	727.572266	23450.384766	12372.071289	51.245853
564.167358	719.547546	23459.005859	12389.979492	51.322380
564.511536	712.637390	23491.322266	12397.483398	51.297279
564.855774	707.510559	23489.244141	12372.368164	51.202675
565.199768	713.751953	23581.306641	12378.535156	51.010189
565.543823	721.256531	23684.216797	12432.034180	50.998550
565.887817	726.234863	23905.787109	12552.331055	51.019516
566.231812	725.417480	24059.070313	12665.046875	51.169140
566.575745	726.903564	24239.330078	12727.907227	51.041115
566.919617	728.389648	24432.515625	12799.312500	50.923302
567.263428	727.869446	24647.400391	12856.749023	50.707012
567.607239	716.649719	24853.812500	12966.418945	50.750664
567.950989	716.798340	24939.187500	13018.952148	50.788361
568.294678	714.940857	25001.900391	13066.059570	50.854942
568.638367	713.900574	24929.751953	12993.614258	50.709404
568.981995	713.231750	24830.037109	12927.187500	50.645000
569.325623	712.191589	24679.203125	12864.476563	50.704216
569.669128	715.460938	24527.179688	12815.139648	50.813965
570.012573	712.191589	24396.109375	12743.957031	50.801414
570.356140	716.203918	24260.208984	12690.086914	50.857456
570.699524	714.940735	24196.013672	12655.016602	50.849792
571.042908	714.569336	24231.826172	12682.805664	50.891293
571.386230	713.008972	24330.500000	12678.421875	50.663357
571.729492	717.318542	24460.306641	12750.273438	50.680035
572.072815	726.086182	24589.369141	12801.690430	50.603283
572.416016	725.714661	24719.994141	12878.667969	50.649376
572.759094	728.761047	24844.302734	12936.549805	50.622082
573.102234	722.148193	24939.259766	12951.261719	50.497822
573.445374	719.473328	24999.595703	12983.062500	50.508759
573.788391	710.705566	25049.826172	12994.356445	50.468750
574.131409	711.374207	25078.208984	13037.156250	50.584259
574.474365	714.494934	25064.314453	13008.473633	50.488991
574.817261	724.823059	24950.703125	12976.971680	50.574627
575.160156	723.485657	24771.634766	12906.976563	50.662907
575.502930	717.838623	24602.968750	12830.296875	50.711288
575.845703	714.717957	24400.343750	12690.534180	50.561539
576.188477	722.965515	24179.888672	12540.441406	50.379478
576.531250	729.206848	23913.216797	12374.746094	50.230911
576.873901	727.126404	23688.599609	12282.610352	50.325539
577.216431	721.628113	23490.431641	12171.231445	50.286366
577.559082	723.337097	23289.072266	12079.168945	50.323345
577.901611	724.377258	23026.859375	11924.174805	50.217720
578.244080	726.309082	22751.640625	11773.859375	50.158386
578.586487	722.668274	22444.771484	11619.608398	50.165218
578.928955	764.723633	22162.865234	11601.254883	50.642395
579.271301	762.643127	21821.072266	11440.166992	50.704273
579.613647	759.819580	21434.402344	11233.753906	50.660927
579.955872	713.454651	21085.031250	10916.778320	50.086075
580.298157	715.832336	20765.974609	10763.714844	50.113773
580.640320	715.163757	20548.044922	10675.294922	50.220291
580.982483	718.581604	20296.531250	10567.258789	50.304947
581.324524	712.786072	20058.689453	10443.321289	50.297649
581.666626	716.129639	19880.361328	10331.273438	50.172337
582.008728	716.203918	19754.640625	10251.324219	50.083523
582.350647	718.210144	19643.113281	10203.993164	50.123287
582.692566	718.953125	19559.894531	10164.017578	50.130535
583.034424	726.383362	19495.548828	10112.897461	50.010288
583.376343	717.244141	19459.140625	10071.807617	49.912579
583.718201	720.959290	19375.029297	10012.217773	49.808212
584.059937	715.683777	19305.703125	9985.096680	49.862309
584.401611	721.107910	19219.736328	9944.973633	49.862427
584.743347	719.770447	19132.728516	9937.915039	50.063351
585.085022	710.928406	19015.775391	9893.704102	50.165813
585.426514	713.008972	18966.587891	9815.909180	49.869129
585.768127	702.978027	18893.548828	9747.625000	49.721622
586.109619	704.166809	18840.570313	9689.372070	49.542374
586.451172	707.436218	18766.490234	9703.266602	49.813404
586.792542	715.832458	18754.601563	9668.790039	49.631756
587.133850	721.330872	18695.603516	9642.561523	49.633331
587.475220	726.977844	18638.539063	9614.103516	49.616703
587.816589	732.104675	18572.783203	9616.257813	49.797173
588.157776	738.791992	18642.406250	9625.695313	49.637486
588.498962	734.928223	18723.468750	9641.372070	49.511761
588.840210	718.581726	18787.146484	9661.286133	49.493164
589.181335	714.049133	18815.306641	9699.625977	49.640621
589.522400	717.095520	18847.183594	9710.771484	49.606354
589.863403	728.538269	18908.482422	9729.792969	49.512009
590.204407	739.312073	18912.419922	9705.125000	49.335606
590.545410	734.556702	18989.767578	9731.352539	49.283440
590.886353	739.237793	18991.626953	9739.526367	49.310200
591.227112	727.572266	19005.150391	9740.937500	49.313782
591.567932	724.748718	18936.716797	9687.291992	49.212379
591.908752	717.021240	18858.478516	9655.936523	49.273415
592.249512	719.696106	18850.304688	9653.855469	49.276661
592.590149	717.467102	18766.193359	9631.861328	49.390713
592.930786	719.101746	18731.119141	9587.354492	49.235199
593.271423	715.386536	18614.910156	9555.107422	49.385231
593.612000	724.451477	18542.167969	9505.844727	49.284618
593.952576	725.863281	18481.314453	9490.538086	49.363289
594.292969	732.624817	18481.908203	9474.933594	49.254433
594.633484	724.748718	18497.289063	9508.964844	49.425774
594.973877	728.686768	18568.025391	9560.233398	49.506023
595.314209	716.872620	18664.398438	9606.375977	49.530521
595.654480	720.067627	18874.080078	9668.269531	49.290493
595.994812	712.265930	19041.556641	9728.379883	49.189651
596.335022	719.473328	19233.927734	9805.581055	49.075748
596.675171	719.919128	19371.982422	9895.932617	49.195705
597.015320	726.309082	19565.392578	9961.022461	49.018906
597.355408	726.309082	19714.593750	10029.157227	48.992565
597.695496	731.956055	19856.361328	10077.306641	48.866096
598.035461	728.389587	19919.445313	10092.166992	48.792400
598.375366	725.640381	19926.205078	10084.069336	48.740383
598.715271	718.284424	19885.562500	10059.696289	48.736248
599.055176	726.011902	19765.638672	10007.461914	48.748066
599.395081	722.965515	19600.166016	9914.732422	48.692421
599.734802	730.395691	19329.925781	9777.049805	48.639156
600.074524	723.411316	19013.025391	9626.660156	48.679264
600.414246	726.383362	18602.130859	9455.616211	48.832825
600.753906	718.878845	18198.146484	9282.340820	48.992111
601.093506	718.358704	17808.728516	9096.584961	49.023087
601.433044	719.473145	17564.865234	8970.493164	48.980869
601.772583	719.101746	17406.154297	8879.398438	48.901966
602.112122	720.067688	17364.173828	8857.850586	48.892879
602.451538	724.005676	17329.326172	8821.665039	48.765450
602.790894	720.885010	17364.396484	8834.295898	48.748192
603.130310	721.702332	17477.560547	8871.373047	48.637745
603.469604	715.312317	17678.474609	8946.715820	48.525169
603.808838	718.953125	17945.222656	9049.774414	48.361145
604.148010	710.928406	18239.386719	9168.658203	48.251415
604.487305	727.200684	18511.705078	9294.675781	48.173817
604.826416	733.293518	18744.423828	9384.656250	48.033421
605.165527	737.900330	18920.373047	9469.659180	48.022945
605.504456	720.141907	19116.826172	9561.868164	48.061523
605.843445	713.974854	19249.978516	9635.576172	48.131203
606.182434	716.055359	19339.662109	9654.969727	47.997757
606.521423	724.080078	19294.708984	9634.016602	47.978645
606.860229	731.584656	19137.556641	9574.202148	48.042107
607.199036	728.018066	18946.896484	9508.073242	48.192070
607.537903	725.268799	18760.322266	9422.549805	48.224319
607.876648	716.946960	18534.515625	9291.257813	48.122787
608.215271	723.039795	18198.445313	9150.750977	48.226124
608.553955	723.188477	17846.027344	8981.712891	48.231045
608.892578	728.315247	17574.304688	8870.110352	48.330757
609.231140	722.965515	17449.177734	8775.819336	48.145111
609.569641	721.256531	17360.087891	8712.365234	48.026863
609.908081	723.188416	17304.583984	8667.486328	47.910908
610.246521	722.371094	17280.658203	8651.734375	47.887581
610.584961	725.789001	17321.673828	8669.938477	47.868187
610.923340	721.627991	17359.419922	8694.533203	47.920456
611.261597	730.841553	17356.447266	8696.836914	47.914017
611.599854	721.479431	17274.044922	8660.725586	47.963837
611.938110	718.210144	17210.666016	8613.542969	47.872395
612.276245	715.089355	17022.826172	8518.659180	47.851952
612.614319	721.107910	16790.630859	8407.576172	47.832584
612.952393	714.569275	16469.123047	8243.292969	47.787601
613.290466	715.386658	16175.851563	8079.975098	47.634975
613.628479	716.872620	15848.176758	7933.970703	47.696472
613.966370	725.863281	15568.502930	7804.386719	47.690460
614.304260	724.154297	15320.776367	7688.103027	47.709316
614.642151	724.748779	15107.304688	7551.831543	47.467800
614.979980	725.714661	14902.598633	7451.820313	47.444176
615.317749	729.355469	14699.159180	7364.216797	47.494305
615.655396	730.024231	14608.359375	7310.421875	47.414890
615.993164	724.674500	14512.137695	7265.023438	47.436932
616.330811	722.371094	14456.411133	7245.480957	47.495930
616.668396	719.176025	14373.489258	7228.317871	47.670956
617.005859	722.593994	14347.187500	7202.608887	47.561157
617.343445	729.132629	14348.375000	7199.042480	47.505650
617.680908	734.333801	14375.718750	7213.531250	47.496624
618.018311	742.209900	14416.734375	7232.403809	47.461933
618.355652	730.915833	14450.393555	7237.605469	47.426655
618.692993	735.745544	14470.008789	7246.076172	47.402107
619.030273	732.179016	14470.676758	7243.326660	47.393444
619.367554	737.454407	14476.843750	7229.877441	47.254086
619.704712	724.748718	14466.516602	7217.840332	47.250774
620.041870	727.126404	14456.413086	7197.406738	47.127575
620.379028	724.600098	14406.926758	7197.704590	47.309971
620.716064	724.228577	14375.347656	7157.357910	47.125290
621.053040	714.792175	14327.050781	7125.036621	47.091705
621.389954	712.934570	14258.765625	7078.522949	46.992970
621.726929	715.163635	14162.618164	7046.275391	47.080376
622.063843	717.987244	14088.092773	7037.433594	47.265491
622.400635	714.123535	14051.684570	7013.285156	47.228737
622.737427	718.284424	14035.856445	6984.084473	47.049114
623.074219	717.615723	13998.781250	6976.356934	47.124939
623.410889	724.377197	13928.862305	6934.895996	47.033401
623.747559	719.324646	13874.769531	6904.432129	47.015568
624.084167	727.572205	13827.661133	6845.807129	46.703766
624.420715	726.011902	13809.085938	6838.376953	46.719639
624.757324	730.172852	13787.093750	6853.386230	46.896305
625.093750	723.262695	13843.340820	6889.720215	47.000160
625.430176	729.281250	13899.588867	6907.255371	46.908352
625.766602	737.900330	13938.448242	6911.416016	46.767117
626.102905	743.101563	13974.484375	6904.060059	46.563225
626.439209	744.290344	14036.007813	6932.369629	46.555901
626.775452	733.219238	14167.523438	6974.945313	46.461102
627.111694	723.559875	14232.909180	7008.975098	46.526409
627.447876	715.015137	14303.942383	7052.145996	46.634518
627.783997	713.306152	14352.387695	7069.012207	46.599220
628.120056	717.392761	14423.198242	7108.764160	46.632587
628.456055	719.027344	14488.734375	7088.702637	46.258610
628.792053	715.683777	14458.121094	7091.080566	46.392040
629.128052	713.157532	14384.932617	7055.712402	46.391594
629.463928	715.535217	14279.347656	7025.173828	46.518181
629.799744	721.925232	14197.317383	6964.171387	46.323296
630.135559	723.559875	14083.782227	6901.162598	46.238770
630.471375	715.015076	13957.692383	6833.993652	46.206505
630.807068	720.142029	13771.268555	6764.966309	46.316494
631.142700	729.281250	13648.593750	6684.496094	46.095448
631.478333	731.658936	13482.377930	6616.435059	46.152508
631.813965	723.485596	13364.905273	6553.871582	46.121288
632.149475	711.968689	13221.574219	6495.543457	46.233070
632.484924	714.197754	13116.881836	6445.760254	46.212276
632.820435	716.501038	13039.383789	6401.922363	46.137104
633.155884	718.730164	12962.554688	6352.882813	46.016285
633.491150	729.355469	12900.289063	6315.435059	45.896885
633.826477	727.200684	12847.312500	6281.923340	45.830624
634.161804	734.110840	12788.463867	6260.152832	45.842709
634.497009	725.491699	12729.691406	6215.571777	45.734665
634.832153	724.674377	12618.237305	6164.822754	45.740276
635.167297	718.804504	12542.225586	6130.048828	45.767162
635.502380	718.358704	12446.002930	6092.377441	45.823513
635.837463	726.903503	12387.006836	6054.854004	45.693855
636.172424	727.943787	12278.450195	6021.790527	45.832161
636.507324	722.073792	12200.877930	5989.616699	45.889301
636.842224	716.203918	12102.575195	5947.412598	45.942719
637.177124	715.758118	11998.997070	5886.633301	45.827930
637.511963	722.593933	11879.445313	5816.119629	45.653793
637.846741	721.627991	11756.176758	5745.606934	45.529537
638.181396	726.234802	11641.898438	5685.644531	45.433880
638.516113	728.835449	11537.950195	5633.781250	45.377865
638.850769	726.903564	11430.731445	5594.623535	45.476437
639.185303	720.885010	11349.295898	5553.459473	45.468452
639.519836	720.141907	11274.620117	5514.004395	45.420174
639.854370	720.810730	11189.692383	5485.472656	45.512619
640.188843	723.114075	11078.386719	5411.169922	45.272160
640.523254	717.169861	10956.085938	5373.646973	45.478222
640.857605	720.439209	10862.983398	5313.387207	45.283985
641.191895	716.501160	10794.031250	5293.548828	45.418350
641.526184	716.501160	10733.844727	5241.908203	45.175720
641.860413	710.779785	10692.161133	5200.521484	44.981167
642.194580	713.603333	10605.970703	5161.438477	44.962292
642.528748	716.501160	10542.886719	5140.633789	45.022991
642.862793	724.451477	10479.284180	5119.903320	45.059219
643.196838	727.795105	10452.386719	5095.011719	44.909000
643.530823	728.018066	10388.932617	5056.374512	44.802765
643.864746	725.268860	10319.384766	5018.628906	44.749924
644.198669	722.148132	10255.485352	4996.857910	44.839600
644.532532	724.748779	10196.117188	4982.592285	44.954895
644.866333	728.018066	10164.315430	4978.431152	45.043232
645.200073	733.293518	10131.027344	4971.595215	45.099190
645.533813	728.835388	10096.922852	4954.134277	45.103107
645.867554	725.045898	10064.898438	4933.998047	45.064438
646.201172	718.358704	10048.551758	4912.524902	44.952618
646.534729	726.383484	10089.864258	4913.639160	44.719009
646.868225	723.485657	10096.848633	4921.218262	44.783630
647.201782	725.789063	10097.071289	4922.258301	44.780098
647.535217	723.039795	10098.779297	4911.855469	44.677174
647.868591	734.408142	10112.600586	4911.632813	44.541897
648.201965	737.751709	10150.124023	4906.654785	44.291740
648.535278	737.231628	10135.633789	4924.858398	44.556797
648.868591	728.909729	10139.497070	4903.385254	44.359356
649.201782	722.519714	10101.826172	4890.976563	44.443127
649.534912	718.210144	10081.245117	4869.948730	44.341805
649.868103	716.426819	10013.925781	4839.559082	44.346684
650.201172	717.912903	9971.424805	4826.407715	44.399303
650.534180	717.541443	9941.480469	4786.952637	44.117931
650.867188	725.045959	9912.949219	4791.782715	44.261860
651.200134	725.120300	9872.007813	4784.352051	44.378284
651.533020	724.154297	9806.472656	4763.175781	44.471260
651.865845	726.531982	9763.526367	4725.355469	44.249485
652.198608	733.813660	9727.266602	4682.557129	43.906864
652.531433	742.432800	9688.257813	4671.263184	43.918030
652.864136	731.510315	9663.291992	4662.124023	44.007053
653.196777	1345.102173	10317.602539	5307.443359	44.160950
653.529358	1369.027466	10284.016602	5309.523926	44.200802
653.861938	1371.851074	10223.534180	5274.081543	44.084614
654.194519	751.200500	9449.671875	4583.660645	44.059006
654.526978	720.959412	9408.433594	4531.425781	43.861610
654.859375	717.169922	9342.155273	4504.454102	43.910614
655.191833	717.764343	9319.195313	4491.153809	43.869324
655.524170	713.306152	9261.313477	4467.748535	43.921841
655.856445	721.033691	9219.110352	4452.887695	43.914104
656.188660	748.302734	9201.648438	4450.436035	43.794888
656.520874	753.058105	9148.299805	4440.404785	43.921864
656.853088	746.816589	9141.537109	4424.058594	43.804222
657.185181	719.919128	9105.797852	4391.587891	43.783947
657.517212	717.764343	9140.051758	4389.656250	43.597324
657.849243	729.429871	9158.330078	4407.637207	43.638042
658.181274	734.408020	9214.428711	4433.494629	43.621201
658.513123	731.361633	9262.206055	4448.801270	43.576454
658.844971	721.702332	9343.195313	4483.277344	43.630203
659.176819	715.238037	9426.414063	4518.942871	43.664654
659.508667	714.792175	9509.782227	4551.190430	43.620266
659.840393	713.231873	9559.788086	4567.982422	43.573456
660.172058	712.785950	9608.382813	4584.329590	43.522022
660.503662	719.621826	9661.062500	4601.418457	43.413548
660.835266	721.330811	9709.359375	4607.734375	43.239780
661.166931	722.148132	9681.644531	4605.505371	43.343479
661.498413	724.525818	9632.159180	4589.456055	43.388966
661.829773	726.680603	9528.803711	4543.239746	43.359528
662.161194	727.572266	9425.597656	4475.847656	43.093407
662.492615	721.256531	9290.811523	4412.169434	43.070065
662.823975	729.132629	9148.001953	4369.594238	43.241695
663.155212	730.470032	8983.644531	4306.511230	43.329281
663.486450	731.064514	8814.085938	4235.180664	43.351563
663.817627	722.073792	8679.152344	4161.472656	43.224392
664.148743	719.027405	8549.567383	4091.405029	43.066986
664.479858	720.513489	8419.463867	4039.467529	43.109177
664.810913	720.513489	8315.514648	3983.888672	42.967411
665.141907	722.742493	8229.917969	3956.322510	43.073193
665.472778	725.120178	8173.076172	3927.344727	42.994675
665.803711	727.943787	8125.002441	3911.741211	43.041397
666.134583	724.748718	8085.770996	3888.930420	42.985626
666.465454	726.754883	8063.109375	3879.567627	42.975197
666.796143	727.349304	7998.687988	3843.382080	42.853630
667.126831	727.720886	7996.830566	3835.877930	42.758427
667.457458	727.200745	7951.505371	3811.209229	42.689346
667.788147	724.302917	7939.021973	3800.584229	42.638962
668.118774	725.343079	7880.917969	3784.832031	42.756721
668.449219	724.302917	7887.605469	3773.612549	42.568485
668.779663	729.727051	7885.524902	3783.494873	42.675434
669.110107	734.110840	7875.493652	3778.590576	42.631516
669.440552	727.052063	7826.008301	3765.216064	42.797337
669.770874	724.674500	7799.779297	3735.718018	42.558285
670.101135	720.067688	7791.753906	3714.690186	42.346657
670.431396	723.411316	7783.433105	3688.461670	41.997749
670.761597	722.519714	7736.622559	3677.241455	42.125439
671.091797	721.479431	7677.552246	3662.604248	42.281399
671.421875	717.169861	7616.919922	3644.325439	42.424080
671.751892	715.386536	7584.003906	3620.325439	42.292923
672.081909	714.940735	7572.636230	3583.397217	41.828289
672.411865	718.878845	7543.509277	3570.468506	41.783794
672.741821	719.919128	7490.754395	3550.481201	41.805210
673.071716	717.689941	7448.921875	3544.685547	41.998192
673.401550	719.621826	7420.092285	3523.955322	41.852783
673.731262	713.529053	7399.659668	3514.073242	41.885872
674.060974	718.210144	7312.205078	3484.500732	41.951660
674.390625	714.494934	7268.292480	3467.113281	42.000359
674.720276	721.182190	7229.283203	3439.696045	41.771233
675.049927	720.290527	7207.661621	3444.451172	41.991749
675.379395	723.114075	7173.407715	3430.630859	41.975094
675.708923	720.216309	7119.761230	3404.847656	41.950348
676.038330	726.309082	7089.891113	3356.253906	41.328056
676.367737	730.990173	7051.031250	3333.888672	41.184834
676.697083	738.049011	7018.189453	3330.619385	41.282043
677.026428	749.937317	6980.592285	3335.894775	41.503784
677.355652	745.256348	6934.078613	3321.628906	41.629448
677.684875	745.627869	6943.812500	3322.594727	41.576153
678.013977	729.652649	6933.335938	3299.635010	41.426720
678.343079	730.024170	6956.071777	3299.189453	41.264786
678.672180	723.336975	6926.722656	3299.338135	41.525730
679.001221	716.946960	6973.979980	3315.833252	41.535439
679.330139	715.163757	6996.790527	3336.637939	41.732407
679.659058	716.203918	7044.566406	3334.186279	41.369034
679.987976	719.993347	7046.572754	3341.021729	41.428837
680.316772	715.832458	7090.411621	3341.764893	41.193817
680.645630	711.448547	7123.179199	3344.885742	41.072178
680.974304	720.141907	7189.011719	3356.848389	40.759926
681.302979	724.525818	7207.884277	3365.764648	40.738743
681.631653	723.188416	7236.861816	3380.327881	40.793255
681.960266	715.015137	7254.545410	3394.073975	40.967144
682.288757	717.987244	7276.613281	3399.275146	40.881855
682.617249	720.216309	7282.929688	3405.813721	40.922058
682.945679	722.965515	7261.232910	3390.953125	40.805725
683.274109	722.891174	7239.388184	3377.950195	40.743656
683.602478	727.052063	7192.355469	3356.848389	40.675529
683.930725	728.686768	7116.863281	3331.139404	40.738583
684.259033	725.566101	7032.381348	3307.065430	40.931900
684.587280	722.148132	6962.981934	3265.381592	40.751499
684.915344	721.850891	6906.363281	3247.548828	40.839081
685.243469	727.275085	6849.596191	3214.112549	40.619190
685.571533	730.544373	6776.928223	3191.153320	40.695545
685.899536	724.748718	6705.597656	3147.240234	40.504139
686.227539	717.541321	6627.505859	3106.596680	40.424194
686.555420	715.535156	6603.654785	3090.993164	40.343235
686.883301	712.786072	6589.313965	3089.730225	40.448105
687.211121	720.216309	6574.453613	3091.810547	40.510731
687.538940	725.194580	6548.818848	3077.990234	40.400887
687.866638	730.544434	6535.815918	3063.352539	40.184307
688.194336	723.634216	6539.679199	3051.241211	40.020443
688.521973	719.101746	6540.645996	3049.532471	40.031139
688.849609	723.114075	6531.357910	3033.037109	39.769733
689.177063	720.587830	6532.621094	3026.349854	39.672211
689.504578	718.655945	6494.206543	3002.424561	39.542004
689.832031	715.312317	6466.490723	2992.839111	39.601048
690.159485	721.702332	6384.386719	2977.384033	39.834141
690.486816	728.166687	6310.753418	2952.343994	39.841335
690.814087	729.949951	6236.524902	2927.675781	39.910938
691.141296	730.470032	6134.878418	2889.855713	39.956009
691.468506	727.869385	6032.563965	2845.422852	39.918484
691.795715	720.364807	5894.286621	2796.977295	40.136139
692.122803	725.937561	5824.292969	2758.934326	39.875542
692.449829	718.284424	5768.492188	2740.655518	40.045303
692.776855	718.135803	5720.566406	2708.854248	39.795025
693.103821	710.036865	5652.951172	2675.566650	39.764595
693.430664	712.786072	5572.480469	2644.359375	39.746807
693.757568	721.182190	5517.273438	2620.805664	39.607742
694.084351	719.621887	5463.775879	2589.301514	39.410183
694.411133	725.120300	5415.256348	2568.273682	39.298504
694.737854	720.141907	5360.792480	2548.657471	39.402142
695.064575	725.863281	5333.375000	2536.026123	39.287212
695.391174	722.371094	5330.849121	2516.187256	38.924263
695.717773	725.937561	5303.356934	2504.298584	38.850735
696.044250	721.627991	5279.951660	2491.890381	38.835819
696.370789	717.615540	5250.750488	2494.565186	39.199139
696.697205	717.467041	5273.858398	2503.630127	39.201263
697.023621	719.324524	5319.852051	2524.732178	39.243496
697.349915	726.903503	5384.718262	2543.531006	39.001709
697.676208	722.593994	5457.312012	2554.230225	38.685226
698.002380	722.891113	5511.850098	2576.149414	38.698563
698.328674	720.884949	5598.338379	2612.706787	38.787079
698.654724	723.559875	5688.318848	2648.520508	38.772491
698.980896	726.234863	5786.250000	2686.266357	38.735683
699.306946	726.680664	5867.611816	2704.024658	38.462761
699.632935	729.875671	5940.650879	2730.402100	38.392105
699.958862	722.519714	5995.932129	2748.903564	38.426422
700.284729	720.142029	6013.467285	2752.618408	38.396965
700.610596	714.569275	5989.244629	2742.513428	38.446804
700.936340	712.414551	5913.529785	2706.179443	38.333412
701.262146	710.631287	5797.469238	2656.619385	38.255360
701.587830	711.745789	5660.158203	2608.397217	38.328480
701.913513	708.922180	5525.595703	2570.279541	38.644047
702.239075	712.265869	5391.776855	2517.302002	38.573181
702.564697	713.528992	5268.954590	2464.398438	38.434814
702.890137	721.405090	5120.869629	2401.389648	38.186119
703.215698	715.163757	4998.492676	2356.287842	38.314217
703.541016	708.773621	4888.673340	2312.523438	38.368137
703.866455	712.191589	4824.624512	2279.161621	38.103233
704.191711	722.668274	4759.163574	2263.855469	38.181320
704.517029	726.532043	4677.579102	2233.762695	38.147629
704.842163	731.213074	4623.263672	2205.081787	37.868694
705.167419	729.132568	4572.143555	2171.125244	37.522472
705.492493	735.894226	4547.103516	2161.243164	37.398861
705.817566	724.302917	4484.020996	2140.661377	37.671932
706.142578	725.343201	4457.123047	2127.881348	37.583626
706.467590	722.668274	4429.705566	2120.228271	37.700188
706.792480	724.451477	4427.401855	2128.401367	37.914360
707.117371	721.627991	4429.036621	2130.333496	37.997040
707.442200	727.497864	4436.838379	2129.664551	37.800972
707.766907	726.829163	4446.646484	2118.816650	37.420856
708.091675	719.250305	4421.829102	2108.265381	37.514801
708.416321	710.928467	4397.978027	2097.194336	37.598244
708.741028	714.346375	4399.241211	2104.996094	37.739197
709.065552	719.696106	4425.172852	2111.311768	37.555645
709.390137	722.073914	4463.438965	2114.432617	37.215260
709.714600	723.039795	4480.454590	2112.352295	36.975224
710.039063	725.640381	4507.277344	2130.779053	37.156891
710.363403	726.754944	4538.187012	2155.819092	37.494152
710.687744	722.742615	4583.437500	2162.208984	37.285160
711.012085	725.789001	4619.103027	2165.849854	36.988049
711.336304	721.553711	4655.957031	2171.868408	36.862381
711.660461	722.742493	4700.910156	2188.661133	36.849091
711.984619	722.668274	4731.374512	2194.828125	36.724064
712.308716	728.240906	4767.039551	2193.193359	36.271984
712.632751	727.943665	4769.863281	2196.611328	36.335896
712.956726	720.884949	4776.401855	2195.496826	36.360638
713.280701	724.525879	4743.931641	2187.397705	36.395226
713.604553	724.080078	4706.037109	2179.298828	36.545315
713.928467	725.863281	4656.180176	2158.345459	36.446991
714.252258	722.371094	4577.567383	2130.481689	36.525005
714.575989	721.182190	4518.348145	2103.807373	36.412029
714.899719	723.485657	4437.878418	2082.110840	36.577316
715.223267	720.439148	4388.987793	2058.036621	36.461216
715.546936	726.457703	4331.997559	2034.482788	36.278206
715.870422	724.377258	4301.607422	2017.170288	36.139496
716.193970	724.005676	4279.762207	1995.176758	35.749668
716.517395	721.627991	4262.970215	1978.012695	35.477642
716.840820	722.222412	4225.893066	1961.740356	35.377697
717.164124	720.439148	4169.645996	1958.545288	35.895390
717.487488	717.021240	4119.045898	1945.988281	36.124577
717.810730	716.501160	4096.383301	1931.276367	35.941345
718.133972	714.197754	4067.256592	1910.025757	35.663795
718.457092	715.758118	4029.362305	1890.781250	35.460579
718.780212	713.454773	3969.548828	1873.691528	35.632782
719.103210	715.758118	3912.781250	1856.230469	35.672947
719.426208	712.637390	3836.621094	1833.494019	35.879082
719.749207	722.965515	3797.983398	1818.559082	35.628849
720.072083	722.965515	3753.402100	1798.348755	35.486084
720.394958	729.132629	3716.696533	1786.832031	35.403408
720.717773	718.507324	3643.508545	1757.036499	35.505257
721.040527	720.216309	3610.666748	1747.302856	35.533787
721.363281	718.135803	3577.007568	1733.705444	35.523441
721.685913	721.107910	3556.574219	1732.368042	35.664684
722.008545	720.885010	3532.722900	1718.696289	35.486088
722.331055	715.312317	3495.719971	1703.835571	35.553177
722.653503	711.745789	3465.404541	1690.312500	35.536964
722.976013	709.442383	3442.890625	1677.161133	35.402855
723.298401	713.751953	3441.181641	1669.656616	35.047821
723.620789	713.826233	3428.550537	1659.922852	34.850559
723.943115	712.340149	3417.925049	1662.374878	35.113838
724.265381	715.758118	3393.776611	1659.997070	35.258865
724.587585	720.290527	3382.185547	1649.743286	34.916958
724.909790	720.736328	3366.730469	1652.492554	35.213844
725.231873	719.250305	3370.148438	1648.108765	35.039387
725.553894	725.343201	3385.529297	1656.430664	35.000839
725.875916	932.424866	3603.310547	1793.073242	32.223331
726.197937	939.855164	3617.130615	1800.132202	32.132557
726.519775	928.189636	3614.307373	1793.444824	32.212109
726.841675	714.717834	3401.578857	1649.520386	34.791622
727.163513	704.612732	3411.757813	1640.083984	34.555637
727.485291	713.454773	3416.959229	1640.678345	34.297100
727.806946	735.968445	3463.472656	1645.953735	33.363297
728.128662	739.386414	3480.562500	1648.851685	33.177921
728.450256	743.770203	3511.323486	1656.876465	32.993267
728.771790	734.928223	3512.438232	1665.941406	33.519707
729.093323	742.507080	3528.413086	1675.154907	33.477360
729.414795	734.185120	3534.803467	1685.334351	33.962116
729.736145	731.807434	3525.812500	1672.925781	33.683487
730.057495	723.782776	3518.010986	1675.600586	34.063709
730.378845	718.210144	3515.930420	1673.223022	34.135395
730.700134	720.810730	3505.082275	1679.092773	34.417694
731.021301	725.491699	3506.791260	1671.439819	34.011013
731.342468	734.408142	3502.555908	1668.690552	33.751175
731.663574	733.962341	3514.147217	1661.185913	33.351151
731.984680	728.166687	3503.224609	1670.473755	33.956303
732.305664	724.005676	3506.271484	1669.359253	33.977829
732.626648	718.878845	3522.171875	1670.994019	33.964169
732.947571	709.219421	3550.778564	1658.882690	33.420502
733.268433	712.860291	3569.205811	1657.842285	33.083603
733.589233	715.758118	3569.874268	1660.963013	33.117252
733.909973	731.584656	3550.629883	1657.693726	32.851871
734.230713	731.956055	3517.342529	1647.662964	32.875401
734.551331	732.476257	3468.153564	1630.944824	32.842636
734.871948	727.720886	3421.268799	1624.628906	33.298389
735.192505	725.194580	3373.417969	1609.248413	33.382904
735.513062	727.052063	3332.402588	1597.731445	33.418896
735.833435	723.114075	3281.579834	1575.886353	33.331390
736.153931	719.993347	3234.620361	1559.465454	33.383564
736.474304	715.758057	3185.803467	1538.883667	33.324310
736.794617	724.451477	3155.933838	1527.663940	33.033859
737.114807	726.829285	3131.414063	1518.153320	32.908970
737.434998	723.262695	3116.479248	1506.933472	32.745502
737.755188	716.649719	3117.816406	1507.007813	32.915585
738.075256	717.244141	3117.816406	1516.890137	33.310642
738.395325	715.609558	3112.466797	1513.100586	33.272362
738.715271	717.912903	3114.770264	1500.692017	32.658558
739.035278	714.717834	3128.813232	1483.676758	31.852880
739.355164	714.569275	3157.568359	1497.422852	32.044777
739.675049	711.448547	3161.432373	1499.131714	32.150543
739.994873	717.615723	3158.014404	1511.020020	32.511257
740.314636	723.114075	3147.686279	1496.456665	31.896042
740.634277	729.132568	3138.398438	1501.137817	32.043175
740.953979	727.052063	3128.292969	1489.918335	31.769667
741.273499	734.482361	3122.200195	1490.438354	31.660191
741.593140	732.847839	3096.714600	1474.686157	31.382408
741.912598	733.888000	3059.563232	1462.500488	31.329073
742.232117	723.114197	3002.870117	1441.918579	31.529884
742.551453	718.804504	2938.524170	1425.274780	31.827003
742.870850	715.015137	2907.985596	1405.658813	31.493525
743.190063	708.996582	2866.598877	1399.045898	31.982229
743.509338	710.779785	2857.088135	1385.225586	31.423529
743.828552	719.844727	2823.875000	1375.640625	31.168558
744.147705	732.624817	2804.630127	1373.708618	30.940258
744.466797	736.191406	2771.045654	1370.885254	31.191120
744.785828	731.956055	2737.238281	1367.170044	31.677036
745.104858	730.321472	2714.873047	1350.452026	31.247894
745.423706	729.801331	2694.736816	1343.913208	31.253538
745.742615	733.516418	2687.009277	1338.192017	30.953560
746.061401	744.959045	2670.959961	1334.848267	30.627670
746.380249	741.095398	2670.662598	1321.845459	30.097427
746.698975	728.315247	2658.476807	1309.139771	30.092014
747.017639	713.974854	2644.582764	1292.272949	29.954197
747.336304	711.894348	2621.771484	1293.907593	30.473858
747.654907	719.621826	2612.855225	1297.994263	30.549452
747.973389	721.925293	2613.969971	1302.749634	30.698236
748.291931	721.776672	2615.604492	1297.474121	30.398615
748.610352	712.265930	2606.465088	1298.440186	30.945755
748.928711	713.751953	2623.703369	1310.997314	31.270185
749.247070	724.005798	2630.985107	1316.049805	31.046169
749.565308	731.287415	2623.554688	1310.551392	30.612164
749.883545	724.525879	2588.483887	1307.950684	31.300320
750.201782	715.683838	2570.725342	1300.149048	31.506853
750.519836	716.946960	2571.096924	1299.628784	31.425821
750.837952	718.433044	2554.527588	1292.867310	31.285660
751.155884	721.925232	2537.660889	1292.570190	31.427757
751.473877	712.934570	2521.016846	1281.201782	31.429279
751.791809	714.940735	2514.998535	1267.084106	30.673645
752.109619	712.191589	2510.317627	1259.059570	30.413218
752.427490	718.358704	2504.224609	1259.505371	30.301640
752.745300	724.748718	2511.803467	1256.682007	29.765921
753.062988	729.429871	2511.060547	1245.090698	28.943195
753.380615	731.213074	2498.503418	1228.966919	28.164804
753.698303	722.445313	2485.351807	1226.886353	28.614168
754.015808	721.850891	2474.429443	1239.369385	29.528975
754.333374	725.863281	2477.846924	1245.313599	29.649267
754.650757	726.903503	2475.097900	1248.880249	29.858051
754.968262	722.148132	2479.110352	1245.685059	29.797850
755.285583	716.872742	2474.132080	1246.353882	30.131077
755.602905	722.445313	2465.215576	1237.957642	29.580051
755.920105	725.343079	2443.147705	1230.378784	29.400066
756.237305	729.727051	2424.126221	1223.617188	29.148394
756.554443	731.361633	2416.398682	1215.963989	28.759150
756.871582	727.795166	2417.141846	1214.552246	28.813334
757.188599	727.275085	2409.414307	1211.580200	28.791025
757.505615	727.497864	2421.822754	1213.660645	28.693598
757.822510	729.875671	2434.082764	1221.239624	28.832409
758.139465	725.789063	2465.587158	1219.530640	28.379246
758.456238	718.061523	2472.348633	1216.484253	28.411697
758.773010	720.513489	2478.515869	1209.499634	27.814873
759.089783	732.030334	2491.296143	1225.251953	28.035650
759.406433	737.008789	2504.967773	1237.660522	28.318062
759.723145	731.287415	2508.757080	1249.697510	29.165621
760.039673	727.349304	2514.404053	1242.415894	28.822094
760.356201	728.463867	2516.113037	1228.669800	27.981215
760.672668	736.562805	2520.348389	1218.416016	27.012955
760.989136	727.795166	2511.951904	1224.508911	27.840252
761.305481	716.649719	2506.304932	1234.093872	28.913063
761.621826	710.705566	2515.221436	1239.963867	29.329657
761.938049	720.216309	2533.648682	1237.883301	28.546253
762.254333	733.070618	2553.190186	1245.759399	28.167862
762.570496	731.807434	2590.118408	1253.858398	28.092766
762.886597	721.107910	2643.095947	1267.753052	28.441652
763.202637	716.723938	2734.117188	1293.981934	28.614054
763.518677	715.906738	2846.760010	1332.619385	28.942051
763.834656	719.250305	2981.619873	1371.851196	28.845900
764.150574	717.021301	3111.575195	1402.835327	28.640575
764.466370	721.330750	3220.800049	1424.977539	28.151848
764.782288	719.027405	3278.384766	1447.119751	28.448248
765.097961	724.154297	3312.118408	1451.652344	28.110825
765.413696	725.937500	3282.917236	1438.203491	27.855755
765.729309	732.699036	3219.834229	1403.949829	26.988914
766.044861	728.463867	3099.612061	1371.331055	27.112062
766.360474	723.708496	2950.709717	1330.390259	27.242094
766.675903	723.708496	2797.868896	1299.628906	27.766436
766.991394	720.959290	2659.962891	1262.254639	27.916159
767.306763	727.720764	2558.762451	1233.796753	27.638693
767.622131	722.148132	2479.407471	1201.549194	27.281179
767.937378	725.863281	2415.804443	1192.855835	27.633657
768.252625	725.417480	2356.139404	1186.614380	28.281763
768.567810	723.485535	2308.883057	1175.914917	28.537285
768.882996	726.754883	2265.787354	1160.831421	28.204508
769.197998	728.686768	2229.081787	1141.364136	27.504581
769.513062	729.578430	2183.459717	1132.522095	27.715031
769.828064	728.909668	2143.039063	1121.005127	27.726986
770.142944	724.302979	2117.850342	1115.581055	28.077845
770.457825	724.748718	2097.045898	1116.621216	28.555952
770.772705	717.021240	2072.897217	1098.491333	28.134586
771.087402	722.296692	2055.807617	1084.522461	27.163313
771.402100	724.823059	2026.160767	1063.271851	26.007761
771.716736	730.841614	2004.464478	1060.151245	25.856134
772.031372	726.903503	1976.229492	1061.934448	26.816936
772.345947	725.120300	1967.090210	1056.807617	26.706549
772.660461	720.141907	1944.204956	1047.445435	26.739109
772.974854	719.696106	1933.802612	1036.225708	26.070993
773.289246	716.575439	1914.632446	1038.454712	26.866774
773.603638	713.826233	1901.703735	1042.392700	27.659964
773.917908	704.464050	1886.026001	1033.699341	27.864410
774.232178	706.395935	1873.691772	1020.176270	26.880959
774.546265	708.402100	1862.992188	1018.913269	26.893629
774.860474	715.683777	1851.846680	1021.439453	26.911255
775.174561	720.587830	1846.942749	1032.510620	27.693115
775.488586	724.377258	1846.125366	1031.173218	27.349810
775.802551	725.045959	1828.367065	1028.944092	27.543943
776.116516	725.045959	1816.478516	1012.523132	26.339434
776.430359	725.863281	1814.323853	999.297363	25.121174
776.744202	728.463867	1813.358032	997.588379	24.806522
777.057922	724.823059	1798.571777	999.520203	25.583000
777.371704	727.349365	1778.955688	997.885498	25.725990
777.685303	728.018066	1767.661743	991.346863	25.328754
777.998962	732.624817	1750.646362	993.278809	25.603975
778.312500	732.030457	1737.643188	989.192139	25.572636
778.626038	728.315247	1727.315430	990.603821	26.255108
778.939453	728.018066	1740.392578	998.777161	26.744953
779.252869	732.030457	1753.767212	1015.941101	27.787064
779.566223	725.194580	1755.104492	1020.027649	28.627073
779.879578	723.782898	1749.903320	1004.572754	27.364222
780.192749	713.974792	1730.807617	987.557434	26.905371
780.505920	719.919006	1734.745605	979.309814	25.560112
780.819031	719.547546	1728.950195	968.684570	24.681629
781.132141	742.804382	1748.120117	982.281921	23.821127
781.445190	748.822815	1733.036743	975.297546	23.010721
781.758118	753.801086	1729.321655	981.687500	23.360493
782.071045	739.609192	1707.402222	965.192322	23.309027
782.383911	727.720886	1684.665527	967.198486	25.025230
782.696838	719.993347	1661.111694	963.706238	25.896093
783.009583	708.253601	1640.827148	959.322449	26.922150
783.322266	712.785950	1639.043823	956.944763	26.359701
783.634888	713.083191	1631.910645	958.282227	26.686081
783.947510	718.210144	1619.873657	955.978821	26.370001
784.260132	714.569275	1609.174194	948.771484	26.179401
784.572571	715.609558	1601.520874	939.186462	25.236940
784.885010	718.284424	1592.233032	933.910889	24.672670
785.197449	726.754883	1586.437500	938.814880	24.667242
785.509766	735.522644	1585.248657	937.403076	23.758297
785.822083	739.163391	1582.573608	941.935547	24.041937
786.134277	739.609314	1574.994751	939.632141	23.943777
786.446533	731.658875	1568.158813	938.071777	24.675781
786.758606	726.011902	1573.806030	935.768494	24.741453
787.070740	731.064514	1583.167969	931.830383	23.561209
787.382690	730.544373	1588.071899	931.607483	23.446840
787.694641	725.863281	1591.787109	927.297913	23.262396
788.006653	710.556946	1602.858398	930.567200	24.656494
788.318481	718.135803	1629.384399	941.861328	24.551537
788.630310	718.210144	1657.545044	948.994385	24.568899
788.942017	724.525879	1671.216797	955.235840	24.370146
789.253784	717.021301	1684.665527	955.607361	24.656382
789.565430	724.005676	1687.786133	962.443176	24.739815
789.877014	722.668274	1683.476685	957.093323	24.398729
790.188538	719.919006	1668.467407	957.836426	25.082264
790.500061	714.272034	1652.046753	946.765320	24.792019
790.811462	712.785950	1646.325317	940.375244	24.379185
791.122925	711.151367	1625.223511	928.783997	23.809130
791.434204	715.535156	1602.858398	920.239075	23.069824
791.745483	719.844788	1574.251831	917.787109	23.167215
792.056702	715.683777	1552.852539	914.740723	23.777397
792.367920	722.593933	1533.088013	914.592102	23.689028
792.678955	720.587830	1529.075684	909.688171	23.389385
792.990112	722.965515	1513.174805	903.966980	22.905510
793.301086	710.408386	1499.131714	897.354004	23.702307
793.612122	714.495056	1476.617798	895.942200	23.808126
793.922974	714.940735	1472.902832	892.449951	23.419273
794.233826	722.445313	1475.800659	898.171204	23.325764
794.544556	719.473328	1477.212524	900.846191	23.936054
794.855286	721.925293	1471.639648	909.093811	24.965311
795.166016	718.581543	1470.896484	909.019531	25.313599
795.476624	720.513489	1476.395020	904.635681	24.358604
795.787292	725.120300	1491.478516	896.685242	22.387043
796.097778	728.835449	1504.481445	894.604736	21.371771
796.408264	732.179016	1520.902466	895.496399	20.706547
796.718689	730.098572	1530.413208	898.171326	21.000835
797.029053	728.018066	1542.821777	902.555176	21.420755
797.339355	721.999512	1535.019897	902.183655	22.162315
797.649658	723.262695	1538.214966	903.521179	22.118900
797.959839	717.244141	1519.639160	898.542786	22.594687
798.270020	712.934570	1520.828125	903.892578	23.636530
798.580078	715.758118	1513.843628	914.294983	24.876640
798.890137	729.652771	1506.784790	916.524109	24.046280
799.200195	728.761047	1484.716919	903.075256	23.058781
799.510071	727.349304	1457.299194	890.146667	22.302540
799.820007	714.940735	1438.872070	879.595642	22.744547
800.129883	717.838562	1441.175415	878.406738	22.198257
800.439575	716.278259	1436.791626	870.902161	21.460241
800.749329	717.392761	1436.717407	876.103455	22.063848
801.058960	720.736328	1426.537964	880.413025	22.623453
801.368591	723.559875	1414.352417	875.731934	22.028620
801.678162	727.200684	1407.739258	869.639099	20.930248
801.987671	731.361633	1395.479492	867.112793	20.440823
802.297119	730.692932	1397.188354	867.484314	20.523979
802.606506	725.194519	1392.804565	869.193298	21.569294
802.915894	717.095520	1393.250366	856.933289	20.681324
803.225159	713.603271	1374.674438	858.716553	21.951235
803.534424	715.832336	1372.073853	853.515381	20.980545
803.843628	713.751953	1370.290649	870.084900	23.811687
804.152771	721.479431	1379.504272	871.422302	22.786810
804.461792	724.674500	1383.813843	879.595520	23.503531
804.770874	726.309082	1382.699341	870.382080	21.949289
805.079773	726.383362	1390.501099	866.369690	21.078541
805.388733	727.646484	1392.210083	860.499817	19.991064
805.697571	729.206848	1394.364868	867.187012	20.743967
806.006470	724.377258	1402.463745	863.397522	20.501848
806.315125	721.776672	1411.305786	867.335632	21.109907
806.623901	721.776672	1417.175781	860.202576	19.905966
806.932495	718.804504	1409.745605	866.815491	21.421650
807.241150	721.256531	1399.120239	872.091003	22.251446
807.549622	724.674377	1400.383423	874.691650	22.201460
807.858154	722.668274	1404.098633	873.354187	22.113178
808.166565	716.575500	1401.423706	863.769043	21.492870
808.474915	718.507324	1393.696167	861.094238	21.118078
808.783264	725.491760	1380.544556	865.478088	21.370235
809.091492	726.383362	1369.547729	871.496643	22.562395
809.399719	725.268799	1357.064941	875.731934	23.815140
809.707825	720.884949	1352.160889	868.227295	23.340403
810.015930	722.445313	1344.507690	857.899231	21.774973
810.323975	717.169861	1342.575806	854.407043	21.943697
810.632080	717.615662	1338.043457	846.605286	20.790432
810.939880	715.981018	1329.498657	845.416443	21.097261
811.247864	717.095520	1314.712280	844.450439	21.310467
811.555664	716.352539	1302.229492	846.753845	22.257456
811.863464	714.866516	1296.805298	846.382324	22.599594
812.171143	716.575439	1296.062378	838.431946	21.028343
812.478882	719.770508	1300.371948	846.159424	21.768620
812.786438	733.070618	1310.031250	845.862122	19.549255
813.094055	739.534973	1303.492554	849.948792	19.578390
813.401489	737.974609	1292.867310	846.159424	19.496529
813.708984	727.795105	1284.099609	849.131531	21.811153
814.016357	732.624817	1289.226563	854.481262	21.892933
814.323730	740.575195	1291.455688	849.577332	19.786894
814.630981	734.928223	1282.836426	838.506165	18.904251
814.938232	725.343201	1276.743530	834.419617	19.781710
815.245361	717.467102	1275.851929	837.614563	21.516964
815.552490	719.176086	1279.046997	837.243103	21.088257
815.859619	714.049133	1284.099609	831.967590	20.685617
816.166565	713.751953	1283.951050	828.401062	20.106855
816.473572	716.872620	1283.802368	826.840637	19.397116
816.780457	721.925232	1275.777710	823.125488	18.272060
817.087341	720.439209	1272.954224	822.010986	18.383532
817.394043	712.785950	1272.359741	825.205994	20.090298
817.700806	707.584778	1284.916870	825.428894	20.411842
818.007507	703.869629	1293.833252	824.537292	20.453407
818.314209	713.677673	1312.631958	830.853027	19.563322
818.620667	709.665344	1321.028076	841.626953	21.584831
818.927246	714.569275	1334.551147	849.057129	21.692225
819.233704	713.454773	1343.170288	851.137695	21.864305
819.540161	717.689941	1370.662231	855.818665	21.153841
819.846497	724.228577	1415.020996	866.369690	20.576530
820.152832	726.086243	1462.277710	873.354187	20.004028
820.458984	733.442200	1504.035767	879.967102	19.014551
820.765259	733.665039	1559.391235	889.032043	18.815802
821.071350	738.197510	1652.418335	902.926758	18.018539
821.377502	728.389587	1810.608765	933.390808	18.942671
821.683472	721.107910	2065.392822	984.139465	19.566652
821.989441	711.671448	2492.039063	1068.696045	20.053419
822.295349	719.770447	3082.151123	1184.311035	19.664087
822.601196	718.432922	3753.476318	1308.842407	19.453081
822.907043	720.736328	4359.786621	1416.878540	19.129778
823.212769	718.507324	4766.593750	1478.995605	18.786366
823.518494	723.188416	4939.347656	1508.716797	18.631374
823.824097	724.228577	4857.540527	1483.602539	18.372046
824.129700	725.268860	4627.202637	1433.076538	18.139919
824.435242	724.748779	4326.647949	1368.730469	17.878948
824.740723	722.296814	4043.405518	1322.811401	18.081751
825.046082	721.182312	3775.395752	1274.366089	18.112152
825.351501	728.389648	3476.698486	1221.611084	17.946362
825.656799	724.674500	3152.590576	1166.775757	18.209084
825.962036	729.801331	2834.054688	1109.339722	18.036724
826.267212	724.005676	2577.412842	1076.943726	19.042660
826.572449	733.665039	2434.454346	1052.721069	18.759293
826.877502	724.154297	2388.906738	1051.309326	19.651873
827.182495	730.098450	2454.590332	1052.052368	18.669495
827.487488	729.058289	2554.453125	1061.934448	18.235846
827.792419	733.293518	2665.610107	1080.881714	17.988159
828.097290	719.770447	2701.275635	1081.030273	18.231586
828.402100	716.055359	2666.873291	1075.457642	18.423159
828.706848	717.912903	2569.908203	1049.080078	17.881641
829.011597	720.290527	2439.804199	1021.365234	17.509295
829.316223	725.937500	2309.699951	994.690491	16.969275
829.620789	721.850891	2179.595947	971.508057	17.126257
829.925354	725.937561	2070.816895	950.926208	16.729280
830.229797	724.080017	1946.062622	930.047119	16.855158
830.534302	733.813660	1822.200073	924.400146	17.510920
830.838562	729.058289	1685.408691	901.589172	18.040550
831.142944	727.869446	1573.657349	878.109558	17.763332
831.447144	714.494934	1479.961548	845.416260	17.103466
831.751404	718.433044	1423.120117	837.763184	16.933777
832.055542	717.541321	1385.002808	835.311218	17.644449
832.359619	724.377258	1366.278442	832.413391	16.830648
832.663635	723.336975	1372.519897	839.695007	17.923767
832.967651	726.457703	1395.256470	843.038574	17.431383
833.271545	722.371094	1449.646118	852.400818	17.879030
833.575439	722.668274	1520.902344	857.601990	16.904028
833.879211	722.222412	1625.520508	879.744141	17.438511
834.183044	723.262695	1729.767212	898.096985	17.370443
834.486694	720.513489	1818.113281	919.644775	18.142429
834.790344	727.275085	1868.713379	922.691162	17.120163
835.093933	727.423645	1868.341919	924.920227	17.310320
835.397522	730.544373	1841.072876	912.957520	16.425795
835.700928	721.925232	1785.494507	900.623291	16.801731
836.004395	731.361633	1745.445190	898.617126	16.493265
836.307739	735.076843	1694.250610	889.626465	16.112787
836.611023	729.875671	1641.421387	887.100159	17.248119
836.914307	727.423645	1564.815308	873.056946	17.391300
837.217529	723.931396	1497.348267	864.363586	18.157373
837.520691	731.138855	1424.234497	850.394592	17.206245
837.823730	723.262695	1353.126831	834.270935	17.624157
838.126831	723.559998	1282.093384	824.388672	18.052399
838.429749	723.262695	1231.864746	811.385742	17.326523
838.732727	724.005676	1204.447144	800.908997	16.006804
839.035522	720.587708	1190.775269	793.850281	15.581563
839.338379	719.324707	1186.763062	790.729553	15.275778
839.641113	721.925293	1190.701050	793.107239	15.184648
839.943848	719.547546	1194.861938	797.491150	16.398327
840.246460	714.494934	1200.583374	807.819153	19.199020
840.549072	716.798340	1219.753418	811.682922	18.865419
840.851563	723.931396	1237.957642	804.921387	15.756003
841.154053	729.058289	1249.697388	802.172180	14.043104
841.456482	727.200684	1241.598511	806.778992	15.470187
841.758850	723.857117	1228.744019	804.847107	16.041214
842.061157	719.473328	1220.719360	800.314636	16.128069
842.363403	717.095520	1198.651489	796.450867	16.478945
842.665588	710.408264	1187.654663	790.952454	16.876856
842.967712	720.662048	1156.819092	791.844177	16.320297
843.269775	721.405090	1140.992676	785.379822	15.247050
843.571777	721.925232	1110.751587	784.562439	16.109301
843.873840	715.980957	1089.500977	781.293152	17.485594
844.175659	716.872620	1063.569214	776.314880	17.145327
844.477600	727.497986	1049.302979	782.704895	17.155392
844.779297	729.206848	1051.086304	777.726624	15.073896
845.081116	732.476257	1038.083374	774.828796	13.858493
845.382751	736.934387	1032.213501	774.085754	12.581779
845.684387	732.699219	1004.498535	778.469666	16.839794
845.985962	729.206970	1004.721375	772.971191	15.884549
846.287537	720.364929	1002.863831	770.296387	17.674921
846.588989	723.857117	1002.789551	764.797913	14.677675
846.890381	726.606384	998.702942	768.438782	15.374101
847.191711	726.160461	991.718445	765.912415	14.969218
847.493042	721.702332	982.950684	754.246887	12.457325
847.794250	722.296692	978.938293	753.726746	12.246672
848.095459	723.262695	966.901306	760.116882	15.126579
848.396606	729.949951	967.347168	766.952637	15.586823
848.697693	729.058289	958.207825	769.776184	17.769136
848.998657	727.720886	958.802246	764.649231	15.980668
849.299622	730.915833	963.483398	769.553223	16.613405
849.600464	727.795166	972.771240	766.358215	15.741557
849.901367	728.835388	965.266663	770.147705	17.473288
850.202087	723.485596	954.344177	774.605896	22.143557
850.502808	727.274963	944.610535	780.327148	24.410263
850.803467	726.531982	942.901550	776.166199	22.939554
851.104065	727.869446	957.167664	777.057861	21.451721
851.404663	726.086182	956.573242	777.206360	22.179197
851.705139	721.850891	971.656677	776.240540	21.772774
852.005615	722.668274	956.201660	769.107483	19.885469
852.306030	720.736328	945.873596	766.061035	20.132032
852.606384	723.114075	932.424805	757.293274	16.329407
852.906616	719.101746	935.545593	762.866028	20.219694
853.206909	714.866394	947.211121	763.014648	20.722767
853.506958	717.838562	951.372070	767.547119	21.285406
853.807129	723.634094	948.548523	760.785583	16.518055
854.107178	732.773438	934.876892	756.847473	11.911738
854.407166	735.076843	931.384583	758.110657	11.733522
854.707092	725.194519	934.653870	748.674255	11.209686
855.007019	721.182190	943.570313	750.457520	13.164071
855.306763	718.730225	947.211121	758.110657	17.235765
855.606567	717.318420	946.022278	774.234314	24.886286
855.906250	721.850891	944.759094	765.763855	19.700022
856.205933	723.559875	936.883118	756.921814	15.639149
856.505493	726.754883	926.926453	746.222229	9.725330
856.805054	720.364929	930.047119	751.274841	14.741315
857.104492	716.946960	939.260681	750.977600	15.307485
857.403931	716.278259	944.536133	749.120056	14.388023
857.703308	711.968689	941.192566	754.618408	18.606142
858.002563	713.454773	927.372253	749.491516	16.846096
858.301819	715.089355	932.201965	753.875427	17.864494
858.601013	725.937683	930.047180	751.720703	12.631955
858.900208	724.674500	930.715820	749.565857	12.080760
859.199219	722.593994	925.663269	752.463623	14.709084
859.498291	719.696106	934.505310	754.172668	16.049854
859.797302	727.423584	939.780762	767.472839	18.859385
860.096191	739.089111	948.548523	771.633789	15.537462
860.395020	740.946716	940.449646	766.804016	12.960862
860.693787	727.795105	936.808777	758.259277	14.575206
860.992554	712.488770	925.068848	743.324402	14.505420
861.291260	712.934631	931.087402	743.101563	13.828351
861.589844	724.228577	932.573425	742.878601	8.951517
861.888428	734.185120	940.003723	742.952942	4.259975
862.186890	731.658875	938.443359	740.649475	4.347812
862.485413	725.937561	934.728210	740.872498	7.153068
862.783813	717.690002	939.260681	746.519470	13.011409
863.082153	718.284424	938.666260	749.491516	14.160465
863.380371	719.844727	942.678650	746.147888	11.803930
863.678589	729.875671	939.335022	748.971436	9.116693
863.976746	732.996399	938.740540	748.748474	7.656147
864.274902	737.305969	941.266907	760.191101	11.220350
864.572937	735.299744	944.090332	757.590576	10.676167
864.870911	728.166687	946.839600	758.556580	13.897420
865.168884	725.045959	937.477356	748.897156	11.227717
865.466736	724.971680	931.013000	746.668030	10.530097
865.764587	725.714661	925.886169	752.389343	13.325913
866.062317	725.417480	935.991394	758.556458	15.737456
866.360107	726.234802	938.071960	765.763855	18.660112
866.657715	728.984070	936.362976	762.048645	15.944039
866.955322	725.789063	937.774658	764.574951	18.296474
867.252808	722.519714	928.338196	754.246887	15.415123
867.550293	721.182312	932.053284	748.154053	12.790637
867.847717	723.188477	922.914063	736.637207	6.733604
868.145081	721.776672	929.081238	740.129395	8.853024
868.442383	714.940735	928.041016	742.135559	12.761515
868.739624	713.529053	933.539368	749.863098	16.514700
869.036804	716.203918	939.706543	754.841370	17.287247
869.333984	721.776611	938.146179	758.853699	17.136000
869.631042	719.770447	938.814880	757.219055	17.096352
869.928101	712.637451	932.350586	756.773193	20.087894
870.224976	717.689941	926.703613	755.287109	17.987900
870.521851	739.237732	939.929504	768.810242	14.735288
870.818726	745.479187	948.251282	768.958801	11.579312
871.115479	745.404846	956.573242	770.147766	11.717151
871.412231	723.559875	948.474182	759.002258	15.758172
871.708862	718.284424	945.056335	753.726807	15.629088
872.005493	706.618896	950.406067	739.312073	13.410541
872.302063	707.733398	944.981934	741.318176	14.155948
872.598572	711.225586	949.068665	742.209900	13.027208
872.895020	721.033630	946.170837	756.550293	15.775563
873.191406	730.693054	953.229553	753.429504	10.216953
873.487671	728.984070	949.365906	753.058044	10.923757
873.783997	727.126465	946.170837	749.194336	10.074613
874.080200	721.182190	941.341125	746.445129	11.474864
874.376343	729.875671	942.530029	749.268616	9.119467
874.672424	737.677429	955.087219	760.414063	10.457962
874.968445	740.946716	962.517395	762.494568	9.725046
875.264465	739.312073	963.483398	764.426453	11.203208
875.560364	737.083008	958.059326	751.126221	6.355076
875.856201	727.869446	959.842590	744.216064	7.046772
876.152039	722.742615	967.124207	731.361633	3.526869
876.447754	719.250305	965.712463	729.726990	4.250829
876.743469	725.045959	966.827087	746.816650	9.004297
877.039063	726.086182	961.477234	750.457520	10.353553
877.334595	723.782898	956.573242	760.042542	15.576095
877.630127	727.943787	949.365906	743.101563	6.845647
877.925537	730.024231	947.656921	751.200500	9.730280
878.221008	732.699036	950.183289	747.708252	6.901289
878.516296	722.296692	951.372070	755.287109	14.401555
878.811646	721.776672	969.130371	762.717468	16.551519
879.106812	719.993347	989.860840	763.831970	16.244499
879.401978	722.891113	1009.996887	763.534729	14.156322
879.697083	716.798340	1015.792480	763.757629	15.705756
879.992126	714.940735	1031.247559	761.974426	14.869641
880.287109	722.668213	1064.832397	768.141541	13.289914
880.582031	730.098450	1131.704712	777.355042	11.766896
880.876892	726.383362	1257.573608	796.896729	13.274597
881.171753	726.754944	1448.011353	823.719971	13.443905
881.466492	724.302979	1722.931519	851.360535	12.723205
881.761230	721.850891	2042.953491	898.468506	13.368956
882.055786	713.826172	2377.389893	937.551697	13.448569
882.350403	711.671387	2631.282471	961.551453	13.017223
882.644958	721.256531	2789.250000	957.316223	11.414915
882.939453	718.804504	2817.781982	953.303894	11.172077
883.233826	718.284424	2774.463623	952.783752	11.404615
883.528137	715.015076	2695.034180	956.647522	12.203542
883.822449	722.222473	2627.492676	952.783875	12.101244
884.116577	721.776611	2552.521240	939.409363	11.887663
884.410828	727.498047	2445.673828	919.793457	11.191835
884.704956	720.885071	2286.963623	897.651184	11.287180
884.999023	719.398926	2084.934326	880.487305	11.796720
885.292969	713.974854	1857.567993	855.075684	12.338377
885.586914	715.535156	1654.870117	828.623962	12.039242
885.880798	726.977783	1505.150269	809.230957	10.570044
886.174622	723.485535	1401.572266	800.166016	11.308359
886.468384	724.154297	1318.427490	794.296082	11.802953
886.762085	712.934570	1251.555054	786.642883	13.684648
887.055664	715.089355	1204.521362	781.590332	13.587378
887.349304	714.866516	1159.271118	776.389160	13.843836
887.642822	716.575439	1123.382813	767.695740	12.566217
887.936340	715.981018	1098.937256	764.649231	12.708557
888.229736	718.284363	1078.578247	759.373779	11.404417
888.523071	721.702332	1066.838501	769.404602	13.821290
888.816284	730.618652	1052.200806	774.680176	13.701483
889.109619	729.132507	1052.498047	780.104248	15.762886
889.402710	728.315186	1039.346436	759.968201	10.176796
889.695862	722.371033	1010.888489	754.989929	11.305693
889.988892	723.634216	987.037354	750.234619	10.098742
890.281921	724.005676	973.662903	756.104492	12.857155
>>>>>End Processed Spectral Data<<<<<
