Jaz Data File
++++++++++++++++++++++++++++++++++++
Date: Fri Jun 04 17:05:00 2021
User: jaz
Dark Spectrum Present: Yes
Reference Spectrum Present: Yes
Processed Spectrum Present: Yes
Spectrometers: JAZA3586
Integration Time (usec): 122000 (JAZA3586)
Spectra Averaged: 10 (JAZA3586)
Boxcar Smoothing: 1 (JAZA3586)
Correct for Electrical Dark: No (JAZA3586)
Strobe/Lamp Enabled: Yes (JAZA3586)
Correct for Detector Non-linearity: No (JAZA3586)
Correct for Stray Light: No (JAZA3586)
Number of Pixels in Processed Spectrum: 2048
>>>>>Begin Processed Spectral Data<<<<<
W	D	R	S	P
191.335022	0.000000	0.000000	0.000000	0.000000
191.713211	230.487015	226.177490	227.217728	75.861900
192.091385	464.540619	461.122711	462.237213	67.392273
192.469528	699.262878	689.975098	693.987488	56.799259
192.847641	705.429993	700.228821	701.417664	77.142792
193.225739	712.637390	707.064697	709.739563	52.000481
193.603790	720.067688	719.101746	721.628113	-161.544296
193.981842	730.247070	730.024231	727.795166	1100.301270
194.359863	731.956055	737.157288	730.024231	-37.141651
194.737854	743.324402	750.606140	735.076843	-113.263596
195.115829	747.708252	749.045715	737.008728	-799.986328
195.493774	751.200500	747.485352	745.107666	163.999741
195.871704	747.262451	748.451355	743.844543	-287.483948
196.249603	749.342957	748.897156	757.441895	-1816.716919
196.627457	749.342957	748.599915	753.132385	-509.988495
197.005310	751.051941	736.711487	753.801086	-19.170561
197.383133	746.073547	736.488586	746.965271	-9.303362
197.760910	752.835144	744.438965	751.349121	17.698799
198.138687	747.039551	751.572083	757.962097	240.981140
198.516449	743.695862	751.274902	758.407898	194.114761
198.894180	736.042725	739.906555	748.451355	321.148407
199.271866	747.039551	737.677429	740.500916	69.841385
199.649536	740.575256	732.327637	737.454529	37.837917
200.027191	736.488586	738.049011	740.649475	266.651031
200.404816	724.154297	736.191406	740.426575	135.184265
200.782410	728.018066	753.726807	741.169617	51.155949
201.159988	731.807434	764.575012	746.222229	43.991028
201.537537	730.395752	777.132141	751.869202	45.945889
201.915070	730.172852	772.450989	757.664856	65.026527
202.292557	730.395752	769.999084	754.692688	61.350735
202.670029	734.036560	770.593506	751.126160	46.747887
203.047485	739.089111	774.828796	741.615417	7.068630
203.424911	743.027161	773.862854	743.918762	2.891459
203.802292	745.850769	771.782410	737.974609	-30.372778
204.179688	744.067383	772.079590	745.181946	3.978848
204.557037	738.643372	773.268372	743.695862	14.592030
204.934357	734.631042	775.125977	742.507080	19.449440
205.311661	729.727051	779.138367	737.677429	16.090199
205.688934	724.377197	775.200256	731.881836	14.766208
206.066177	722.965515	764.872253	735.671204	30.318962
206.443390	727.126465	762.494446	731.733215	13.025201
206.820587	730.098572	770.519226	736.042786	14.705882
207.197769	727.052063	775.868958	747.411072	41.704842
207.574921	730.990173	770.965027	756.253113	63.197079
207.952042	729.058289	761.602844	750.457520	65.753639
208.329147	729.355469	759.893860	739.906494	34.550037
208.706223	763.980530	802.617920	774.605896	27.500217
209.083267	763.089050	805.664368	782.036133	44.502506
209.460297	765.466614	806.630371	780.698730	37.003708
209.837280	723.337097	754.172607	742.135559	60.963680
210.214264	721.330872	751.497742	741.243958	66.009781
210.591217	715.163757	755.955872	735.894226	50.819794
210.968124	718.730225	770.147705	737.083008	35.693665
211.345016	724.525879	775.571777	736.637207	23.726349
211.721893	733.442200	771.039368	741.838379	22.331945
212.098724	733.070618	762.717468	745.702087	42.606445
212.475555	735.968506	771.633789	741.392578	15.208269
212.852356	737.528809	771.485168	740.426575	8.533795
213.229126	738.048889	778.023743	735.225403	-7.063156
213.605865	733.219238	765.169434	737.231628	12.558265
213.982590	727.720886	772.228210	737.231628	21.368937
214.359283	718.655945	767.918640	732.327637	27.752626
214.735931	723.262695	760.711243	730.395752	19.047619
215.112579	714.569275	755.064209	729.949951	37.981728
215.489197	721.033630	757.590576	735.596924	39.837280
215.865799	718.433044	761.974426	734.631042	37.201385
216.242355	727.200684	759.299500	733.516541	19.676292
216.618896	730.395752	755.732910	732.624817	8.797612
216.995407	730.470032	754.469788	731.807556	5.573075
217.371902	726.754883	761.677185	731.287415	12.978903
217.748367	720.513489	772.451111	729.801331	17.882687
218.124802	722.965515	772.896973	724.228699	2.529835
218.501236	726.606262	765.466614	729.726990	8.030621
218.877609	729.949890	752.612244	730.915833	4.262321
219.253983	726.680664	755.955872	737.231628	36.040615
219.630295	723.559875	760.042480	733.665100	27.698748
220.006592	720.959290	762.420227	732.550598	27.957180
220.382889	715.163635	757.739075	732.847839	41.536163
220.759140	715.758118	752.612305	731.733215	43.346764
221.135391	714.717957	753.652527	734.408020	50.572186
221.511581	715.089355	752.537903	737.157227	58.928509
221.887772	711.968750	755.807312	749.194336	84.915161
222.263931	716.278259	766.209656	748.376953	64.285591
222.640060	724.971680	773.565674	745.776367	42.813290
223.016159	730.990173	765.318054	735.448303	12.986907
223.392212	729.875671	756.921875	737.677429	28.846037
223.768265	723.559875	757.070496	741.987000	54.988907
224.144302	719.398926	765.763855	740.649597	45.833504
224.520294	717.169922	762.494568	737.380188	44.590015
224.896286	717.392761	766.878418	741.095398	47.897995
225.272217	722.668274	773.862793	737.305908	28.592190
225.648148	728.612488	779.658386	743.472961	29.111984
226.024048	729.801270	773.714172	741.466797	26.565147
226.399902	721.107910	764.500732	747.708252	61.301247
226.775772	712.265808	763.014648	744.884766	64.275276
227.151581	713.231750	759.819641	739.237793	55.821465
227.527374	710.333984	762.122986	736.637207	50.789207
227.903137	711.968689	767.175598	726.234802	25.841173
228.278870	711.151367	777.057861	734.928223	36.076649
228.654572	716.278259	776.834961	731.733215	25.521463
229.030273	716.724121	774.680176	738.940613	38.333340
229.405930	715.386536	767.398621	729.726990	27.571388
229.781555	717.095520	760.116882	738.494812	49.741085
230.157181	722.965515	755.732971	728.166687	15.872980
230.532761	722.668274	750.977539	732.996399	36.483196
230.908325	723.634094	763.460449	732.104736	21.268936
231.283859	719.398926	764.946533	746.222229	58.890697
231.659332	721.479431	769.479004	738.940613	36.377785
232.034821	719.176086	759.150940	730.395752	28.066809
232.410263	722.593933	756.030273	724.525879	5.777982
232.785690	722.668213	757.739075	727.795166	14.618840
233.161087	717.838623	762.123047	736.562927	42.281918
233.536469	713.231750	762.791748	736.191406	46.326992
233.911804	711.968567	762.717468	733.665039	42.752594
234.287140	725.045898	759.448059	720.439148	-13.390876
234.662430	727.497864	758.630798	721.107910	-20.524738
235.037704	727.126465	763.683350	716.352539	-29.471674
235.412933	720.067627	763.014648	724.228516	9.688422
235.788162	717.615723	766.655457	723.411316	11.818158
236.163345	719.324646	762.123047	732.401855	30.555368
236.538513	721.925293	765.466614	736.265625	32.934994
236.913635	725.714661	763.683350	732.253357	17.221285
237.288742	723.931458	769.999023	723.411316	-1.129084
237.663834	720.959290	775.348877	719.696228	-2.322249
238.038879	712.711731	774.977356	729.355530	26.730316
238.413910	716.426819	764.723633	737.231628	43.076981
238.788910	718.135803	758.928040	744.290344	64.116470
239.163879	724.897400	759.076599	739.163513	41.739166
239.538834	718.061523	760.488342	738.643311	48.511265
239.913757	723.114075	772.525391	735.819824	25.714251
240.288651	726.531982	778.989746	736.339905	18.696798
240.663528	732.104736	784.265198	735.968445	7.407351
241.038361	726.383484	771.410828	738.569031	27.062550
241.413177	718.804504	769.701843	741.095398	43.795795
241.787979	721.850891	766.729736	740.278015	41.059711
242.162735	719.919006	772.748291	731.436035	21.800463
242.537476	718.804504	764.946472	729.132629	22.383366
242.912170	713.454773	771.113586	736.637207	40.206226
243.286865	715.237976	769.850403	737.528809	40.816410
243.661514	714.272034	777.577942	736.265686	34.741863
244.036148	720.141907	782.556213	733.070618	20.714338
244.410751	716.649719	785.231140	736.637207	29.144173
244.785339	720.810730	785.825684	740.055115	29.599936
245.159882	716.724060	775.794739	745.330566	48.427589
245.534378	717.615662	774.085754	748.005554	53.815907
245.908890	714.569275	765.838196	744.810486	58.985466
246.283356	713.380432	770.667908	735.076843	37.872871
246.657791	716.946960	766.432617	732.847717	32.132053
247.032196	718.878906	782.927795	736.117126	26.914160
247.406586	715.906738	777.057800	740.946716	40.947739
247.780960	718.061523	784.785339	748.748535	45.991093
248.155289	716.352539	772.228210	751.051941	62.101093
248.529602	715.163635	773.937195	744.587585	50.063244
248.903870	714.569275	770.073425	736.265625	39.089600
249.278122	713.603333	769.627625	730.098450	29.442795
249.652344	715.683838	769.330383	731.287415	29.085894
250.026550	721.033630	773.268494	732.476257	21.906111
250.400711	731.138855	779.064026	743.101563	24.961220
250.774857	733.070618	785.379700	736.265686	6.108057
251.148987	718.432922	782.779114	735.225403	26.097086
251.523071	713.751953	781.441650	728.909668	22.392942
251.897125	718.358704	778.989746	743.250183	41.054020
252.271164	725.120300	772.451111	739.534973	30.455158
252.645187	720.439148	767.621399	738.643372	38.582779
253.019165	709.368103	763.088928	721.999573	23.513172
253.393112	710.111084	777.132141	732.030457	32.705204
253.767044	714.494934	787.608887	728.538269	19.207462
254.140930	716.129578	795.039124	738.048889	27.777769
254.514801	715.089355	792.512756	737.454529	28.886839
254.888657	715.683777	782.927795	736.488525	30.939180
255.262466	727.869446	778.321045	735.596924	15.316617
255.636276	731.956116	777.726563	737.380188	11.850599
256.010010	735.299744	776.834961	735.225403	-0.178983
256.383759	732.401855	776.834961	740.946777	19.230980
256.757446	729.132568	776.612000	735.151123	12.676130
257.131134	722.891113	785.454041	740.723816	28.503626
257.504791	720.810730	780.104248	734.928223	23.809504
257.878418	715.609558	773.416992	735.374023	34.190178
258.252014	720.884949	769.999084	740.129395	39.183109
258.625580	722.668274	783.893738	749.640137	44.053341
258.999115	729.132629	794.296082	744.364685	23.375151
259.372650	721.850891	804.401306	737.454590	18.902023
259.746124	716.278259	798.308411	726.011902	11.865932
260.119598	715.460938	806.927551	735.374023	21.770880
260.493042	721.925232	803.955383	743.175781	25.905779
260.866425	725.640320	810.865540	755.510071	35.048019
261.239838	724.005676	805.590088	750.829041	32.878052
261.613159	722.519714	808.562195	741.243958	21.761627
261.986511	722.742615	802.469421	743.844543	26.467796
262.359802	721.999512	790.878113	745.553467	34.196331
262.733063	721.405090	777.206482	752.983826	56.591305
263.106293	714.494934	778.246643	740.278015	40.442963
263.479523	716.649719	788.723328	735.522644	26.185625
263.852692	715.237976	794.296082	731.213074	20.206779
264.225861	715.163635	787.311584	736.191406	29.145348
264.598969	716.278137	779.955627	745.256348	45.507778
264.972076	709.293762	782.556213	743.621643	46.856037
265.345154	710.408386	798.085510	745.404846	39.915154
265.718201	712.563049	803.063782	736.488525	26.436777
266.091217	728.018066	812.500244	747.039551	22.515381
266.464203	736.711487	818.815979	754.767090	21.991005
266.837158	738.940613	817.404297	755.212891	20.738611
267.210114	728.835388	811.905823	751.200500	26.923071
267.583038	727.275085	802.246521	736.488586	12.289349
267.955902	718.433044	812.946045	738.643372	21.383648
268.328766	718.581604	820.153503	725.640381	6.949537
268.701569	711.002747	818.593079	727.646545	15.469604
269.074371	717.095520	810.642761	726.829163	10.405056
269.447144	718.804504	811.237061	735.076843	17.604553
269.819885	719.844727	814.580750	739.237793	20.470636
270.192596	719.027405	823.719910	740.203796	20.227228
270.565277	719.547546	835.831238	741.318298	18.722103
270.937927	722.816833	840.512390	734.259460	9.722225
271.310577	718.507324	838.803467	733.219238	12.229747
271.683136	713.900574	832.339111	741.541199	23.337526
272.055725	712.934570	836.648682	742.952942	24.264307
272.428284	712.414551	837.317383	739.460632	21.653698
272.800812	721.628113	837.317383	733.070618	9.890722
273.173279	725.268860	842.369934	737.305908	10.279196
273.545776	732.773438	850.394714	743.993164	9.538858
273.918152	732.476257	854.109802	750.903320	15.149655
274.290558	729.652649	848.834290	750.531799	17.518764
274.662964	729.206848	849.502991	745.256287	13.341607
275.035278	716.872620	849.354431	730.544373	10.319720
275.407593	718.804504	855.224365	733.219238	10.566448
275.779907	714.272034	855.298645	735.225403	14.857741
276.152161	721.330750	860.202637	739.609314	13.162178
276.524384	721.256531	861.242859	738.123230	12.048819
276.896606	718.284363	859.905334	740.500916	15.687332
277.268799	717.467102	863.546204	744.513367	18.514807
277.640930	711.225647	860.351135	743.398743	21.574512
278.013031	717.690125	862.134460	743.993103	18.209768
278.385162	719.919128	863.471985	739.460632	13.612759
278.757233	721.851013	868.747375	739.089172	11.734912
279.129272	720.364929	873.502747	742.358459	14.361919
279.501282	718.135742	867.038513	744.290344	17.564886
279.873230	719.696106	866.295593	743.621765	16.320425
280.245178	719.770508	872.091064	740.203796	13.414662
280.617126	720.587830	878.629700	741.689758	13.352113
280.988983	720.736389	893.490234	739.163391	10.666623
281.360870	723.559875	906.418884	740.723816	9.386435
281.732697	721.479309	909.391052	737.528809	8.540977
282.104492	723.411316	910.282654	735.745544	6.600385
282.476288	727.720886	907.533447	737.454529	5.413216
282.848053	730.470032	919.198975	744.067444	7.204731
283.219757	730.247131	917.341370	747.336731	9.134220
283.591461	724.302917	922.022461	741.095276	8.493019
283.963135	720.736389	911.991516	733.442139	6.643351
284.334747	722.742615	922.988464	735.448303	6.345045
284.706360	712.860352	934.505371	736.042786	10.459262
285.077942	721.553711	951.074890	733.962219	5.406259
285.449524	714.569275	948.028503	733.962219	8.306780
285.821014	715.683777	947.656982	736.191345	8.840490
286.192535	714.940735	953.526855	743.250061	11.865454
286.563995	713.380432	965.192383	746.147949	13.012693
286.935425	714.494934	965.043762	745.553528	12.396224
287.306824	709.888184	965.117981	741.095398	12.227104
287.678223	710.705566	962.591736	736.860107	10.383476
288.049561	718.581604	964.523621	736.637207	7.341406
288.420898	720.662109	968.758789	744.067444	9.433957
288.792145	726.680664	973.365540	742.284180	6.325283
289.163452	722.816895	974.182922	745.702148	9.104354
289.534668	723.857117	977.600891	743.398743	7.701323
289.905914	717.987122	984.956848	748.822815	11.550259
290.277039	717.764343	997.811218	753.801086	12.868112
290.648193	722.148193	1011.260010	754.618408	11.231023
291.019318	729.727051	1023.742859	753.726807	8.162744
291.390381	732.253357	1021.736633	747.262451	5.184788
291.761475	727.497986	1015.941101	742.358459	5.151960
292.132507	725.714600	1013.711975	739.906494	4.927786
292.503510	723.559875	1017.129944	734.928223	3.872448
292.874481	733.962219	1020.993713	750.011719	5.591547
293.245422	733.516418	1020.547913	748.228333	5.125540
293.616364	734.408142	1026.120483	753.206726	6.444220
293.987213	719.250305	1029.835693	741.169617	7.057419
294.358093	715.832458	1049.748779	739.757874	7.165093
294.728943	709.888184	1070.182007	737.900330	7.774806
295.099731	711.448547	1094.033203	737.900330	6.913969
295.470490	715.089355	1101.240723	742.878601	7.196465
295.841248	720.959290	1111.345825	740.946777	5.119923
296.211975	716.575439	1125.389038	739.534973	5.616138
296.582642	713.900574	1131.779053	741.095398	6.507831
296.953308	716.575439	1146.862427	739.534912	5.335851
297.323883	719.176025	1147.382690	736.711426	4.095079
297.694519	716.649719	1166.181274	743.398743	5.950422
298.065063	711.597168	1170.639404	753.281006	9.080610
298.435608	715.683777	1169.450562	757.070496	9.120703
298.806122	714.569275	1152.063599	751.423401	8.423909
299.176575	716.278137	1129.327026	747.039612	7.447417
299.547028	709.442383	1123.531494	747.782532	9.258913
299.917450	708.327820	1130.664551	742.952942	8.198463
300.287872	705.058411	1136.311523	739.163391	7.908344
300.658234	711.894348	1133.933960	738.717590	6.355622
301.028564	713.454773	1128.732544	738.494812	6.029708
301.398865	720.141907	1118.776001	739.832214	4.939444
301.769135	721.405090	1120.484985	736.339905	3.742312
302.139374	727.126404	1119.147583	732.847717	1.459440
302.509583	728.983948	1130.515869	733.144958	1.036284
302.879791	727.572266	1142.032837	731.881836	1.039802
303.249939	731.436035	1147.679810	735.076843	0.874682
303.620087	722.371094	1145.450806	733.516418	2.634332
303.990173	721.850891	1131.704712	738.123230	3.970279
304.360260	717.021240	1141.364136	742.358398	5.970916
304.730286	722.296692	1152.286621	747.262512	5.806141
305.100281	726.531982	1157.116333	745.702148	4.452128
305.470276	729.281189	1153.624023	744.810486	3.659611
305.840179	733.293518	1157.859253	743.398743	2.380132
306.210144	727.943787	1163.506348	741.243958	3.053561
306.579987	733.590759	1178.441284	747.113831	3.039913
306.949890	733.070618	1179.109985	743.250183	2.282212
307.319702	735.894226	1200.286133	742.209900	1.359988
307.689484	729.652771	1199.543091	739.980774	2.197960
308.059265	731.213074	1214.329224	743.472961	2.537669
308.429016	730.172852	1223.171265	748.302734	3.677473
308.798737	728.315247	1238.477661	740.649597	2.417730
309.168396	722.593933	1257.053345	740.055115	3.267073
309.538055	726.011902	1273.994507	738.717590	2.318630
309.907684	725.937561	1290.266724	746.742371	3.686644
310.277313	719.844727	1300.297485	747.113831	4.697902
310.646851	711.374207	1314.340698	753.058105	6.913137
311.016388	709.516663	1327.418091	753.652527	7.142865
311.385895	717.764343	1336.111450	748.822815	5.022821
311.755371	716.575439	1333.436646	745.776367	4.733792
312.124817	712.860291	1330.167358	739.757874	4.357245
312.494232	712.563049	1334.328247	748.302673	5.748090
312.863617	719.027344	1329.795776	746.816589	4.549882
313.232971	727.720764	1324.000244	750.234558	3.775712
313.602295	725.491760	1318.947632	744.141785	3.142613
313.971619	729.875671	1328.235352	742.952942	2.185520
314.340820	730.767273	1338.860718	743.175781	2.040560
314.710083	739.460693	1354.092651	749.863037	1.692451
315.079285	727.943665	1370.959473	759.522461	4.911045
315.448486	730.098572	1393.918945	760.562683	4.589210
315.817596	719.696106	1393.919067	756.476013	5.455155
316.186707	721.107910	1373.560181	751.646301	4.680555
316.555786	713.083191	1353.498413	750.977539	5.917153
316.924866	712.042969	1334.402466	751.126160	6.279841
317.293884	721.405090	1337.523071	748.376953	4.377711
317.662872	726.086182	1336.037231	749.863037	3.898158
318.031830	722.073792	1354.464355	746.816650	3.912591
318.400757	719.919128	1366.575684	750.680359	4.756966
318.769684	716.203918	1378.538452	749.342957	5.003368
319.138550	723.559875	1372.742798	746.073669	3.468020
319.507416	713.380432	1379.875854	741.689758	4.247490
319.876190	706.916016	1375.714844	736.860046	4.477285
320.244995	711.076965	1395.479492	748.748535	5.504300
320.613770	722.445313	1386.563110	753.726807	4.710233
320.982483	726.977844	1387.083130	753.429688	4.007216
321.351166	716.278259	1376.160767	753.132385	5.584953
321.719818	709.070801	1377.498169	750.085938	6.136065
322.088440	707.882019	1390.501099	746.965271	5.725485
322.457062	715.980957	1405.733276	744.587585	4.147377
322.825623	721.107910	1423.194336	746.519470	3.619435
323.194183	733.665039	1440.135376	751.572021	2.534711
323.562653	735.225403	1464.432251	752.389343	2.353782
323.931183	732.922058	1502.847046	752.166443	2.499514
324.299591	718.507324	1541.335815	747.336731	3.503696
324.668060	715.312317	1560.505859	749.268616	4.017577
325.036407	716.203918	1577.818359	750.531738	3.984128
325.404755	723.337097	1577.446655	755.510071	3.766844
325.773102	724.154297	1577.298218	750.829041	3.126641
326.141388	719.547546	1577.298218	752.092102	3.794174
326.509674	717.541443	1580.864624	754.544128	4.286076
326.877899	724.005676	1594.833618	757.144714	3.805463
327.246124	732.699158	1595.799683	753.801086	2.444898
327.614288	735.151123	1602.338257	753.058105	2.064950
327.982422	723.262695	1606.944946	752.760803	3.338090
328.350525	720.885010	1610.362915	756.104431	3.959561
328.718628	724.600098	1610.585938	751.869202	3.077826
329.086700	725.789001	1613.186523	751.349121	2.880346
329.454712	722.668274	1621.136719	746.816650	2.687727
329.822693	716.352539	1631.613403	753.949707	4.107809
330.190674	720.810730	1640.381226	756.476013	3.878472
330.558563	722.593933	1649.594727	755.732971	3.574866
330.926483	721.330811	1659.922852	754.172607	3.499049
331.294312	719.919128	1682.213745	757.070374	3.860693
331.662231	719.398926	1709.482788	759.968201	4.097559
332.029999	714.866455	1726.572266	761.082764	4.568157
332.397766	716.723938	1733.259644	747.559753	3.033422
332.765503	722.519714	1748.566040	744.884766	2.179731
333.133240	728.909668	1776.801147	738.791992	0.943068
333.500916	722.816895	1809.048462	748.971436	2.407824
333.868561	718.804504	1823.760254	750.085938	2.831012
334.236176	717.541321	1832.230835	761.974426	3.986142
334.603790	724.971680	1825.171875	760.488342	3.228200
334.971344	721.553711	1826.955200	761.379944	3.602875
335.338867	720.885010	1840.775757	754.618408	3.012204
335.706360	715.981018	1860.391602	754.321106	3.350204
336.073853	713.677551	1862.323242	753.429504	3.460767
336.441284	716.278259	1869.307739	751.572021	3.060959
336.808655	717.169922	1865.741211	759.968262	3.726224
337.176086	724.748779	1844.936523	765.095154	3.601751
337.543396	720.885071	1784.825562	766.804016	4.315932
337.910706	720.142029	1746.336914	763.980652	4.271959
338.277954	721.925293	1783.934082	764.054871	3.966971
338.645264	732.179016	1862.174805	769.850525	3.333774
339.012421	730.767273	1949.406250	776.537781	3.755871
339.379669	724.748779	2005.430298	790.952454	5.169410
339.746796	721.850891	2044.810913	798.754211	5.812974
340.113953	730.544434	2072.525635	796.896667	4.944349
340.481018	726.606262	2078.469971	790.283752	4.710348
340.848114	726.309082	2082.333740	792.141296	4.854795
341.215118	720.810730	2077.801270	790.060852	5.103214
341.582153	733.367859	2084.711670	793.404480	4.442735
341.949066	730.767273	2096.525391	796.079346	4.782112
342.316010	728.909668	2109.899902	803.955383	5.434196
342.682922	724.600159	2118.073242	805.887268	5.833418
343.049835	719.770508	2132.488037	818.964600	7.021509
343.416656	727.572266	2172.314453	835.608398	7.477883
343.783478	727.126404	2213.775391	839.992371	7.591972
344.150269	731.287354	2273.291992	840.512390	7.083314
344.516998	721.479431	2325.303711	837.317444	7.222613
344.883728	723.782776	2383.334229	849.131531	7.553171
345.250427	726.829285	2420.411133	848.908630	7.208353
345.617065	731.584656	2429.847656	857.973450	7.442239
345.983704	722.593994	2429.178955	867.038391	8.463944
346.350281	713.826233	2427.395752	873.948547	9.344372
346.716827	711.894348	2430.813477	875.434631	9.514134
347.083405	708.327820	2419.296631	873.874329	9.675601
347.449860	730.024170	2404.882080	884.796875	9.240946
347.816376	732.253235	2378.578857	884.202393	9.229593
348.182770	733.293518	2372.634521	882.419128	9.096680
348.549194	712.785950	2363.643799	883.459290	10.338464
348.915558	712.042969	2378.207275	899.360107	11.242417
349.281921	724.525879	2391.581787	907.607727	10.982346
349.648193	728.463867	2404.287354	908.276428	10.729803
350.014526	731.807556	2431.853760	903.818298	10.118005
350.380737	719.696228	2463.581055	915.260925	11.214314
350.746948	722.073792	2504.596191	930.938782	11.717383
351.113159	717.764343	2523.246094	944.981934	12.584874
351.479309	720.142029	2535.729248	950.257507	12.674438
351.845428	714.049133	2560.620361	955.533020	13.077420
352.211517	712.934570	2583.654297	959.842590	13.198558
352.577576	707.584778	2615.827393	972.028137	13.857952
352.943604	711.597168	2642.130615	979.681396	13.886537
353.309601	714.643555	2677.870117	992.832947	14.170010
353.675537	716.872620	2730.030518	1002.418030	14.183954
354.041473	715.980957	2781.968018	1018.838867	14.659236
354.407379	715.832336	2841.930664	1031.396118	14.842388
354.773254	728.761047	2897.583252	1054.801392	15.033060
355.139038	732.253235	2951.155518	1061.934570	14.857857
355.504913	727.943787	3019.811279	1078.132446	15.279621
355.870636	717.912903	3082.522705	1085.265503	15.535442
356.236389	711.002747	3139.141357	1110.305664	16.444815
356.602081	718.507324	3206.756836	1141.512695	17.000118
356.967804	723.708496	3273.555420	1163.432007	17.245094
357.333405	723.931458	3357.145752	1183.345093	17.446877
357.699036	715.683838	3429.962158	1196.793945	17.725157
358.064606	707.584900	3519.348389	1217.821533	18.146500
358.430176	704.909912	3590.010498	1232.533569	18.287878
358.795654	707.436218	3639.347412	1250.737793	18.530628
359.161163	711.522766	3637.043945	1265.449585	18.934296
359.526581	714.940735	3647.372070	1278.006714	19.201336
359.892029	720.216248	3674.566406	1288.631958	19.239958
360.257416	716.055359	3730.516357	1307.356323	19.615479
360.622772	721.033508	3817.004883	1342.873047	20.085442
360.988098	718.655945	3926.973389	1373.114258	20.398802
361.353394	722.148193	4093.262695	1414.872437	20.548820
361.718658	721.851013	4248.629883	1449.646118	20.636255
362.083893	722.593994	4386.684082	1486.871704	20.858595
362.449097	729.355530	4464.107910	1503.887085	20.738499
362.814209	726.829163	4487.810059	1516.741577	21.002829
363.179382	724.748718	4399.761230	1516.221191	21.536592
363.544434	725.120178	4251.898926	1496.828247	21.881386
363.909546	728.909668	4063.912842	1463.391968	22.023436
364.274536	731.658875	3917.387939	1430.401733	21.933531
364.639587	723.114075	3795.680420	1405.287476	22.202072
365.004517	721.925293	3723.458252	1401.349243	22.635899
365.369507	713.008972	3685.563721	1400.160278	23.116524
365.734344	718.284424	3670.702881	1416.209961	23.639112
366.099274	718.804504	3662.677734	1425.646118	24.010599
366.464081	724.823059	3642.839111	1441.324219	24.554394
366.828918	724.228699	3642.319336	1445.782227	24.726906
367.193665	723.857117	3642.022217	1454.995728	25.054739
367.558411	723.188416	3672.263428	1464.655273	25.142353
367.923126	711.151306	3677.984619	1470.005005	25.577902
368.287781	710.036804	3693.068115	1476.395142	25.690590
368.652435	707.361877	3668.473877	1476.023560	25.958548
369.017059	725.120300	3666.170654	1491.552734	26.059820
369.381653	729.058289	3654.430664	1488.506348	25.960732
369.746185	733.887939	3670.925781	1494.153320	25.885447
370.110687	731.138672	3681.699951	1491.998535	25.786953
370.475220	731.435974	3704.807861	1502.624023	25.936481
370.839661	736.117004	3733.489014	1516.815796	26.046108
371.204041	735.299805	3772.052002	1537.620483	26.420355
371.568451	729.949890	3812.918701	1558.573853	26.877468
371.932770	730.024231	3870.131592	1575.589233	26.927900
372.297150	727.646484	3893.313721	1595.799438	27.424011
372.661377	729.206848	3920.063232	1608.951172	27.570789
373.025696	725.120300	3932.620361	1611.625977	27.638525
373.389862	723.039734	3949.932617	1603.378418	27.281311
373.754059	725.937561	3963.232666	1598.771851	26.961838
374.118225	718.581543	3972.966553	1604.493042	27.222086
374.482361	724.154297	4007.368896	1623.365845	27.388144
374.846436	723.857117	4044.222656	1651.749512	27.945490
375.210510	732.104736	4112.878418	1676.046387	27.920877
375.574524	733.962219	4185.546387	1704.875977	28.129511
375.938538	726.680664	4264.901855	1721.742554	28.123224
376.302460	728.166687	4350.647461	1743.216187	28.020840
376.666412	718.061523	4461.209961	1761.123047	27.865887
377.030304	721.851013	4553.939941	1785.791626	27.763987
377.394196	714.717957	4636.267090	1811.723267	27.973776
377.757996	723.782776	4714.656738	1840.329956	27.977509
378.121796	722.891174	4779.671387	1862.397827	28.088940
378.485565	728.018066	4798.023926	1877.184082	28.234997
378.849304	721.182190	4764.810547	1866.335938	28.319956
379.212982	722.668274	4704.997070	1843.524780	28.145754
379.576630	719.398926	4624.006836	1813.655151	28.024740
379.940277	718.358704	4554.311035	1805.778931	28.348114
380.303864	710.259583	4499.104004	1798.645874	28.726072
380.667450	709.070801	4498.286621	1809.717163	29.046812
381.030945	711.745789	4500.887207	1812.317749	29.045420
381.394501	717.318420	4539.004395	1831.636353	29.157755
381.757935	718.358704	4560.849609	1838.249390	29.144913
382.121399	720.216248	4565.382324	1846.794067	29.298550
382.484741	719.993347	4583.437500	1865.890015	29.659979
382.848145	724.451477	4606.396973	1886.843262	29.943539
383.211487	719.696106	4669.108887	1921.171265	30.421614
383.574768	720.216248	4726.693359	1954.235962	30.800621
383.938019	715.832458	4791.336426	1979.424438	31.004560
384.301270	719.176086	4855.534180	2003.349976	31.046003
384.664459	721.776672	4903.235840	2021.776978	31.089632
385.027649	720.587830	4953.984863	2055.287354	31.527861
385.390778	724.228699	5000.350098	2085.008545	31.822758
385.753876	717.244141	5045.377441	2111.088867	32.204292
386.116943	717.169861	5073.315430	2138.952393	32.638542
386.479980	716.352539	5084.832031	2154.035889	32.910385
386.842987	723.262695	5123.098145	2179.521729	33.098034
387.205994	724.154358	5148.361328	2199.211914	33.340611
387.568909	720.513489	5196.509277	2224.326172	33.597279
387.931793	722.965515	5216.868652	2249.737793	33.974300
388.294678	724.005676	5265.685059	2269.353760	34.025921
388.657471	721.256592	5300.607422	2291.421631	34.287941
389.020294	724.302979	5325.350098	2304.647705	34.347504
389.383057	722.742615	5348.161621	2325.972412	34.661285
389.745819	721.182190	5354.922363	2351.681152	35.187534
390.108521	717.021240	5363.021484	2376.424072	35.716808
390.471191	713.231873	5419.565918	2407.408203	35.997791
390.833801	719.547546	5494.908691	2441.215820	36.053150
391.196442	712.785950	5624.642090	2488.621094	36.154057
391.558960	717.467041	5719.897949	2540.409912	36.441143
391.921509	714.123474	5840.713379	2581.350830	36.422405
392.284027	723.634216	5935.672363	2625.486572	36.489609
392.646484	715.535217	6025.355957	2670.291016	36.813969
393.008911	716.501160	6068.525879	2694.365234	36.955433
393.371307	710.631287	6079.225098	2702.464111	37.101574
393.733673	714.049133	6051.659668	2693.696533	37.088646
394.096008	713.603333	6013.914063	2711.083252	37.686092
394.458344	711.820129	6007.078125	2729.658936	38.106529
394.820587	720.587830	6015.771484	2740.581299	38.147751
395.182831	721.776672	6059.312500	2753.584717	38.066410
395.545013	723.857178	6078.482910	2761.832031	38.060078
395.907196	723.485657	6058.940918	2762.723877	38.220512
396.269287	722.742493	5998.310059	2745.708252	38.345940
396.631409	723.931458	5915.759277	2719.330811	38.433468
396.993469	721.107910	5840.342285	2718.290283	39.013302
397.355530	719.919128	5798.732910	2710.340332	39.190670
397.717499	717.838623	5776.664551	2722.154541	39.620178
398.079468	716.872742	5775.624512	2712.495117	39.448906
398.441376	716.575439	5770.572266	2740.804443	40.052040
398.803284	713.900574	5791.079590	2749.348877	40.090141
399.165131	713.528992	5823.029785	2777.361328	40.392052
399.526978	720.141907	5846.806152	2770.897217	40.001751
399.888763	722.593994	5863.895996	2797.348633	40.354656
400.250519	722.222473	5869.691895	2799.354736	40.352497
400.612244	730.024231	5887.450684	2826.772705	40.654938
400.973938	725.937561	5903.054199	2818.599365	40.421375
401.335602	718.135742	5918.880371	2839.180908	40.783489
401.697205	707.956299	5968.588379	2862.809326	40.961868
402.058807	713.306152	6010.718750	2895.577148	41.195034
402.420349	716.649719	6086.209473	2939.044189	41.388767
402.781860	706.990417	6158.580566	2968.616455	41.485619
403.143341	706.767517	6249.527344	3010.374756	41.560654
403.504822	707.882019	6347.235840	3053.767578	41.598480
403.866241	715.832458	6450.813965	3103.698975	41.636864
404.227631	713.008972	6572.001465	3149.097656	41.578625
404.588959	717.244141	6701.213379	3197.840576	41.454029
404.950287	712.711731	6810.513184	3246.657471	41.555073
405.311554	713.454773	6898.189941	3294.285400	41.729038
405.672821	715.460938	6957.781250	3320.514404	41.732132
406.034027	716.575378	6958.152344	3323.783936	41.771629
406.395203	717.169861	6928.580078	3304.687744	41.657494
406.756348	712.414551	6880.729004	3292.205078	41.823265
407.117493	710.631287	6859.479004	3294.433838	42.020924
407.478516	716.724060	6842.760254	3305.505127	42.258663
407.839600	724.451477	6856.060547	3321.628906	42.357193
408.200592	736.711426	6854.054688	3329.059326	42.377022
408.561554	730.767273	6851.082031	3345.257080	42.718224
408.922485	726.160461	6863.416504	3347.857666	42.717743
409.283417	719.398926	6888.159668	3361.083740	42.823589
409.644257	720.736328	6970.486816	3385.083252	42.631252
410.005096	721.033508	7047.613281	3428.030518	42.787685
410.365906	719.250305	7117.309082	3466.890869	42.944912
410.726715	721.925232	7198.224609	3517.490967	43.166096
411.087433	718.358704	7252.763184	3545.948975	43.272350
411.448120	717.838562	7339.994141	3584.437500	43.288002
411.808807	720.142029	7363.622559	3596.994873	43.303398
412.169434	727.869446	7373.876465	3593.056641	43.111408
412.530029	733.070618	7377.814453	3587.186768	42.952991
412.890564	720.141907	7367.188965	3588.227295	43.148266
413.251099	718.358704	7364.811035	3603.087646	43.402538
413.611572	717.318420	7390.074219	3617.651123	43.465290
413.972076	728.092346	7435.398926	3639.050049	43.399803
414.332489	726.457703	7487.113281	3659.409180	43.382648
414.692871	720.959290	7576.275879	3684.151611	43.224735
415.053223	717.764343	7669.452637	3718.108154	43.159927
415.413574	713.306152	7822.961426	3788.250000	43.250252
415.773834	717.318420	7917.920410	3849.549805	43.499577
416.134094	720.513489	8051.220215	3920.285889	43.648895
416.494263	717.615662	8160.519531	3967.170898	43.659775
416.854462	718.730225	8349.397461	4055.665283	43.730583
417.214630	719.027405	8553.581055	4138.884277	43.650948
417.574738	725.343201	8772.477539	4246.846191	43.760956
417.934784	729.875671	8990.407227	4340.690918	43.711658
418.294861	723.337097	9240.137695	4473.098145	44.027813
418.654846	716.575500	9558.079102	4612.638672	44.065617
419.014832	716.724121	9877.952148	4763.918457	44.177418
419.374756	718.730225	10237.354492	4894.394531	43.868359
419.734680	732.922058	10581.004883	5050.727539	43.844124
420.094543	726.160461	10927.034180	5226.230957	44.114555
420.454376	725.120300	11228.032227	5382.935059	44.347843
420.814148	715.981018	11559.497070	5522.549316	44.326660
421.173920	715.386658	11920.906250	5653.545410	44.068985
421.533691	717.987244	12291.676758	5791.451172	43.836185
421.893341	721.330872	12594.088867	5921.406250	43.798378
422.253021	722.742615	12816.253906	6023.869629	43.834473
422.612640	723.262695	12927.261719	6078.631348	43.882080
422.972260	725.268860	12945.539063	6082.866699	43.841892
423.331757	724.079895	12912.030273	6075.064453	43.903893
423.691315	732.922058	12908.461914	6102.779785	44.103653
424.050781	739.386292	12956.610352	6155.906250	44.335114
424.410248	739.237793	13025.192383	6200.562500	44.451771
424.769653	732.401917	13120.895508	6225.751465	44.342354
425.128998	723.188477	13201.141602	6243.954590	44.244164
425.488373	727.572266	13199.209961	6231.100098	44.128349
425.847656	722.816895	13100.757813	6193.578125	44.197666
426.206940	724.302979	12962.333008	6140.822754	44.259731
426.566193	719.473328	12743.140625	6059.387207	44.411694
426.925385	715.683777	12529.296875	5960.564453	44.396923
427.284576	714.792175	12237.510742	5831.277344	44.403458
427.643677	722.742615	12006.874023	5727.179688	44.349331
428.002777	731.733215	11777.575195	5656.443359	44.584290
428.361847	727.720886	11525.096680	5559.404297	44.748684
428.720856	719.473206	11282.348633	5472.320801	44.995777
429.079865	715.015076	11079.723633	5394.674316	45.149933
429.438812	719.473328	10963.588867	5354.402344	45.244797
429.797760	717.912903	10911.131836	5325.572754	45.203186
430.156616	720.067688	10807.850586	5274.304199	45.146057
430.515503	723.708496	10723.887695	5245.475098	45.216854
430.874268	729.058350	10689.783203	5224.818848	45.134876
431.233093	726.234802	10712.817383	5237.672852	45.174992
431.591827	720.587830	10724.186523	5255.431641	45.332123
431.950562	722.742493	10733.770508	5285.375000	45.576061
432.309204	718.358704	10798.414063	5305.660156	45.508690
432.667877	718.210144	10929.855469	5350.241699	45.360287
433.026459	714.346375	11049.038086	5391.851563	45.260231
433.385010	721.182129	11150.312500	5458.352051	45.422482
433.743561	722.296692	11300.403320	5517.423340	45.330669
434.102051	723.559875	11435.932617	5580.431641	45.338894
434.460510	723.039734	11606.828125	5643.365723	45.207848
434.818939	721.330750	11670.727539	5680.517578	45.291874
435.177338	717.541321	11730.467773	5699.687500	45.239075
435.535675	717.392822	11705.500977	5694.560059	45.295940
435.894012	719.770508	11664.338867	5685.569824	45.372272
436.252289	721.107910	11667.831055	5698.721191	45.471264
436.610535	719.844727	11648.957031	5708.529785	45.645840
436.968719	730.618652	11755.953125	5775.922363	45.761005
437.326935	732.401917	11857.526367	5832.466309	45.842766
437.685028	739.237793	11981.015625	5870.807129	45.647312
438.043152	731.807556	12061.784180	5892.800781	45.551666
438.401215	731.138733	12212.246094	5962.867676	45.568157
438.759277	722.593933	12397.929688	6060.873047	45.722706
439.117249	724.525818	12676.862305	6214.159668	45.929375
439.475250	722.222473	12889.515625	6332.820801	46.112133
439.833130	731.138733	13180.708008	6470.578125	46.101509
440.191071	732.847839	13388.831055	6560.335938	46.045322
440.548889	733.070618	13634.176758	6671.789551	46.032631
440.906708	725.268860	13872.094727	6776.854004	46.030766
441.264496	716.946960	14076.426758	6868.023438	46.042786
441.622223	723.188416	14273.403320	6937.125000	45.858582
441.979950	726.457703	14351.198242	6993.000488	45.993855
442.337616	732.401855	14424.609375	7040.851563	46.073284
442.695251	735.299744	14342.356445	7019.675293	46.184681
443.052887	728.018066	14218.717773	6956.740723	46.170494
443.410461	718.061462	14091.362305	6892.691895	46.171326
443.768005	715.163635	13973.742188	6850.338379	46.273247
444.125458	726.457703	13913.333008	6840.828125	46.367092
444.482941	730.544373	13915.190430	6845.583496	46.380001
444.840393	726.829285	13994.249023	6900.419434	46.531960
445.197754	715.163757	14194.344727	6990.771484	46.557785
445.555084	713.157532	14387.458008	7099.328125	46.701988
445.912415	702.829407	14676.421875	7240.130859	46.783253
446.269714	709.888184	14878.749023	7336.650879	46.769901
446.626953	710.333984	15178.485352	7454.792480	46.615898
446.984161	720.290527	15436.167969	7545.590332	46.380516
447.341309	722.816895	15668.364258	7645.007324	46.316074
447.698456	724.080017	15840.449219	7747.395996	46.461658
448.055542	727.423584	16005.028320	7822.515625	46.441128
448.412598	730.990173	16030.589844	7866.949219	46.641476
448.769653	733.813660	15932.213867	7825.488281	46.660667
449.126617	729.355530	15712.203125	7738.554688	46.781490
449.483582	726.160461	15554.532227	7672.572754	46.845413
449.840515	727.646545	15353.541992	7582.443848	46.867538
450.197388	726.309082	15152.032227	7501.305176	46.964691
450.554230	726.606262	14989.831055	7438.074219	47.054352
450.911041	726.457703	14853.782227	7368.898438	47.018394
451.267822	724.005676	14756.965820	7351.140137	47.225491
451.624573	715.089355	14626.862305	7283.375488	47.213867
451.981262	712.414551	14549.585938	7263.091309	47.341152
452.337921	715.535156	14444.522461	7215.759766	47.346714
452.694580	721.627991	14404.401367	7186.410156	47.247601
453.051147	719.324646	14404.624023	7166.423340	47.109665
453.407715	720.216309	14388.870117	7136.479004	46.941437
453.764221	722.668213	14430.331055	7167.240723	47.014378
454.120728	730.618652	14278.234375	7135.735840	47.278557
454.477142	728.686829	14235.137695	7161.667969	47.628952
454.833557	727.126465	14092.700195	7105.049316	47.719032
455.189911	721.479492	14005.096680	7075.476563	47.833336
455.546265	723.931458	13853.147461	6997.161621	47.780689
455.902557	731.658875	13733.965820	6971.007324	47.986477
456.258820	726.532043	13737.979492	6968.109375	47.969891
456.615051	723.485596	13795.042969	7009.718750	48.090927
456.971252	717.244202	13810.127930	7011.204590	48.071613
457.327393	721.256531	13907.090820	7087.291016	48.279346
457.683502	721.033691	14068.700195	7186.856934	48.441601
458.039612	719.844788	14404.176758	7366.520020	48.571426
458.395630	719.770508	14727.096680	7548.636230	48.752102
458.751648	715.460938	15093.483398	7712.919922	48.667744
459.107605	716.278259	15578.084961	7945.710938	48.644371
459.463562	715.089355	16120.569336	8160.891113	48.332161
459.819458	720.216309	16598.113281	8397.247070	48.350426
460.175323	718.953125	17054.109375	8598.609375	48.237411
460.531158	714.717834	17476.150391	8796.848633	48.218620
460.886932	709.962463	17840.677734	8928.512695	47.975521
461.242676	705.355713	18062.992188	9027.557617	47.945480
461.598419	717.169861	18080.230469	9034.988281	47.905254
461.954102	721.033630	17877.681641	8978.740234	48.131237
462.309723	726.309082	17431.417969	8790.382813	48.273098
462.665344	714.197754	16919.472656	8570.893555	48.482334
463.020905	719.324707	16445.496094	8347.539063	48.506493
463.376373	718.581604	16068.484375	8186.450684	48.650925
463.731873	719.919006	15752.176758	8047.207520	48.743767
464.087341	713.677673	15537.741211	7930.180176	48.681000
464.442749	716.055359	15425.320313	7884.781250	48.736130
464.798126	715.758118	15345.815430	7824.076172	48.587082
465.153503	716.724060	15385.270508	7862.193848	48.712868
465.508820	714.569275	15409.046875	7852.979980	48.578865
465.864105	721.553711	15494.272461	7919.035156	48.721439
466.219330	725.863342	15673.565430	8043.121094	48.952393
466.574524	730.470032	15803.445313	8136.593750	49.135113
466.929657	725.343201	15982.737305	8234.969727	49.219585
467.284790	725.268860	16165.448242	8296.938477	49.038738
467.639893	723.188416	16380.554688	8399.774414	49.028591
467.994934	724.748718	16620.107422	8492.207031	48.866207
468.349945	725.194519	16730.521484	8557.445313	48.935276
468.704926	721.330811	16804.601563	8598.905273	48.979927
469.059875	724.154297	16657.035156	8564.725586	49.210003
469.414764	721.851013	16508.205078	8479.797852	49.143372
469.769653	722.296692	16331.070313	8405.643555	49.224537
470.124451	718.284424	16236.928711	8384.913086	49.402699
470.479248	719.696106	16070.862305	8334.536133	49.604309
470.834015	715.386536	15990.391602	8272.791016	49.475628
471.188721	711.374207	16049.610352	8269.669922	49.277477
471.543365	710.705505	16116.184570	8295.750977	49.236023
471.898010	710.185364	16199.627930	8342.413086	49.273739
472.252625	713.231750	16289.979492	8393.754883	49.307613
472.607178	704.315430	16511.625000	8492.950195	49.272362
472.961700	702.606506	16693.369141	8601.133789	49.394314
473.316193	707.361877	16934.630859	8738.445313	49.491283
473.670654	717.095520	17110.505859	8838.606445	49.541313
474.025055	724.600098	17379.927734	8979.929688	49.565701
474.379456	717.764343	17589.980469	9083.433594	49.582512
474.733795	724.302979	17769.646484	9176.906250	49.588928
475.088104	728.092346	17906.880859	9237.091797	49.532005
475.442383	738.494812	17908.666016	9251.059570	49.577629
475.796570	731.361633	17973.828125	9302.106445	49.707188
476.150787	725.640381	18069.083984	9380.198242	49.901035
476.504944	723.634277	18251.794922	9475.899414	49.932598
476.859070	731.361633	18448.919922	9589.657227	49.997272
477.213135	735.299805	18647.306641	9665.520508	49.856056
477.567200	726.086182	18960.271484	9834.856445	49.954357
477.921173	722.296814	19336.984375	9991.932617	49.797428
478.275146	717.169861	19762.443359	10232.748047	49.962936
478.629089	730.618652	20095.392578	10389.749023	49.879906
478.983002	731.435974	20490.089844	10572.608398	49.806900
479.336823	729.058289	20860.193359	10720.247070	49.630527
479.690643	720.810730	21228.660156	10906.153320	49.665581
480.044403	718.878906	21614.884766	11122.448242	49.787357
480.398163	723.262695	22142.359375	11414.458008	49.914314
480.751862	721.628113	22894.599609	11801.426758	49.969845
481.105499	717.912903	23808.226563	12318.203125	50.238770
481.459137	719.993408	24988.375000	12964.710938	50.455437
481.812744	720.810730	26433.046875	13759.601563	50.710449
482.166290	730.544434	28209.771484	14707.926758	50.865269
482.519806	727.795166	30341.294922	15822.022461	50.970764
482.873291	729.727051	32770.546875	17056.042969	50.954739
483.226715	719.844788	35465.433594	18434.357422	50.983482
483.580139	719.027527	38193.453125	19874.195313	51.115307
483.933502	719.027405	41202.191406	21395.914063	51.075272
484.286804	725.789063	44150.894531	22864.953125	50.982407
484.640106	724.525879	46969.718750	24282.724609	50.941944
484.993347	724.674500	49013.937500	25445.634766	51.193497
485.346558	717.169861	50221.359375	26166.296875	51.408024
485.699738	721.479431	50366.027344	26276.710938	51.476414
486.052887	720.439148	49661.265625	25878.298828	51.404644
486.405975	718.730164	48318.468750	25120.337891	51.264164
486.759064	715.312256	46491.359375	24146.156250	51.185818
487.112061	711.894348	44614.625000	23148.716797	51.105755
487.464996	712.191589	43118.984375	22344.687500	51.011864
487.817963	716.872620	42362.207031	21917.000000	50.906364
488.170868	722.816895	42171.996094	21753.980469	50.739639
488.523743	719.696106	42340.886719	21820.703125	50.697750
488.876587	713.751953	42549.230469	21873.607422	50.578735
489.229401	715.237976	42512.226563	21897.679688	50.679348
489.582153	724.600098	42125.109375	21732.580078	50.743290
489.934845	726.829285	41400.359375	21399.333984	50.825447
490.287537	723.485596	40527.753906	20972.388672	50.871181
490.640198	725.863281	39586.558594	20536.007813	50.977329
490.992798	723.782898	38688.089844	20097.324219	51.030933
491.345337	725.417480	38184.167969	19827.607422	50.995266
491.697876	720.736328	37948.332031	19653.218750	50.856045
492.050354	733.293518	38199.027344	19765.339844	50.798542
492.402832	733.145020	38489.773438	19871.666016	50.689171
492.755219	739.906555	38755.703125	19952.212891	50.537693
493.107605	729.206970	38652.574219	19841.501953	50.397148
493.459930	727.126465	38156.230469	19562.197266	50.321987
493.812225	722.668274	37079.882813	19090.523438	50.520523
494.164490	721.405090	35593.457031	18380.339844	50.639221
494.516724	714.420654	33823.566406	17479.271484	50.635109
494.868896	716.798340	32044.236328	16578.050781	50.630543
495.221039	716.352539	30520.736328	15822.393555	50.683960
495.573120	723.708496	29204.908203	15224.627930	50.914009
495.925201	722.742615	28403.851563	14822.129883	50.935051
496.277222	726.606262	27862.703125	14563.112305	50.989300
496.629211	723.411316	27694.333984	14450.320313	50.895218
496.981140	717.838562	27590.828125	14350.753906	50.730919
497.333069	714.420654	27669.591797	14376.387695	50.684029
497.684967	718.061523	27755.632813	14413.687500	50.654057
498.036804	716.203918	27881.875000	14483.161133	50.677773
498.388580	716.724121	27865.453125	14479.743164	50.694897
498.740326	712.860352	27796.500000	14465.105469	50.776943
499.092072	717.392822	27621.443359	14404.250977	50.872852
499.443756	714.866455	27398.833984	14288.190430	50.866966
499.795410	717.838623	27162.771484	14143.820313	50.769581
500.147003	723.411316	26860.062500	13993.208008	50.770840
500.498566	725.937561	26520.275391	13825.507813	50.784672
500.850098	724.525818	26159.537109	13673.484375	50.909977
501.201599	717.689941	25856.455078	13536.840820	50.993557
501.553009	717.244141	25611.181641	13407.851563	50.978706
501.904449	714.420654	25427.431641	13295.729492	50.909653
502.255859	715.237976	25248.435547	13194.676758	50.867558
502.607178	721.776611	25168.634766	13161.242188	50.883701
502.958405	721.925232	25058.220703	13133.971680	51.002205
503.309692	718.655945	24992.093750	13102.320313	51.017349
503.660919	708.402161	24988.080078	13077.502930	50.944252
504.012115	713.751953	25023.968750	13097.711914	50.941380
504.363251	712.191589	25131.039063	13138.652344	50.888809
504.714294	725.194580	25144.931641	13189.328125	51.041229
505.065369	731.287354	25186.765625	13189.921875	50.944145
505.416443	746.073547	25222.281250	13211.023438	50.926804
505.767395	741.912659	25308.992188	13240.893555	50.876949
506.118317	734.036621	25310.181641	13268.311523	51.001797
506.469238	717.467102	25347.482422	13301.598633	51.092667
506.820160	711.671387	25294.205078	13316.237305	51.274483
507.170929	715.163635	25328.685547	13334.589844	51.270298
507.521729	717.021179	25350.304688	13351.902344	51.291908
507.872498	718.358704	25487.914063	13379.171875	51.114418
508.223236	711.299988	25671.812500	13460.532227	51.077610
508.573883	715.906799	25798.720703	13544.270508	51.144035
508.924500	716.872742	25937.369141	13630.387695	51.202461
509.275116	721.405090	26103.734375	13708.554688	51.166103
509.625702	722.148132	26354.953125	13808.194336	51.051949
509.976196	723.931335	26616.720703	13925.073242	50.983852
510.326660	723.114075	26853.447266	14077.541992	51.106991
510.677124	729.281250	27069.000000	14226.370117	51.242344
511.027557	737.305847	27267.611328	14389.242188	51.457897
511.377869	747.039551	27476.697266	14493.340820	51.427147
511.728180	741.838318	27641.726563	14556.942383	51.357479
512.078430	728.240967	27807.048828	14602.268555	51.235737
512.428650	714.346375	27950.232422	14653.686523	51.180046
512.778931	712.860352	28051.431641	14727.171875	51.262051
513.129028	720.141907	28105.451172	14762.539063	51.277119
513.479126	725.640381	28120.236328	14814.179688	51.428169
513.829285	725.714661	28119.271484	14817.747070	51.442871
514.179382	723.857117	28120.833984	14815.518555	51.435097
514.529297	724.600098	28101.437500	14807.863281	51.442257
514.879272	724.971680	28188.148438	14827.182617	51.349525
515.229187	720.810730	28098.687500	14812.989258	51.472870
515.579163	719.473206	28162.515625	14840.778320	51.456776
515.928955	714.420654	28141.787109	14871.913086	51.618122
516.278748	718.433044	28331.478516	14981.360352	51.652863
516.628540	722.519714	28513.447266	15078.104492	51.655651
516.978333	730.692932	28850.927734	15259.773438	51.667706
517.327942	726.309082	29278.244141	15494.421875	51.723686
517.677612	722.296814	29751.478516	15755.000000	51.784798
518.027222	717.615723	30272.634766	15993.958008	51.687809
518.376831	714.866455	30927.021484	16261.968750	51.459763
518.726379	709.145203	31560.080078	16566.535156	51.400028
519.075867	707.064697	32137.859375	16836.550781	51.317463
519.425293	721.033630	32574.833984	17088.140625	51.381962
519.774658	726.086243	32939.140625	17231.841797	51.239338
520.124084	727.423645	33140.277344	17339.134766	51.250381
520.473389	719.919006	33100.671875	17327.095703	51.287186
520.822693	717.689941	32885.496094	17265.574219	51.442379
521.171997	724.228577	32563.763672	17115.482422	51.480820
521.521240	727.720886	32195.146484	16961.824219	51.590187
521.870361	733.442139	31813.005859	16785.207031	51.647327
522.219482	725.343201	31458.507813	16616.541016	51.707005
522.568604	721.479431	31159.736328	16413.544922	51.553757
522.917664	721.182190	30966.031250	16268.061523	51.403393
523.266724	724.525879	30892.544922	16256.469727	51.484795
523.615662	721.628113	31038.697266	16356.481445	51.571125
523.964600	714.197754	31343.115234	16584.218750	51.813850
524.313538	714.792175	31822.294922	16815.892578	51.759541
524.662354	722.965393	32426.750000	17136.435547	51.771328
525.011169	731.584656	33165.019531	17497.771484	51.694145
525.359985	727.275085	34026.484375	17954.287109	51.733994
525.708740	716.798340	35049.484375	18478.269531	51.733414
526.057434	717.392822	36188.988281	19092.902344	51.803452
526.406067	716.055359	37543.378906	19845.068359	51.942448
526.754700	717.392761	39041.250000	20671.685547	52.067551
527.103333	709.962463	40785.730469	21664.962891	52.288452
527.451782	707.882019	42682.082031	22738.117188	52.485180
527.800293	715.535156	44673.394531	23861.203125	52.654221
528.148743	716.649719	46665.300781	24944.240234	52.727531
528.497131	724.005676	48548.207031	26012.937500	52.878941
528.845642	721.330811	50240.453125	27003.466797	53.074722
529.193909	722.593933	51714.988281	27918.654297	53.333561
529.542175	719.324646	52929.613281	28713.396484	53.617924
529.890503	718.061462	53747.761719	29337.984375	53.969612
530.238770	714.569153	54091.859375	29610.078125	54.134464
530.586914	710.705505	53936.050781	29485.843750	54.062851
530.934998	715.163635	53220.066406	28931.400391	53.740192
531.283142	722.222412	52070.457031	28156.125000	53.427158
531.631226	731.807434	50339.500000	27115.070313	53.183815
531.979248	721.479431	48384.296875	25964.267578	52.961178
532.327148	716.055359	46383.769531	24763.388672	52.657188
532.675110	712.414490	44704.234375	23765.427734	52.402954
533.023071	715.460876	43598.531250	23110.968750	52.224590
533.370850	722.296814	43032.199219	22790.130859	52.157612
533.718689	721.479431	43113.410156	22769.623047	52.010239
534.066467	725.640381	43370.277344	22872.458984	51.933418
534.414246	720.290527	43674.394531	23012.148438	51.896919
534.761963	713.677673	43782.433594	23114.759766	52.012371
535.109619	717.541443	43858.441406	23173.607422	52.052849
535.457153	713.603333	43577.730469	23030.576172	52.064449
535.804749	720.885010	43049.136719	22715.976563	51.963150
536.152344	715.386536	42200.902344	22268.525391	51.953407
536.499817	723.857117	41233.925781	21736.740234	51.870762
536.847229	712.191589	40214.937500	21190.765625	51.840889
537.194641	708.922302	39241.644531	20665.966797	51.792461
537.542114	705.281433	38556.648438	20319.787109	51.819809
537.889404	716.724060	38028.578125	20012.470703	51.714787
538.236694	719.696106	37663.976563	19775.744141	51.580509
538.583984	713.974854	37394.554688	19607.001953	51.506897
538.931213	712.340149	37239.488281	19574.904297	51.639851
539.278381	706.470276	37142.968750	19589.837891	51.825413
539.625488	713.231873	37049.343750	19615.248047	52.019917
539.972595	709.293762	37118.964844	19659.535156	52.047276
540.319641	714.272156	37422.488281	19854.951172	52.142769
540.666687	714.197754	37989.121094	20156.248047	52.158527
541.013611	717.169922	38936.781250	20637.208984	52.119946
541.360596	721.925293	40047.312500	21154.802734	51.958488
541.707458	719.250305	41359.273438	21811.638672	51.900532
542.054260	718.953125	42542.691406	22428.869141	51.908119
542.401062	724.897278	43758.730469	23050.115234	51.878296
542.747864	725.640381	44688.550781	23456.998047	51.705761
543.094666	728.686829	45237.875000	23700.115234	51.610531
543.441284	725.640442	45166.246094	23724.265625	51.751377
543.787903	724.451599	44637.503906	23491.103516	51.844845
544.134460	721.702332	43729.980469	23027.974609	51.865067
544.481079	715.089355	42489.042969	22340.005859	51.766506
544.827637	720.736328	40963.832031	21528.173828	51.704369
545.174072	718.210144	39281.101563	20631.193359	51.637680
545.520508	722.593933	37806.121094	19819.880859	51.498032
545.866943	719.547546	36607.390625	19170.326172	51.412338
546.213318	728.612488	35649.257813	18699.095703	51.460915
546.559631	731.213074	34834.597656	18263.609375	51.409554
546.905823	726.309082	34113.265625	17886.523438	51.397961
547.252136	720.141907	33584.828125	17583.515625	51.311527
547.598389	714.717957	33102.230469	17319.146484	51.267994
547.944458	719.696106	32790.160156	17139.185547	51.198166
548.290588	727.275085	32391.007813	16915.460938	51.125324
548.636658	732.550476	31993.490234	16670.707031	50.984253
548.982727	730.024231	31399.587891	16382.859375	51.037029
549.328735	723.857117	30821.365234	16085.276367	51.038841
549.674622	719.696106	30097.359375	15750.765625	51.164959
550.020569	723.708496	29439.556641	15386.906250	51.063084
550.366455	720.439209	28655.140625	14982.252930	51.054111
550.712280	711.151367	27985.822266	14658.887695	51.138054
551.058044	710.854187	27366.359375	14361.601563	51.211735
551.403748	713.528992	26865.708984	14109.418945	51.222843
551.749512	720.290588	26536.919922	13938.522461	51.200455
552.095154	713.603333	26311.115234	13782.262695	51.054413
552.440735	720.810730	26258.580078	13760.864258	51.061836
552.786316	717.615723	26213.033203	13709.000977	50.955765
553.131897	722.593994	26222.619141	13756.777344	51.114395
553.477417	717.838562	26203.744141	13753.137695	51.147087
553.822815	721.850891	26183.609375	13767.328125	51.235573
554.168213	724.302979	26139.843750	13711.453125	51.099247
554.513672	721.553711	26099.500000	13668.729492	51.017429
554.859009	724.005676	26024.156250	13601.187500	50.897648
555.204285	730.024231	25902.599609	13563.739258	50.982922
555.549500	736.711487	25727.093750	13477.325195	50.982067
555.894714	733.888000	25543.492188	13386.229492	50.997761
556.239990	728.909729	25280.906250	13241.041992	50.961769
556.585022	725.714661	25067.062500	13119.557617	50.916832
556.930115	724.525879	24788.130859	12984.176758	50.946857
557.275146	722.222473	24545.009766	12844.042969	50.883301
557.620178	719.176086	24307.093750	12714.831055	50.855083
557.965149	725.566101	24097.859375	12593.866211	50.779354
558.310059	718.210144	23937.216797	12525.507813	50.851868
558.654968	722.371094	23801.390625	12463.463867	50.873447
558.999756	712.637390	23680.650391	12418.659180	50.966625
559.344604	724.451477	23630.865234	12386.411133	50.911331
559.689331	717.987244	23534.568359	12341.012695	50.941132
560.033997	723.039795	23472.080078	12309.954102	50.933636
560.378723	718.804504	23404.017578	12312.703125	51.107735
560.723389	720.290588	23419.548828	12295.168945	50.992317
561.067932	713.974915	23480.552734	12306.981445	50.921165
561.412476	711.894348	23485.232422	12287.143555	50.828075
561.757019	714.494934	23448.525391	12300.147461	50.961716
562.101501	721.850891	23474.978516	12301.559570	50.892826
562.445862	727.200684	23472.970703	12268.717773	50.741383
562.790222	728.612488	23470.224609	12260.320313	50.707523
563.134644	731.658875	23417.541016	12262.178711	50.826851
563.478943	730.247070	23437.603516	12277.708008	50.853394
563.823181	727.572266	23450.384766	12270.054688	50.796890
564.167358	719.547546	23459.005859	12276.370117	50.822765
564.511536	712.637390	23491.322266	12298.289063	50.861809
564.855774	707.510559	23489.244141	12303.713867	50.901318
565.199768	713.751953	23581.306641	12324.890625	50.775604
565.543823	721.256531	23684.216797	12387.006836	50.802464
565.887817	726.234863	23905.787109	12491.031250	50.755066
566.231812	725.417480	24059.070313	12545.495117	50.656784
566.575745	726.903564	24239.330078	12611.476563	50.545925
566.919617	728.389648	24432.515625	12708.069336	50.538376
567.263428	727.869446	24647.400391	12805.554688	50.492985
567.607239	716.649719	24853.812500	12895.757813	50.457912
567.950989	716.798340	24939.187500	12919.980469	50.379761
568.294678	714.940857	25001.900391	12951.633789	50.383801
568.638367	713.900574	24929.751953	12923.250000	50.418831
568.981995	713.231750	24830.037109	12873.391602	50.421936
569.325623	712.191589	24679.203125	12824.723633	50.538349
569.669128	715.460938	24527.179688	12751.758789	50.547791
570.012573	712.191589	24396.109375	12683.622070	50.546665
570.356140	716.203918	24260.208984	12624.776367	50.580059
570.699524	714.940735	24196.013672	12582.793945	50.542213
571.042908	714.569336	24231.826172	12593.864258	50.513096
571.386230	713.008972	24330.500000	12611.624023	50.380524
571.729492	717.318542	24460.306641	12645.133789	50.237213
572.072815	726.086182	24589.369141	12709.109375	50.215317
572.416016	725.714661	24719.994141	12784.377930	50.256409
572.759094	728.761047	24844.302734	12881.639648	50.394386
573.102234	722.148193	24939.259766	12917.601563	50.358826
573.445374	719.473328	24999.595703	12931.645508	50.296993
573.788391	710.705566	25049.826172	12915.374023	50.144241
574.131409	711.374207	25078.208984	12923.250000	50.116795
574.474365	714.494934	25064.314453	12915.819336	50.108479
574.817261	724.823059	24950.703125	12890.035156	50.215767
575.160156	723.485657	24771.634766	12800.575195	50.220455
575.502930	717.838623	24602.968750	12687.114258	50.111828
575.845703	714.717957	24400.343750	12583.612305	50.110119
576.188477	722.965515	24179.888672	12476.690430	50.107697
576.531250	729.206848	23913.216797	12356.319336	50.151428
576.873901	727.126404	23688.599609	12227.479492	50.085434
577.216431	721.628113	23490.431641	12110.750000	50.020733
577.559082	723.337097	23289.072266	11981.389648	49.890034
577.901611	724.377258	23026.859375	11830.479492	49.797607
578.244080	726.309082	22751.640625	11665.304688	49.665524
578.586487	722.668274	22444.771484	11510.309570	49.662048
578.928955	764.723633	22162.865234	11535.125000	50.333351
579.271301	762.643127	21821.072266	11381.765625	50.426941
579.613647	759.819580	21434.402344	11204.999023	50.521843
579.955872	713.454651	21085.031250	10822.265625	49.622131
580.298157	715.832336	20765.974609	10669.647461	49.644611
580.640320	715.163757	20548.044922	10525.426758	49.464638
580.982483	718.581604	20296.531250	10464.572266	49.780445
581.324524	712.786072	20058.689453	10355.792969	49.845211
581.666626	716.129639	19880.361328	10296.944336	49.993206
582.008728	716.203918	19754.640625	10216.698242	49.901649
582.350647	718.210144	19643.113281	10145.961914	49.816647
582.692566	718.953125	19559.894531	10086.296875	49.718025
583.034424	726.383362	19495.548828	10032.798828	49.583530
583.376343	717.244141	19459.140625	9996.613281	49.511368
583.718201	720.959290	19375.029297	9975.066406	49.609051
584.059937	715.683777	19305.703125	9950.545898	49.676453
584.401611	721.107910	19219.736328	9912.502930	49.686897
584.743347	719.770447	19132.728516	9852.688477	49.600491
585.085022	710.928406	19015.775391	9764.342773	49.459106
585.426514	713.008972	18966.587891	9735.811523	49.430325
585.768127	702.978027	18893.548828	9699.477539	49.456944
586.109619	704.166809	18840.570313	9673.174805	49.453064
586.451172	707.436218	18766.490234	9615.514648	49.327488
586.792542	715.832458	18754.601563	9568.704102	49.076920
587.133850	721.330872	18695.603516	9567.664063	49.216637
587.475220	726.977844	18638.539063	9549.088867	49.253727
587.816589	732.104675	18572.783203	9536.828125	49.351955
588.157776	738.791992	18642.406250	9559.638672	49.268528
588.498962	734.928223	18723.468750	9568.184570	49.104904
588.840210	718.581726	18787.146484	9607.638672	49.196251
589.181335	714.049133	18815.306641	9613.731445	49.166100
589.522400	717.095520	18847.183594	9664.926758	49.353489
589.863403	728.538269	18908.482422	9689.520508	49.290485
590.204407	739.312073	18912.419922	9696.951172	49.290627
590.545410	734.556702	18989.767578	9685.508789	49.032314
590.886353	739.237793	18991.626953	9693.458008	49.057800
591.227112	727.572266	19005.150391	9666.115234	48.904415
591.567932	724.748718	18936.716797	9653.854492	49.028778
591.908752	717.021240	18858.478516	9616.926758	49.058380
592.249512	719.696106	18850.304688	9615.812500	49.066833
592.590149	717.467102	18766.193359	9578.066406	49.092659
592.930786	719.101746	18731.119141	9537.571289	48.958813
593.271423	715.386536	18614.910156	9488.532227	49.013290
593.612000	724.451477	18542.167969	9428.792969	48.852173
593.952576	725.863281	18481.314453	9410.365234	48.911751
594.292969	732.624817	18481.908203	9396.024414	48.809856
594.633484	724.748718	18497.289063	9430.352539	48.983448
594.973877	728.686768	18568.025391	9448.260742	48.878349
595.314209	716.872620	18664.398438	9492.395508	48.895447
595.654480	720.067627	18874.080078	9588.617188	48.851734
595.994812	712.265930	19041.556641	9684.170898	48.948460
596.335022	719.473328	19233.927734	9784.182617	48.960171
596.675171	719.919128	19371.982422	9835.227539	48.870243
597.015320	726.309082	19565.392578	9896.750977	48.677746
597.355408	726.309082	19714.593750	9943.487305	48.541389
597.695496	731.956055	19856.361328	10012.663086	48.528080
598.035461	728.389587	19919.445313	10026.334961	48.449368
598.375366	725.640381	19926.205078	10050.483398	48.565460
598.715271	718.284424	19885.562500	10009.914063	48.476524
599.055176	726.011902	19765.638672	9951.585938	48.454594
599.395081	722.965515	19600.166016	9854.324219	48.372417
599.734802	730.395691	19329.925781	9708.914063	48.272827
600.074524	723.411316	19013.025391	9541.583984	48.214104
600.414246	726.383362	18602.130859	9337.920898	48.174416
600.753906	718.878845	18198.146484	9169.847656	48.348530
601.093506	718.358704	17808.728516	9013.216797	48.535278
601.433044	719.473145	17564.865234	8903.545898	48.583450
601.772583	719.101746	17406.154297	8802.420898	48.440666
602.112122	720.067688	17364.173828	8777.083008	48.407619
602.451538	724.005676	17329.326172	8757.393555	48.378395
602.790894	720.885010	17364.396484	8792.537109	48.497292
603.130310	721.702332	17477.560547	8840.982422	48.456371
603.469604	715.312317	17678.474609	8911.421875	48.317108
603.808838	718.953125	17945.222656	9018.122070	48.177402
604.148010	710.928406	18239.386719	9129.278320	48.026752
604.487305	727.200684	18511.705078	9259.084961	47.973701
604.826416	733.293518	18744.423828	9351.220703	47.847782
605.165527	737.900330	18920.373047	9443.132813	47.877056
605.504456	720.141907	19116.826172	9533.410156	47.906834
605.843445	713.974854	19249.978516	9612.915039	48.008949
606.182434	716.055359	19339.662109	9633.496094	47.882454
606.521423	724.080078	19294.708984	9611.799805	47.859013
606.860229	731.584656	19137.556641	9557.038086	47.948856
607.199036	728.018066	18946.896484	9485.336914	48.067272
607.537903	725.268799	18760.322266	9374.997070	47.960651
607.876648	716.946960	18534.515625	9237.611328	47.821701
608.215271	723.039795	18198.445313	9091.754883	47.888527
608.553955	723.188477	17846.027344	8960.907227	48.109535
608.892578	728.315247	17574.304688	8842.840820	48.168884
609.231140	722.965515	17449.177734	8742.235352	47.944324
609.569641	721.256531	17360.087891	8645.270508	47.623619
609.908081	723.188416	17304.583984	8616.069336	47.600822
610.246521	722.371094	17280.658203	8602.842773	47.592312
610.584961	725.789001	17321.673828	8631.004883	47.633591
610.923340	721.627991	17359.419922	8615.252930	47.443947
611.261597	730.841553	17356.447266	8611.909180	47.403191
611.599854	721.479431	17274.044922	8576.838867	47.457047
611.938110	718.210144	17210.666016	8544.515625	47.453854
612.276245	715.089355	17022.826172	8454.684570	47.459656
612.614319	721.107910	16790.630859	8331.491211	47.359112
612.952393	714.569275	16469.123047	8174.637207	47.351818
613.290466	715.386658	16175.851563	8042.972656	47.395638
613.628479	716.872620	15848.176758	7899.270996	47.467148
613.966370	725.863281	15568.502930	7771.915527	47.471691
614.304260	724.154297	15320.776367	7614.839844	47.207397
614.642151	724.748779	15107.304688	7504.203125	47.136642
614.979980	725.714661	14902.598633	7397.059082	47.057903
615.317749	729.355469	14699.159180	7329.963379	47.249111
615.655396	730.024231	14608.359375	7278.025879	47.181461
615.993164	724.674500	14512.137695	7254.917969	47.363636
616.330811	722.371094	14456.411133	7233.072754	47.405582
616.668396	719.176025	14373.489258	7203.723145	47.490829
617.005859	722.593994	14347.187500	7174.150391	47.352287
617.343445	729.132629	14348.375000	7164.416504	47.251408
617.680908	734.333801	14375.718750	7165.160156	47.142033
618.018311	742.209900	14416.734375	7164.491699	46.965302
618.355652	730.915833	14450.393555	7161.222656	46.869907
618.692993	735.745544	14470.008789	7174.076660	46.877876
619.030273	732.179016	14470.676758	7189.011230	46.998093
619.367554	737.454407	14476.843750	7195.697754	47.005314
619.704712	724.748718	14466.516602	7176.899902	46.952850
620.041870	727.126404	14456.413086	7160.255859	46.856979
620.379028	724.600098	14406.926758	7138.931641	46.880417
620.716064	724.228577	14375.347656	7117.309082	46.831917
621.053040	714.792175	14327.050781	7085.062012	46.798038
621.389954	712.934570	14258.765625	7052.368652	46.799889
621.726929	715.163635	14162.618164	7019.750000	46.883121
622.063843	717.987244	14088.092773	6999.316406	46.980400
622.400635	714.123535	14051.684570	6958.523926	46.818161
622.737427	718.284424	14035.856445	6936.530762	46.692039
623.074219	717.615723	13998.781250	6889.421875	46.470364
623.410889	724.377197	13928.862305	6863.342285	46.491512
623.747559	719.324646	13874.769531	6838.153809	46.511761
624.084167	727.572205	13827.661133	6817.423340	46.487099
624.420715	726.011902	13809.085938	6825.670410	46.622517
624.757324	730.172852	13787.093750	6849.968262	46.870129
625.093750	723.262695	13843.340820	6857.992676	46.758335
625.430176	729.281250	13899.588867	6869.138184	46.618935
625.766602	737.900330	13938.448242	6848.481934	46.290363
626.102905	743.101563	13974.484375	6877.757324	46.364433
626.439209	744.290344	14036.007813	6904.431641	46.345711
626.775452	733.219238	14167.523438	6932.369629	46.144184
627.111694	723.559875	14232.909180	6959.341309	46.159004
627.447876	715.015137	14303.942383	6981.409668	46.113972
627.783997	713.306152	14352.387695	7002.808594	46.113827
628.120056	717.392761	14423.198242	7041.074707	46.138710
628.456055	719.027344	14488.734375	7055.712402	46.019028
628.792053	715.683777	14458.121094	7062.994141	46.187660
629.128052	713.157532	14384.932617	7007.638672	46.039967
629.463928	715.535217	14279.347656	6962.091309	46.053101
629.799744	721.925232	14197.317383	6897.298828	45.827042
630.135559	723.559875	14083.782227	6852.419922	45.873936
630.471375	715.015076	13957.692383	6782.203613	45.815422
630.807068	720.142029	13771.268555	6719.417969	45.967495
631.142700	729.281250	13648.593750	6653.734375	45.857342
631.478333	731.658936	13482.377930	6578.019531	45.851223
631.813965	723.485596	13364.905273	6516.645996	45.826817
632.149475	711.968689	13221.574219	6440.634277	45.794136
632.484924	714.197754	13116.881836	6408.683594	45.913338
632.820435	716.501038	13039.383789	6360.461426	45.800652
633.155884	718.730164	12962.554688	6339.136719	45.904015
633.491150	729.355469	12900.289063	6311.273438	45.862694
633.826477	727.200684	12847.312500	6269.738281	45.730087
634.161804	734.110840	12788.463867	6237.267578	45.652855
634.497009	725.491699	12729.691406	6177.677246	45.418987
634.832153	724.674377	12618.237305	6138.667969	45.520370
635.167297	718.804504	12542.225586	6098.321777	45.498821
635.502380	718.358704	12446.002930	6064.959473	45.589722
635.837463	726.903503	12387.006836	6034.867188	45.522442
636.172424	727.943787	12278.450195	5993.925781	45.590916
636.507324	722.073792	12200.877930	5946.744141	45.515808
636.842224	716.203918	12102.575195	5912.639160	45.637325
637.177124	715.758118	11998.997070	5847.623535	45.482197
637.511963	722.593933	11879.445313	5796.875000	45.481300
637.846741	721.627991	11756.176758	5731.563965	45.402275
638.181396	726.234802	11641.898438	5662.610840	45.222866
638.516113	728.835449	11537.950195	5598.189941	45.048595
638.850769	726.903564	11430.731445	5524.778809	44.823917
639.185303	720.885010	11349.295898	5491.044922	44.881214
639.519836	720.141907	11274.620117	5445.720703	44.773209
639.854370	720.810730	11189.692383	5425.212891	44.937008
640.188843	723.114075	11078.386719	5379.591309	44.967209
640.523254	717.169861	10956.085938	5341.994141	45.169079
640.857605	720.439209	10862.983398	5300.162109	45.153591
641.191895	716.501160	10794.031250	5275.121582	45.235493
641.526184	716.501160	10733.844727	5244.062988	45.197231
641.860413	710.779785	10692.161133	5212.038574	45.096554
642.194580	713.603333	10605.970703	5161.438477	44.962292
642.528748	716.501160	10542.886719	5133.797852	44.953423
642.862793	724.451477	10479.284180	5096.274902	44.816998
643.196838	727.795105	10452.386719	5072.200684	44.674427
643.530823	728.018066	10388.932617	5050.875977	44.745850
643.864746	725.268860	10319.384766	5009.266113	44.652336
644.198669	722.148132	10255.485352	4991.062012	44.778801
644.532532	724.748779	10196.117188	4958.517578	44.700706
644.866333	728.018066	10164.315430	4965.576660	44.907009
645.200073	733.293518	10131.027344	4959.929688	44.975060
645.533813	728.835388	10096.922852	4935.855957	44.907997
645.867554	725.045898	10064.898438	4906.803223	44.773270
646.201172	718.358704	10048.551758	4893.205566	44.745552
646.534729	726.383484	10089.864258	4901.155762	44.585690
646.868225	723.485657	10096.848633	4908.363281	44.646488
647.201782	725.789063	10097.071289	4892.165527	44.458981
647.535217	723.039795	10098.779297	4898.926758	44.539280
647.868591	734.408142	10112.600586	4904.424805	44.465034
648.201965	737.751709	10150.124023	4915.496094	44.385666
648.535278	737.231628	10135.633789	4902.270508	44.316460
648.868591	728.909729	10139.497070	4895.211426	44.272495
649.201782	722.519714	10101.826172	4873.886719	44.260918
649.534912	718.210144	10081.245117	4857.168945	44.205315
649.868103	716.426819	10013.925781	4820.463379	44.141296
650.201172	717.912903	9971.424805	4808.723633	44.208199
650.534180	717.541443	9941.480469	4786.209473	44.109875
650.867188	725.045959	9912.949219	4781.751465	44.152679
651.200134	725.120300	9872.007813	4765.925293	44.176830
651.533020	724.154297	9806.472656	4736.055176	44.172653
651.865845	726.531982	9763.526367	4703.733887	44.010231
652.198608	733.813660	9727.266602	4679.362305	43.871342
652.531433	742.432800	9688.257813	4656.700195	43.755241
652.864136	731.510315	9663.291992	4627.870605	43.623554
653.196777	1345.102173	10317.602539	5254.539551	43.571327
653.529358	1369.027466	10284.016602	5271.852051	43.778233
653.861938	1371.851074	10223.534180	5254.985352	43.868877
654.194519	751.200500	9449.671875	4585.666504	44.082066
654.526978	720.959412	9408.433594	4532.911621	43.878716
654.859375	717.169922	9342.155273	4492.268066	43.769329
655.191833	717.764343	9319.195313	4463.215820	43.544518
655.524170	713.306152	9261.313477	4439.216309	43.588055
655.856445	721.033691	9219.110352	4430.968262	43.656170
656.188660	748.302734	9201.648438	4416.702637	43.395836
656.520874	753.058105	9148.299805	4395.822754	43.390823
656.853088	746.816589	9141.537109	4398.646973	43.501511
657.185181	719.919128	9105.797852	4384.529785	43.699780
657.517212	717.764343	9140.051758	4388.689941	43.585850
657.849243	729.429871	9158.330078	4390.102051	43.430008
658.181274	734.408020	9214.428711	4399.166504	43.216389
658.513123	731.361633	9262.206055	4421.457520	43.255928
658.844971	721.702332	9343.195313	4447.537598	43.215660
659.176819	715.238037	9426.414063	4485.877930	43.285084
659.508667	714.792175	9509.782227	4512.924316	43.185177
659.840393	713.231873	9559.788086	4537.369629	43.227413
660.172058	712.785950	9608.382813	4556.465332	43.208786
660.503662	719.621826	9661.062500	4555.127930	42.895840
660.835266	721.330811	9709.359375	4576.007324	42.886787
661.166931	722.148132	9681.644531	4560.180664	42.837593
661.498413	724.525818	9632.159180	4549.853027	42.944370
661.829773	726.680603	9528.803711	4496.949219	42.833626
662.161194	727.572266	9425.597656	4451.921387	42.818329
662.492615	721.256531	9290.811523	4398.052246	42.905331
662.823975	729.132629	9148.001953	4343.811035	42.935440
663.155212	730.470032	8983.644531	4269.656738	42.882732
663.486450	731.064514	8814.085938	4189.855957	42.790825
663.817627	722.073792	8679.152344	4121.720215	42.724808
664.148743	719.027405	8549.567383	4071.194580	42.808891
664.479858	720.513489	8419.463867	4039.690430	43.112072
664.810913	720.513489	8315.514648	3997.115234	43.141560
665.141907	722.742493	8229.917969	3955.282471	43.059338
665.472778	725.120178	8173.076172	3925.710205	42.972729
665.803711	727.943787	8125.002441	3918.205322	43.128784
666.134583	724.748718	8085.770996	3886.478271	42.952312
666.465454	726.754883	8063.109375	3862.106689	42.737190
666.796143	727.349304	7998.687988	3808.980469	42.380520
667.126831	727.720886	7996.830566	3812.398438	42.435421
667.457458	727.200745	7951.505371	3798.578125	42.514507
667.788147	724.302917	7939.021973	3776.435791	42.304249
668.118774	725.343079	7880.917969	3751.916016	42.296715
668.449219	724.302917	7887.605469	3737.501221	42.064369
668.779663	729.727051	7885.524902	3752.138916	42.237244
669.110107	734.110840	7875.493652	3742.702393	42.128979
669.440552	727.052063	7826.008301	3732.300049	42.333660
669.770874	724.674500	7799.779297	3709.266357	42.184418
670.101135	720.067688	7791.753906	3704.362305	42.200611
670.431396	723.411316	7783.433105	3685.117920	41.950386
670.761597	722.519714	7736.622559	3667.135986	41.981365
671.091797	721.479431	7677.552246	3641.799072	41.982304
671.421875	717.169861	7616.919922	3621.143311	42.088097
671.751892	715.386536	7584.003906	3608.957764	42.127422
672.081909	714.940735	7572.636230	3604.499268	42.136002
672.411865	718.878845	7543.509277	3592.685303	42.109333
672.741821	719.919128	7490.754395	3569.800049	42.090534
673.071716	717.689941	7448.921875	3532.574219	41.818264
673.401550	719.621826	7420.092285	3511.992188	41.674240
673.731262	713.529053	7399.659668	3497.206055	41.633602
674.060974	718.210144	7312.205078	3504.933594	42.261532
674.390625	714.494934	7268.292480	3487.324219	42.308743
674.720276	721.182190	7229.283203	3466.519287	42.183384
675.049927	720.290527	7207.661621	3419.114258	41.601192
675.379395	723.114075	7173.407715	3400.909912	41.514328
675.708923	720.216309	7119.761230	3374.532471	41.476639
676.038330	726.309082	7089.891113	3375.721436	41.633980
676.367737	730.990173	7051.031250	3353.133057	41.489334
676.697083	738.049011	7018.189453	3346.000000	41.526951
677.026428	749.937317	6980.592285	3327.573242	41.370228
677.355652	745.256348	6934.078613	3305.356689	41.366520
677.684875	745.627869	6943.812500	3298.743408	41.191341
678.013977	729.652649	6933.335938	3270.657227	40.959614
678.343079	730.024170	6956.071777	3275.932861	40.891247
678.672180	723.336975	6926.722656	3270.954346	41.068176
679.001221	716.946960	6973.979980	3279.052979	40.947617
679.330139	715.163757	6996.790527	3287.821045	40.955269
679.659058	716.203918	7044.566406	3296.291748	40.770229
679.987976	719.993347	7046.572754	3310.557617	40.947311
680.316772	715.832458	7090.411621	3316.501953	40.797508
680.645630	711.448547	7123.179199	3320.811279	40.696701
680.974304	720.141907	7189.011719	3339.089844	40.485405
681.302979	724.525818	7207.884277	3363.238281	40.699776
681.631653	723.188416	7236.861816	3372.526367	40.673485
681.960266	715.015137	7254.545410	3377.727539	40.717182
682.288757	717.987244	7276.613281	3384.266357	40.653011
682.617249	720.216309	7282.929688	3387.758545	40.646942
682.945679	722.965515	7261.232910	3390.210205	40.794365
683.274109	722.891174	7239.388184	3368.439453	40.597706
683.602478	727.052063	7192.355469	3346.966064	40.522678
683.930725	728.686768	7116.863281	3300.378174	40.257050
684.259033	725.566101	7032.381348	3270.360107	40.349903
684.587280	722.148132	6962.981934	3234.694580	40.259785
684.915344	721.850891	6906.363281	3212.478271	40.272011
685.243469	727.275085	6849.596191	3180.973877	40.077915
685.571533	730.544373	6776.928223	3158.608643	40.157295
685.899536	724.748718	6705.597656	3138.621094	40.360027
686.227539	717.541321	6627.505859	3117.667969	40.611526
686.555420	715.535156	6603.654785	3096.714600	40.440407
686.883301	712.786072	6589.313965	3075.538086	40.206600
687.211121	720.216309	6574.453613	3060.380127	39.973846
687.538940	725.194580	6548.818848	3051.240967	39.941563
687.866638	730.544434	6535.815918	3040.690186	39.793930
688.194336	723.634216	6539.679199	3036.009033	39.758545
688.521973	719.101746	6540.645996	3040.318604	39.872868
688.849609	723.114075	6531.357910	3029.173096	39.703209
689.177063	720.587830	6532.621094	3035.637451	39.832008
689.504578	718.655945	6494.206543	3013.346924	39.731117
689.832031	715.312317	6466.490723	2999.675049	39.719910
690.159485	721.702332	6384.386719	2954.796143	39.435249
690.486816	728.166687	6310.753418	2920.691406	39.274349
690.814087	729.949951	6236.524902	2895.279541	39.322620
691.141296	730.470032	6134.878418	2850.697998	39.231457
691.468506	727.869385	6032.563965	2813.695313	39.320377
691.795715	720.364807	5894.286621	2765.992920	39.537285
692.122803	725.937561	5824.292969	2746.228516	39.626328
692.449829	718.284424	5768.492188	2723.566406	39.706917
692.776855	718.135803	5720.566406	2698.303223	39.584106
693.103821	710.036865	5652.951172	2662.415039	39.498524
693.430664	712.786072	5572.480469	2616.793213	39.179565
693.757568	721.182190	5517.273438	2590.341553	38.972557
694.084351	719.621887	5463.775879	2575.480713	39.118858
694.411133	725.120300	5415.256348	2564.707031	39.222458
694.737854	720.141907	5360.792480	2547.320068	39.373322
695.064575	725.863281	5333.375000	2530.007568	39.156586
695.391174	722.371094	5330.849121	2523.691650	39.087105
695.717773	725.937561	5303.356934	2514.181152	39.066631
696.044250	721.627991	5279.951660	2506.453613	39.155308
696.370789	717.615540	5250.750488	2502.069580	39.364681
696.697205	717.467041	5273.858398	2497.908936	39.075699
697.023621	719.324524	5319.852051	2508.385498	38.888172
697.349915	726.903503	5384.718262	2535.506104	38.829422
697.676208	722.593994	5457.312012	2570.725830	39.033623
698.002380	722.891113	5511.850098	2591.976318	39.029049
698.328674	720.884949	5598.338379	2605.053467	38.630165
698.654724	723.559875	5688.318848	2634.403076	38.488140
698.980896	726.234863	5786.250000	2665.461670	38.324524
699.306946	726.680664	5867.611816	2700.309326	38.390491
699.632935	729.875671	5940.650879	2717.399170	38.142567
699.958862	722.519714	5995.932129	2726.835693	38.007950
700.284729	720.142029	6013.467285	2721.634521	37.811626
700.610596	714.569275	5989.244629	2708.928711	37.810089
700.936340	712.414551	5913.529785	2696.074463	38.139126
701.262146	710.631287	5797.469238	2658.922852	38.300640
701.587830	711.745789	5660.158203	2609.883057	38.358509
701.913513	708.922180	5525.595703	2549.029053	38.202858
702.239075	712.265869	5391.776855	2498.428955	38.169868
702.564697	713.528992	5268.954590	2446.194336	38.035198
702.890137	721.405090	5120.869629	2394.553711	38.030735
703.215698	715.163757	4998.492676	2346.702881	38.090443
703.541016	708.773621	4888.673340	2305.761963	38.206375
703.866455	712.191589	4824.624512	2275.520752	38.014698
704.191711	722.668274	4759.163574	2258.282471	38.043255
704.517029	726.532043	4677.579102	2246.022705	38.457924
704.842163	731.213074	4623.263672	2221.577148	38.292515
705.167419	729.132568	4572.143555	2194.233643	38.123779
705.492493	735.894226	4547.103516	2160.500244	37.379368
705.817566	724.302917	4484.020996	2127.435547	37.320156
706.142578	725.343201	4457.123047	2105.516357	36.984314
706.467590	722.668274	4429.705566	2090.655762	36.902447
706.792480	724.451477	4427.401855	2100.240479	37.153862
707.117371	721.627991	4429.036621	2097.640137	37.115200
707.442200	727.497864	4436.838379	2116.958740	37.458435
707.766907	726.829163	4446.646484	2112.946289	37.263042
708.091675	719.250305	4421.829102	2115.844482	37.719501
708.416321	710.928467	4397.978027	2107.968018	37.890446
708.741028	714.346375	4399.241211	2105.962158	37.765411
709.065552	719.696106	4425.172852	2105.218994	37.391220
709.390137	722.073914	4463.438965	2087.460693	36.494347
709.714600	723.039795	4480.454590	2088.426514	36.338463
710.039063	725.640381	4507.277344	2094.445068	36.196091
710.363403	726.754944	4538.187012	2127.806885	36.759201
710.687744	722.742615	4583.437500	2142.147217	36.765522
711.012085	725.789001	4619.103027	2157.304932	36.768570
711.336304	721.553711	4655.957031	2166.444336	36.724518
711.660461	722.742493	4700.910156	2177.144287	36.559589
711.984619	722.668274	4731.374512	2189.924072	36.601730
712.308716	728.240906	4767.039551	2179.595947	35.935314
712.632751	727.943665	4769.863281	2186.060303	36.074856
712.956726	720.884949	4776.401855	2184.648682	36.093147
713.280701	724.525879	4743.931641	2191.038818	36.485813
713.604553	724.080078	4706.037109	2180.264893	36.569576
713.928467	725.863281	4656.180176	2157.453857	36.424305
714.252258	722.371094	4577.567383	2127.881104	36.457546
714.575989	721.182190	4518.348145	2099.943604	36.310276
714.899719	723.485657	4437.878418	2075.200439	36.391273
715.223267	720.439148	4388.987793	2053.504150	36.337666
715.546936	726.457703	4331.997559	2034.705688	36.284389
715.870422	724.377258	4301.607422	2016.129883	36.110416
716.193970	724.005676	4279.762207	2000.897949	35.910568
716.517395	721.627991	4262.970215	1986.409058	35.714733
716.840820	722.222412	4225.893066	1963.151978	35.417984
717.164124	720.439148	4169.645996	1948.737305	35.611031
717.487488	717.021240	4119.045898	1945.690918	36.115837
717.810730	716.501160	4096.383301	1939.969727	36.198555
718.133972	714.197754	4067.256592	1925.480835	36.124718
718.457092	715.758118	4029.362305	1903.561523	35.846268
718.780212	713.454773	3969.548828	1880.156250	35.831318
719.103210	715.758118	3912.781250	1858.905640	35.756622
719.426208	712.637390	3836.621094	1828.218384	35.710209
719.749207	722.965515	3797.983398	1825.543457	35.855984
720.072083	722.965515	3753.402100	1812.020508	35.937229
720.394958	729.132629	3716.696533	1796.268188	35.719254
720.717773	718.507324	3643.508545	1762.832031	35.703392
721.040527	720.216309	3610.666748	1742.473022	35.366692
721.363281	718.135803	3577.007568	1732.219238	35.471455
721.685913	721.107910	3556.574219	1714.460938	35.033146
722.008545	720.885010	3532.722900	1710.374390	35.190128
722.331055	715.312317	3495.719971	1699.154663	35.384823
722.653503	711.745789	3465.404541	1691.278687	35.572052
722.976013	709.442383	3442.890625	1675.823608	35.353924
723.298401	713.751953	3441.181641	1662.746460	34.794464
723.620789	713.826233	3428.550537	1647.514160	34.393471
723.943115	712.340149	3417.925049	1642.684570	34.386074
724.265381	715.758118	3393.776611	1644.765015	34.690083
724.587585	720.290527	3382.185547	1654.795898	35.106770
724.909790	720.736328	3366.730469	1657.545288	35.404800
725.231873	719.250305	3370.148438	1651.749512	35.176727
725.553894	725.343201	3385.529297	1649.074585	34.724316
725.875916	932.424866	3603.310547	1784.305542	31.895063
726.197937	939.855164	3617.130615	1790.844116	31.785633
726.519775	928.189636	3614.307373	1791.364258	32.134655
726.841675	714.717834	3401.578857	1654.944458	34.993496
727.163513	704.612732	3411.757813	1657.024780	35.181419
727.485291	713.454773	3416.959229	1659.328125	34.986935
727.806946	735.968445	3463.472656	1661.854614	33.946278
728.128662	739.386414	3480.562500	1669.656372	33.936893
728.450256	743.770203	3511.323486	1677.235352	33.728897
728.771790	734.928223	3512.438232	1680.579102	34.046715
729.093323	742.507080	3528.413086	1677.978394	33.578709
729.414795	734.185120	3534.803467	1682.585327	33.863956
729.736145	731.807434	3525.812500	1678.498535	33.882942
730.057495	723.782776	3518.010986	1677.978516	34.148811
730.378845	718.210144	3515.930420	1674.783325	34.191166
730.700134	720.810730	3505.082275	1674.263062	34.244228
731.021301	725.491699	3506.791260	1659.848267	33.594246
731.342468	734.408142	3502.555908	1661.705933	33.498856
731.663574	733.962341	3514.147217	1662.151855	33.385891
731.984680	728.166687	3503.224609	1674.411743	34.098209
732.305664	724.005676	3506.271484	1663.266479	33.758842
732.626648	718.878845	3522.171875	1661.185913	33.614292
732.947571	709.219421	3550.778564	1651.006470	33.143322
733.268433	712.860291	3569.205811	1650.709351	32.833881
733.589233	715.758118	3569.874268	1647.365601	32.640839
733.909973	731.584656	3550.629883	1648.108765	32.511864
734.230713	731.956055	3517.342529	1644.616577	32.766029
734.551331	732.476257	3468.153564	1632.059204	32.883373
734.871948	727.720886	3421.268799	1613.037720	32.868057
735.192505	725.194580	3373.417969	1596.393921	32.897503
735.513062	727.052063	3332.402588	1573.508789	32.489166
735.833435	723.114075	3281.579834	1556.270508	32.564690
736.153931	719.993347	3234.620361	1537.843384	32.523712
736.474304	715.758057	3185.803467	1535.540039	33.188942
736.794617	724.451477	3155.933838	1529.595825	33.113312
737.114807	726.829285	3131.414063	1518.747559	32.933681
737.434998	723.262695	3116.479248	1500.246216	32.466076
737.755188	716.649719	3117.816406	1488.654907	32.151253
738.075256	717.244141	3117.816406	1483.305298	31.911606
738.395325	715.609558	3112.466797	1480.704712	31.920765
738.715271	717.912903	3114.770264	1487.540405	32.109856
739.035278	714.717834	3128.813232	1487.614746	32.016003
739.355164	714.569275	3157.568359	1490.661133	31.767998
739.675049	711.448547	3161.432373	1496.828247	32.056526
739.994873	717.615723	3158.014404	1509.236816	32.438187
740.314636	723.114075	3147.686279	1515.255249	32.671379
740.634277	729.132568	3138.398438	1510.648560	32.437931
740.953979	727.052063	3128.292969	1492.370117	31.871773
741.273499	734.482361	3122.200195	1483.825317	31.383230
741.593140	732.847839	3096.714600	1465.398315	30.989500
741.912598	733.888000	3059.563232	1455.070313	31.009588
742.232117	723.114197	3002.870117	1443.999023	31.621141
742.551453	718.804504	2938.524170	1431.219116	32.094799
742.870850	715.015137	2907.985596	1427.132324	32.472721
743.190063	708.996582	2866.598877	1411.454468	32.557339
743.509338	710.779785	2857.088135	1404.172852	32.306313
743.828552	719.844727	2823.875000	1387.900391	31.751238
744.147705	732.624817	2804.630127	1378.538452	31.173357
744.466797	736.191406	2771.045654	1368.656128	31.081573
744.785828	731.956055	2737.238281	1355.950317	31.117529
745.104858	730.321472	2714.873047	1348.743042	31.161779
745.423706	729.801331	2694.736816	1337.300415	30.916998
745.742615	733.516418	2687.009277	1336.334473	30.858471
746.061401	744.959045	2670.959961	1332.619263	30.511938
746.380249	741.095398	2670.662598	1328.755493	30.455540
746.698975	728.315247	2658.476807	1318.427490	30.573204
747.017639	713.974854	2644.582764	1303.864136	30.554588
747.336304	711.894348	2621.771484	1302.229492	30.909586
747.654907	719.621826	2612.855225	1308.247925	31.091047
747.973389	721.925293	2613.969971	1313.523438	31.267662
748.291931	721.776672	2615.604492	1309.956909	31.057745
748.610352	712.265930	2606.465088	1301.709229	31.118338
748.928711	713.751953	2623.703369	1300.594727	30.725534
749.247070	724.005798	2630.985107	1302.823853	30.352613
749.565308	731.287415	2623.554688	1299.034546	30.003536
749.883545	724.525879	2588.483887	1299.480347	30.845892
750.201782	715.683838	2570.725342	1297.994263	31.390696
750.519836	716.946960	2571.096924	1294.576294	31.153324
750.837952	718.433044	2554.527588	1288.037598	31.022617
751.155884	721.925232	2537.660889	1277.635254	30.605228
751.473877	712.934570	2521.016846	1275.851929	31.133392
751.791809	714.940735	2514.998535	1270.427979	30.859411
752.109619	712.191589	2510.317627	1257.870728	30.347103
752.427490	718.358704	2504.224609	1248.137085	29.665070
752.745300	724.748718	2511.803467	1249.103027	29.341816
753.062988	729.429871	2511.060547	1258.911011	29.718906
753.380615	731.213074	2498.503418	1259.133911	29.871767
753.698303	722.445313	2485.351807	1254.750122	30.194727
754.015808	721.850891	2474.429443	1242.713013	29.719757
754.333374	725.863281	2477.846924	1246.873901	29.738327
754.650757	726.903503	2475.097900	1248.508667	29.836796
754.968262	722.148132	2479.110352	1245.685181	29.797855
755.285583	716.872742	2474.132080	1237.288940	29.615219
755.602905	722.445313	2465.215576	1228.075195	29.012997
755.920105	725.343079	2443.147705	1220.124878	28.803146
756.237305	729.727051	2424.126221	1217.301514	28.775656
756.554443	731.361633	2416.398682	1212.100220	28.529852
756.871582	727.795166	2417.141846	1220.050659	29.138809
757.188599	727.275085	2409.414307	1221.239502	29.365253
757.505615	727.497864	2421.822754	1224.211548	29.316319
757.822510	729.875671	2434.082764	1222.205444	28.889082
758.139465	725.789063	2465.587158	1233.276611	29.169336
758.456238	718.061523	2472.348633	1238.552124	29.669636
758.773010	720.513489	2478.515869	1238.031860	29.437864
759.089783	732.030334	2491.296143	1238.403442	28.783205
759.406433	737.008789	2504.967773	1235.802856	28.212988
759.723145	731.287415	2508.757080	1239.963867	28.618010
760.039673	727.349304	2514.404053	1238.849365	28.622519
760.356201	728.463867	2516.113037	1238.254883	28.517397
760.672668	736.562805	2520.348389	1243.010254	28.391722
760.989136	727.795166	2511.951904	1236.991699	28.539900
761.305481	716.649719	2506.304932	1228.967041	28.626593
761.621826	710.705566	2515.221436	1225.474731	28.526718
761.938049	720.216309	2533.648682	1235.208374	28.398746
762.254333	733.070618	2553.190186	1250.143188	28.408714
762.570496	731.807434	2590.118408	1267.455811	28.824474
762.886597	721.107910	2643.095947	1277.040894	28.924892
763.202637	716.723938	2734.117188	1297.622681	28.794521
763.518677	715.906738	2846.760010	1322.811401	28.481768
763.834656	719.250305	2981.619873	1358.253662	28.244869
764.150574	717.021301	3111.575195	1390.946899	28.144098
764.466370	721.330750	3220.800049	1418.438843	27.890245
764.782288	719.027405	3278.384766	1428.915649	27.736971
765.097961	724.154297	3312.118408	1432.556519	27.372953
765.413696	725.937500	3282.917236	1420.222168	27.152529
765.729309	732.699036	3219.834229	1393.027466	26.549759
766.044861	728.463867	3099.612061	1362.340332	26.732891
766.360474	723.708496	2950.709717	1325.263306	27.011875
766.675903	723.708496	2797.868896	1299.703247	27.770020
766.991394	720.959290	2659.962891	1258.019409	27.697737
767.306763	727.720764	2558.762451	1227.035156	27.269417
767.622131	722.148132	2479.407471	1194.044800	26.854128
767.937378	725.863281	2415.804443	1174.726074	26.560854
768.252625	725.417480	2356.139404	1161.648804	26.750811
768.567810	723.485535	2308.883057	1147.085449	26.718847
768.882996	726.754883	2265.787354	1147.828491	27.359631
769.197998	728.686768	2229.081787	1136.534424	27.182686
769.513062	729.578430	2183.459717	1130.887451	27.602598
769.828064	728.909668	2143.039063	1114.243652	27.248850
770.142944	724.302979	2117.850342	1100.348999	26.984804
770.457825	724.748718	2097.045898	1091.135376	26.698786
770.772705	717.021240	2072.897217	1086.751587	27.268744
771.087402	722.296692	2055.807617	1077.463745	26.633980
771.402100	724.823059	2026.160767	1066.912720	26.287540
771.716736	730.841614	2004.464478	1055.247192	25.471088
772.031372	726.903503	1976.229492	1056.436157	26.376837
772.345947	725.120300	1967.090210	1062.751831	27.185160
772.660461	720.141907	1944.204956	1059.110962	27.692125
772.974854	719.696106	1933.802612	1057.550659	27.827425
773.289246	716.575439	1914.632446	1052.646606	28.051350
773.603638	713.826233	1901.703735	1044.621948	27.847630
773.917908	704.464050	1886.026001	1036.671509	28.115955
774.232178	706.395935	1873.691772	1027.309448	27.492044
774.546265	708.402100	1862.992188	1034.888306	28.277239
774.860474	715.683777	1851.846680	1030.504517	27.709122
775.174561	720.587830	1846.942749	1023.742920	26.914701
775.488586	724.377258	1846.125366	1011.780212	25.620991
775.802551	725.045959	1828.367065	1007.024719	25.557272
776.116516	725.045959	1816.478516	1003.012390	25.468035
776.430359	725.863281	1814.323853	1007.396240	25.865242
776.744202	728.463867	1813.358032	1012.077332	26.142040
777.057922	724.823059	1798.571777	1012.300293	26.773230
777.371704	727.349365	1778.955688	1002.343750	26.149937
777.685303	728.018066	1767.661743	991.867004	25.378786
777.998962	732.624817	1750.646362	989.192139	25.202543
778.312500	732.030457	1737.643188	985.179749	25.173635
778.626038	728.315247	1727.315430	982.727783	25.466715
778.939453	728.018066	1740.392578	985.774170	25.460548
779.252869	732.030457	1753.767212	990.975403	25.343607
779.566223	725.194580	1755.104492	992.238525	25.928864
779.879578	723.782898	1749.903320	985.402771	25.496021
780.192749	713.974792	1730.807617	978.195313	25.984657
780.505920	719.919006	1734.745605	978.418274	25.472260
780.819031	719.547546	1728.950195	983.842285	26.183281
781.132141	742.804382	1748.120117	1002.566650	25.838875
781.445190	748.822815	1733.036743	990.381042	24.543264
781.758118	753.801086	1729.321655	984.511047	23.649933
782.071045	739.609192	1707.402222	963.037598	23.086384
782.383911	727.720886	1684.665527	964.746521	24.769001
782.696838	719.993347	1661.111694	954.418457	24.909206
783.009583	708.253601	1640.827148	957.539246	26.730936
783.322266	712.785950	1639.043823	960.957214	26.792891
783.634888	713.083191	1631.910645	962.071594	27.098494
783.947510	718.210144	1619.873657	955.532959	26.320553
784.260132	714.569275	1609.174194	951.817871	26.519930
784.572571	715.609558	1601.520874	942.827148	25.647894
784.885010	718.284424	1592.233032	937.626038	25.097771
785.197449	726.754883	1586.437500	933.390808	24.036304
785.509766	735.522644	1585.248657	941.638367	24.256727
785.822083	739.163391	1582.573608	941.564148	23.997902
786.134277	739.609314	1574.994751	944.684753	24.548601
786.446533	731.658875	1568.158813	942.604309	25.217627
786.758606	726.011902	1573.806030	943.124451	25.609112
787.070740	731.064514	1583.167969	933.093567	23.709452
787.382690	730.544373	1588.071899	925.291809	22.710342
787.694641	725.863281	1591.787109	927.000793	23.228085
788.006653	710.556946	1602.858398	937.403137	25.422596
788.318481	718.135803	1629.384399	950.703308	25.521851
788.630310	718.210144	1657.545044	951.074768	24.790373
788.942017	724.525879	1671.216797	948.622803	23.671604
789.253784	717.021301	1684.665527	940.821045	23.128309
789.565430	724.005676	1687.786133	941.564148	22.573446
789.877014	722.668274	1683.476685	943.347351	22.968063
790.188538	719.919006	1668.467407	950.554688	24.314592
790.500061	714.272034	1652.046753	947.136780	24.831629
790.811462	712.785950	1646.325317	944.981995	24.872658
791.122925	711.151367	1625.223511	942.381409	25.296696
791.434204	715.535156	1602.858398	940.746765	25.381010
791.745483	719.844788	1574.251831	934.133789	25.080435
792.056702	715.683777	1552.852539	924.697327	24.966717
792.367920	722.593933	1533.088013	921.056458	24.486610
792.678955	720.587830	1529.075684	924.400146	25.209076
792.990112	722.965515	1513.174805	923.805725	25.416079
793.301086	710.408386	1499.131714	915.112305	25.953831
793.612122	714.495056	1476.617798	908.053528	25.397284
793.922974	714.940735	1472.902832	898.617126	24.232925
794.233826	722.445313	1475.800659	900.177429	23.592070
794.544556	719.473328	1477.212524	899.211609	23.720335
794.855286	721.925293	1471.639648	902.332214	24.063421
795.166016	718.581543	1470.896484	906.567566	24.987677
795.476624	720.513489	1476.395020	902.257996	24.044046
795.787292	725.120300	1491.478516	904.041199	23.346901
796.097778	728.835449	1504.481445	908.722229	23.191866
796.408264	732.179016	1520.902466	914.294922	23.089956
796.718689	730.098572	1530.413208	917.935730	23.470413
797.029053	728.018066	1542.821777	916.226807	23.098660
797.339355	721.999512	1535.019897	918.678894	24.191200
797.649658	723.262695	1538.214966	914.072083	23.413567
797.959839	717.244141	1519.639160	898.245605	22.557652
798.270020	712.934570	1520.828125	893.490234	22.348942
798.580078	715.758118	1513.843628	897.725403	22.800474
798.890137	729.652771	1506.784790	907.013245	22.822437
799.200195	728.761047	1484.716919	897.651123	22.341261
799.510071	727.349304	1457.299194	888.660461	22.098936
799.820007	714.940735	1438.872070	879.149719	22.682951
800.129883	717.838562	1441.175415	881.898926	22.681046
800.439575	716.278259	1436.791626	883.905090	23.264915
800.749329	717.392761	1436.717407	883.979492	23.158770
801.058960	720.736328	1426.537964	879.001160	22.423416
801.368591	723.559875	1414.352417	875.731873	22.028610
801.678162	727.200684	1407.739258	872.016663	21.279613
801.987671	731.361633	1395.479492	871.868103	21.156858
802.297119	730.692932	1397.188354	871.719482	21.159418
802.606506	725.194519	1392.804565	871.868103	21.969948
802.915894	717.095520	1393.250366	866.741211	22.131866
803.225159	713.603271	1374.674438	855.001404	21.389246
803.534424	715.832336	1372.073853	859.088074	21.829727
803.843628	713.751953	1370.290649	861.391418	22.487549
804.152771	721.479431	1379.504272	862.803223	21.476969
804.461792	724.674500	1383.813843	855.150085	19.794842
804.770874	726.309082	1382.699341	860.499817	20.443743
805.079773	726.383362	1390.501099	867.187012	21.201609
805.388733	727.646484	1392.210083	880.784485	23.043392
805.697571	729.206848	1394.364868	880.115723	22.687674
806.006470	724.377258	1402.463745	878.703918	22.759142
806.315125	721.776672	1411.305786	870.233459	21.530170
806.623901	721.776672	1417.175781	871.496643	21.530079
806.932495	718.804504	1409.745605	864.512207	21.088295
807.241150	721.256531	1399.120239	866.518372	21.429358
807.549622	724.674377	1400.383423	855.818787	19.408415
807.858154	722.668274	1404.098633	863.843445	20.717476
808.166565	716.575500	1401.423706	860.871338	21.069756
808.474915	718.507324	1393.696167	863.992004	21.547258
808.783264	725.491760	1380.544556	861.614319	20.780396
809.091492	726.383362	1369.547729	854.704163	19.951479
809.399719	725.268799	1357.064941	857.973572	21.004366
809.707825	720.884949	1352.160889	856.636047	21.504240
810.015930	722.445313	1344.507690	867.929993	23.387474
810.323975	717.169861	1342.575806	857.081848	22.371387
810.632080	717.615662	1338.043457	849.651550	21.281427
810.939880	715.981018	1329.498657	844.747620	20.988247
811.247864	717.095520	1314.712280	849.131531	22.093760
811.555664	716.352539	1302.229492	850.766113	22.942287
811.863464	714.866516	1296.805298	849.651550	23.161377
812.171143	716.575439	1296.062378	845.862122	22.310543
812.478882	719.770508	1300.371948	850.617493	22.536455
812.786438	733.070618	1310.031250	848.388489	19.987129
813.094055	739.534973	1303.492554	849.948730	19.578381
813.401489	737.974609	1292.867310	842.741394	18.880548
813.708984	727.795105	1284.099609	842.741455	20.662487
814.016357	732.624817	1289.226563	846.456726	20.451231
814.323730	740.575195	1291.455688	852.623718	20.339897
814.630981	734.928223	1282.836426	845.490662	20.179008
814.938232	725.343201	1276.743530	843.038635	21.344826
815.245361	717.467102	1275.851929	835.385498	21.117765
815.552490	719.176086	1279.046997	827.880859	19.416042
815.859619	714.049133	1284.099609	818.964539	18.404581
816.166565	713.751953	1283.951050	824.685852	19.455292
816.473572	716.872620	1283.802368	837.540283	21.284412
816.780457	721.925232	1275.777710	845.787842	22.363827
817.087341	720.439209	1272.954224	841.701172	21.947269
817.394043	712.785950	1272.359741	836.945801	22.188290
817.700806	707.584778	1284.916870	831.893311	21.531548
818.007507	703.869629	1293.833252	829.367004	21.272053
818.314209	713.677673	1312.631958	830.778809	19.550930
818.620667	709.665344	1321.028076	833.453613	20.247925
818.927246	714.569275	1334.551147	837.466003	19.822632
819.233704	713.454773	1343.170288	845.936462	21.038340
819.540161	717.689941	1370.662231	857.081848	21.347292
819.846497	724.228577	1415.020996	872.091003	21.404755
820.152832	726.086243	1462.277710	874.394470	20.145334
820.458984	733.442200	1504.035767	877.812317	18.734924
820.765259	733.665039	1559.391235	884.425232	18.257891
821.071350	738.197510	1652.418335	898.394104	17.522747
821.377502	728.389587	1810.608765	937.180176	19.292818
821.683472	721.107910	2065.392822	982.653503	19.456114
821.989441	711.671448	2492.039063	1069.661987	20.107676
822.295349	719.770447	3082.151123	1180.670288	19.509974
822.601196	718.432922	3753.476318	1315.455444	19.670971
822.907043	720.736328	4359.786621	1426.166504	19.385008
823.212769	718.507324	4766.593750	1480.481812	18.823078
823.518494	723.188416	4939.347656	1498.760254	18.395222
823.824097	724.228577	4857.540527	1463.912231	17.895664
824.129700	725.268860	4627.202637	1415.466797	17.688612
824.435242	724.748779	4326.647949	1353.201172	17.447807
824.740723	722.296814	4043.405518	1305.350220	17.555986
825.046082	721.182312	3775.395752	1264.409424	17.786154
825.351501	728.389648	3476.698486	1209.722656	17.513788
825.656799	724.674500	3152.590576	1156.150391	17.771450
825.962036	729.801331	2834.054688	1098.119995	17.503532
826.267212	724.005676	2577.412842	1058.739502	18.060457
826.572449	733.665039	2434.454346	1040.386719	18.034079
826.877502	724.154297	2388.906738	1035.779907	18.719036
827.182495	730.098450	2454.590332	1046.405151	18.342022
827.487488	729.058289	2554.453125	1059.036743	18.077101
827.792419	733.293518	2665.610107	1081.476074	18.018919
828.097290	719.770447	2701.275635	1086.677368	18.516577
828.402100	716.055359	2666.873291	1079.395630	18.625023
828.706848	717.912903	2569.908203	1059.779663	18.459375
829.011597	720.290527	2439.804199	1035.334106	18.321667
829.316223	725.937500	2309.699951	1009.476807	17.902893
829.620789	721.850891	2179.595947	980.052917	17.712425
829.925354	725.937561	2070.816895	962.368835	17.580111
830.229797	724.080017	1946.062622	939.260742	17.609148
830.534302	733.813660	1822.200073	921.205139	17.217365
830.838562	729.058289	1685.408691	891.112610	16.945078
831.142944	727.869446	1573.657349	877.589539	17.701849
831.447144	714.494934	1479.961548	860.277039	19.044868
831.751404	718.433044	1423.120117	846.308044	18.146353
832.055542	717.541321	1385.002808	842.890137	18.779932
832.359619	724.377258	1366.278442	831.150208	16.633862
832.663635	723.336975	1372.519897	843.335876	18.484606
832.967651	726.457703	1395.256470	838.134705	16.698147
833.271545	722.371094	1449.646118	855.595886	18.318352
833.575439	722.668274	1520.902344	863.174744	17.602163
833.879211	722.222412	1625.520508	886.728699	18.211739
834.183044	723.262695	1729.767212	909.019470	18.455633
834.486694	720.513489	1818.113281	926.406250	18.758453
834.790344	727.275085	1868.713379	937.180176	18.389526
835.093933	727.423645	1868.341919	936.214294	18.300230
835.397522	730.544373	1841.072876	927.743835	17.757261
835.700928	721.925232	1785.494507	912.734680	17.940481
836.004395	731.361633	1745.445190	902.480774	16.874264
836.307739	735.076843	1694.250610	894.827637	16.655043
836.611023	729.875671	1641.421387	884.648132	16.979122
836.914307	727.423645	1564.815308	872.462585	17.320322
837.217529	723.931396	1497.348267	860.722717	17.686623
837.520691	731.138855	1424.234497	854.258484	17.763729
837.823730	723.262695	1353.126831	845.713562	19.440838
838.126831	723.559998	1282.093384	833.082092	19.608871
838.429749	723.262695	1231.864746	822.233887	19.459455
838.732727	724.005676	1204.447144	814.283508	18.790600
839.035522	720.587708	1190.775269	809.008057	18.805336
839.338379	719.324707	1186.763062	802.915222	17.882683
839.641113	721.925293	1190.701050	798.531311	16.341719
839.943848	719.547546	1194.861938	801.652100	17.273735
840.246460	714.494934	1200.583374	800.908997	17.777435
840.549072	716.798340	1219.753418	804.549805	17.447178
840.851563	723.931396	1237.957642	804.252625	15.625900
841.154053	729.058289	1249.697388	808.042053	15.170541
841.456482	727.200684	1241.598511	800.611816	14.271276
841.758850	723.857117	1228.744019	804.326904	15.938181
842.061157	719.473328	1220.719360	802.766602	16.617243
842.363403	717.095520	1198.651489	803.435303	17.929335
842.665588	710.408264	1187.654663	805.144287	19.850548
842.967712	720.662048	1156.819092	804.326965	19.182291
843.269775	721.405090	1140.992676	810.939758	21.338732
843.571777	721.925232	1110.751587	804.029724	21.115978
843.873840	715.980957	1089.500977	801.057617	22.777002
844.175659	716.872620	1063.569214	792.438538	21.795979
844.477600	727.497986	1049.302979	788.797668	19.048704
844.779297	729.206848	1051.086304	783.150696	16.759022
845.081116	732.476257	1038.083374	780.475830	15.706301
845.382751	736.934387	1032.213501	782.630554	15.475584
845.684387	732.699219	1004.498535	773.639954	15.062854
845.985962	729.206970	1004.721375	767.621399	13.942802
846.287537	720.364929	1002.863831	757.739197	13.229880
846.588989	723.857117	1002.789551	760.562683	13.159304
846.890381	726.606384	998.702942	756.847595	11.114147
847.191711	726.160461	991.718445	760.265442	12.842762
847.493042	721.702332	982.950684	763.757751	16.097870
847.794250	722.296692	978.938293	767.175598	17.486996
848.095459	723.262695	966.901306	766.655457	17.810297
848.396606	729.949951	967.347168	764.946594	14.741809
848.697693	729.058289	958.207825	767.398621	16.731577
848.998657	727.720886	958.802246	761.974426	14.823152
849.299622	730.915833	963.483398	770.073425	16.837082
849.600464	727.795166	972.771240	771.039307	17.652393
849.901367	728.835388	965.266663	770.444885	17.598982
850.202087	723.485596	954.344177	759.968262	15.803037
850.502808	727.274963	944.610535	758.036377	14.153879
850.803467	726.531982	942.901550	758.705078	14.869511
851.104065	727.869446	957.167664	763.534729	15.554104
851.404663	726.086182	956.573242	763.311829	16.150862
851.705139	721.850891	971.656677	770.147705	19.333746
852.005615	722.668274	956.201660	767.249939	19.090061
852.306030	720.736328	945.873596	765.763855	20.000032
852.606384	723.114075	932.424805	758.184998	16.755434
852.906616	719.101746	935.545593	758.779358	18.331596
853.206909	714.866394	947.211121	758.556458	18.803984
853.506958	717.838562	951.372070	762.568848	19.153690
853.807129	723.634094	948.548523	765.392273	18.566252
854.107178	732.773438	934.876892	763.237549	15.073524
854.407166	735.076843	931.384583	760.414063	12.906888
854.707092	725.194519	934.653870	751.943542	12.770508
855.007019	721.182190	943.570313	756.996155	16.104261
855.306763	718.730225	947.211121	764.277832	19.934975
855.606567	717.318420	946.022278	767.695740	22.027315
855.906250	721.850891	944.759094	764.352112	19.066692
856.205933	723.559875	936.883118	751.646301	13.166135
856.505493	726.754883	926.926453	753.132385	13.177447
856.805054	720.364929	930.047119	757.739197	17.824245
857.104492	716.946960	939.260681	760.042480	19.385002
857.403931	716.278259	944.536133	761.825745	19.954399
857.703308	711.968689	941.192566	756.401672	19.384100
858.002563	713.454773	927.372253	756.847473	20.284784
858.301819	715.089355	932.201965	755.361389	18.548916
858.601013	725.937683	930.047180	754.246887	13.869617
858.900208	724.674500	930.715820	765.169434	19.653793
859.199219	722.593994	925.663269	761.157043	18.990095
859.498291	719.696106	934.505310	758.036377	17.848524
859.797302	727.423584	939.780762	752.017883	11.581572
860.096191	739.089111	948.548523	754.841309	7.520406
860.395020	740.946716	940.449646	761.157043	10.130341
860.693787	727.795105	936.808777	755.732971	13.366526
860.992554	712.488770	925.068848	748.971436	17.161846
861.291260	712.934631	931.087402	743.993164	14.237056
861.589844	724.228577	932.573425	746.519470	10.699038
861.888428	734.185120	940.003723	750.085999	7.725676
862.186890	731.658875	938.443359	757.664795	12.576341
862.485413	725.937561	934.728210	757.813416	15.266897
862.783813	717.690002	939.260681	758.705078	18.511057
863.082153	718.284424	938.666260	755.807190	17.026251
863.380371	719.844727	942.678650	756.921875	16.638916
863.678589	729.875671	939.335022	755.435791	12.202902
863.976746	732.996399	938.740540	754.915588	10.653615
864.274902	737.305969	941.266907	749.268738	5.865225
864.572937	735.299744	944.090332	756.401672	10.106743
864.870911	728.166687	946.839600	762.643250	15.766271
865.168884	725.045959	937.477356	767.324219	19.902077
865.466736	724.971680	931.013000	761.380066	17.670429
865.764587	725.714661	925.886169	754.767090	14.513768
866.062317	725.417480	935.991394	757.144714	15.067030
866.360107	726.234802	938.071960	766.283936	18.905622
866.657715	728.984070	936.362976	769.404602	19.491150
866.955322	725.789063	937.774658	762.643066	17.385145
867.252808	722.519714	928.338196	745.107605	10.974666
867.550293	721.182312	932.053284	742.581360	10.147934
867.847717	723.188477	922.914063	743.770264	10.305033
868.145081	721.776672	929.081238	748.525635	12.903219
868.442383	714.940735	928.041016	751.126221	16.980497
868.739624	713.529053	933.539368	746.965271	15.197569
869.036804	716.203918	939.706543	751.943542	15.990695
869.333984	721.776611	938.146179	744.290344	10.405222
869.631042	719.770447	938.814880	748.525635	13.127560
869.928101	712.637451	932.350586	745.181946	14.812266
870.224976	717.689941	926.703613	747.633972	14.326350
870.521851	739.237732	939.929504	757.144714	8.922629
870.818726	745.479187	948.251282	757.962097	6.156128
871.115479	745.404846	956.573242	760.636963	7.213256
871.412231	723.559875	948.474182	755.732971	14.304602
871.708862	718.284424	945.056335	758.928040	17.922686
872.005493	706.618896	950.406067	757.441895	20.847282
872.302063	707.733398	944.981934	758.630798	21.453199
872.598572	711.225586	949.068665	757.664856	19.525171
872.895020	721.033630	946.170837	761.528564	17.986780
873.191406	730.693054	953.229553	759.596680	12.988263
873.487671	728.984070	949.365906	755.584473	12.070143
873.783997	727.126465	946.170837	753.281006	11.940293
874.080200	721.182190	941.341125	752.983887	14.444881
874.376343	729.875671	942.530029	757.219055	12.858134
874.672424	737.677429	955.087219	759.745361	10.150386
874.968445	740.946716	962.517395	760.859863	8.987267
875.264465	739.312073	963.483398	758.630798	8.617840
875.560364	737.083008	958.059326	757.887756	9.414922
875.856201	727.869446	959.842590	750.457520	9.737366
876.152039	722.742615	967.124207	748.302734	10.459102
876.447754	719.250305	965.712463	742.507141	9.436271
876.743469	725.045959	966.827087	751.943542	11.124765
877.039063	726.086182	961.477234	757.739075	13.446939
877.334595	723.782898	956.573242	764.946533	17.682707
877.630127	727.943787	949.365906	760.636963	14.765091
877.925537	730.024231	947.656921	757.144714	12.461585
878.221008	732.699036	950.183289	752.537903	9.121979
878.516296	722.296692	951.372070	758.705078	15.893627
878.811646	721.776672	969.130371	760.265442	15.560216
879.106812	719.993347	989.860840	764.797913	16.602432
879.401978	722.891113	1009.996887	756.773193	11.801253
879.697083	716.798340	1015.792480	766.135437	16.501024
879.992126	714.940735	1031.247559	771.410889	17.852968
880.287109	722.668213	1064.832397	777.577942	16.047771
880.582031	730.098450	1131.704712	779.584167	12.321949
880.876892	726.383362	1257.573608	787.683105	11.540073
881.171753	726.754944	1448.011353	817.552917	12.588862
881.466492	724.302979	1722.931519	850.023132	12.589281
881.761230	721.850891	2042.953491	894.827637	13.093363
882.055786	713.826172	2377.389893	925.291809	12.711604
882.350403	711.671387	2631.282471	952.709473	12.556610
882.644958	721.256531	2789.250000	956.573242	11.378987
882.939453	718.804504	2817.781982	960.511230	11.515450
883.233826	718.284424	2774.463623	950.406067	11.288980
883.528137	715.015076	2695.034180	944.164734	11.573104
883.822449	722.222473	2627.492676	930.344421	10.923487
884.116577	721.776611	2552.521240	916.821289	10.653844
884.410828	727.498047	2445.673828	903.223877	10.227466
884.704956	720.885071	2286.963623	886.951660	10.603975
884.999023	719.398926	2084.934326	862.654602	10.490807
885.292969	713.974854	1857.567993	833.676514	10.467155
885.586914	715.535156	1654.870117	809.305237	9.982603
885.880798	726.977783	1505.150269	803.881104	9.882555
886.174622	723.485535	1401.572266	797.862610	10.968667
886.468384	724.154297	1318.427490	795.039124	11.927986
886.762085	712.934570	1251.555054	783.819336	13.160429
887.055664	715.089355	1204.521362	780.921570	13.450737
887.349304	714.866516	1159.271118	779.509827	14.546049
887.642822	716.575439	1123.382813	779.807129	15.543398
887.936340	715.981018	1098.937256	777.652344	16.104013
888.229736	718.284363	1078.578247	768.810242	14.023519
888.523071	721.702332	1066.838501	760.042542	11.108720
888.816284	730.618652	1052.200806	764.054932	10.397430
889.109619	729.132507	1052.498047	766.952637	11.695783
889.402710	728.315186	1039.346436	769.553284	13.258507
889.695862	722.371033	1010.888489	758.110657	12.387335
889.988892	723.634216	987.037354	756.401672	12.440041
890.281921	724.005676	973.662903	761.900146	15.178599
>>>>>End Processed Spectral Data<<<<<
