Jaz Data File
++++++++++++++++++++++++++++++++++++
Date: Fri Jun 04 16:56:20 2021
User: jaz
Dark Spectrum Present: Yes
Reference Spectrum Present: Yes
Processed Spectrum Present: Yes
Spectrometers: JAZA3586
Integration Time (usec): 26900 (JAZA3586)
Spectra Averaged: 10 (JAZA3586)
Boxcar Smoothing: 1 (JAZA3586)
Correct for Electrical Dark: No (JAZA3586)
Strobe/Lamp Enabled: Yes (JAZA3586)
Correct for Detector Non-linearity: No (JAZA3586)
Correct for Stray Light: No (JAZA3586)
Number of Pixels in Processed Spectrum: 2048
>>>>>Begin Processed Spectral Data<<<<<
W	D	R	S	P
191.335022	0.000000	0.000000	0.000000	0.000000
191.713211	231.824478	223.576904	231.973099	-1.801992
192.091385	465.580902	454.658356	464.020508	14.285994
192.469528	703.795410	697.033875	700.674622	46.155025
192.847641	715.832458	712.340149	702.829407	372.333893
193.225739	725.120300	725.268860	712.786072	-8302.546875
193.603790	738.123230	728.761047	722.222473	169.840271
193.981842	739.089172	738.197571	734.482361	516.689514
194.359863	739.460632	743.324463	738.717590	-19.230709
194.737854	732.624817	745.702148	743.101563	80.113785
195.115829	740.278015	744.216003	745.181946	124.528831
195.493774	746.890930	744.884766	741.541199	266.664642
195.871704	745.627747	747.856873	736.711426	-399.991791
196.249603	741.912598	747.485352	734.333801	-135.997330
196.627457	744.661865	747.782532	735.002502	-309.528839
197.005310	745.107727	743.175781	733.887939	580.750610
197.383133	743.324463	743.398743	736.265625	-9503.040039
197.760910	734.036621	739.386414	736.711426	49.998287
198.138687	732.327637	735.894104	734.556702	62.500641
198.516449	729.281250	735.299805	731.287415	33.332996
198.894180	729.206848	732.624817	728.018066	-34.780357
199.271866	735.299744	734.556641	728.612488	899.909668
199.649536	736.934387	730.247070	727.200745	145.553787
200.027191	736.042725	729.504089	730.395752	86.363167
200.404816	733.962219	731.361633	735.522644	-60.002815
200.782410	733.367859	754.321289	740.575195	34.396927
201.159988	737.454529	773.788574	743.695984	17.177980
201.537537	735.151123	779.138367	737.825989	6.081003
201.915070	731.658875	774.457275	730.395752	-2.951331
202.292557	737.454529	775.943359	727.349365	-26.254795
202.670029	740.426575	783.522217	736.860107	-8.275702
203.047485	742.284180	778.692566	742.952881	1.836668
203.424911	730.098572	769.701904	746.816589	42.213665
203.802292	728.018066	760.042480	742.655701	45.707733
204.179688	728.166687	759.968201	742.804260	46.027912
204.557037	732.699158	756.104492	748.079773	65.714142
204.934357	727.423645	767.547180	755.361389	69.629318
205.311661	730.470032	764.277832	750.011658	57.802120
205.688934	726.383362	771.039368	743.175781	37.603943
206.066177	728.166687	760.711243	739.014832	33.333210
206.443390	717.541321	768.587402	737.083008	38.282444
206.820587	723.039734	772.451111	741.392578	37.142952
207.197769	728.092346	776.166260	743.993164	33.075771
207.574921	731.213074	773.491394	751.869324	48.857784
207.952042	731.510254	767.175598	748.897156	48.750130
208.329147	725.714661	766.581116	738.717773	31.818548
208.706223	728.463867	778.766785	742.878662	28.655981
209.083267	718.730225	781.590332	738.866272	32.033112
209.460297	714.717834	779.509827	740.575195	39.908268
209.837280	715.460876	770.965088	731.881836	29.585070
210.214264	715.163757	768.736023	723.708496	15.949930
210.591217	727.052063	772.748291	723.708496	-7.316943
210.968124	728.018066	770.816406	724.600098	-7.986218
211.345016	736.637146	770.593567	728.835388	-22.975796
211.721893	729.206848	763.386169	723.708496	-16.086779
212.098724	721.256531	751.869324	727.052063	18.931732
212.475555	717.467102	755.064270	730.767273	35.375458
212.852356	712.265930	756.847473	733.219238	46.999962
213.229126	721.330750	768.290100	728.389587	15.031805
213.605865	715.609436	765.318054	726.531982	21.973145
213.982590	722.296692	764.946472	723.634094	3.135778
214.359283	716.129639	755.138489	719.473206	8.571303
214.735931	724.005676	754.321228	727.646545	12.009906
215.112579	722.296814	755.807312	731.584534	27.715851
215.489197	725.343079	759.225281	739.609192	42.105034
215.865799	720.439148	750.531738	734.482361	46.666679
216.242355	717.021301	753.875488	738.494690	58.265804
216.618896	712.934631	757.144714	739.683594	60.504211
216.995407	711.968689	766.283997	737.974609	47.879543
217.371902	714.049133	764.872253	728.835388	29.093559
217.748367	719.621826	759.893860	728.984070	23.247507
218.124802	722.891113	757.441895	724.971680	6.021764
218.501236	721.256531	755.064270	733.442200	36.044022
218.877609	711.299988	755.212891	728.389587	38.917034
219.253983	714.123352	758.333496	737.380188	52.605202
219.630295	715.312256	760.562683	738.048889	50.246227
220.006592	720.216309	758.556458	734.705261	37.790550
220.382889	716.946960	753.875427	727.646484	28.973648
220.759140	720.662109	754.841309	720.216248	-1.304483
221.135391	726.383484	756.996094	726.606262	0.727734
221.511581	726.754944	762.866028	732.773438	16.666611
221.887772	727.646545	759.893982	735.225403	23.502201
222.263931	728.835388	769.256042	729.949890	2.757259
222.640060	725.788879	762.568848	724.377197	-3.838182
223.016159	716.055359	765.838196	734.928223	37.910381
223.392212	713.083191	765.392395	738.123230	47.869278
223.768265	717.912903	772.005310	740.500977	41.758308
224.144302	728.389465	775.348877	736.414246	17.088758
224.520294	722.965393	780.252869	739.683594	29.182995
224.896286	727.126465	777.429382	743.027161	31.609888
225.272217	727.349365	776.091980	742.655701	31.402369
225.648148	729.281189	769.479004	746.668030	43.253201
226.024048	727.349365	766.952698	746.147949	47.467178
226.399902	729.206848	768.884521	743.027161	34.831459
226.775772	731.138733	765.020813	735.225342	12.061269
227.151581	728.240967	774.977356	736.711426	18.123905
227.527374	725.120300	771.485107	737.231628	26.121813
227.903137	725.194580	770.519226	733.516418	18.360516
228.278870	721.776611	765.095154	733.739319	27.615675
228.654572	721.256531	765.689514	731.956116	24.080276
229.030273	723.931396	767.398499	735.894226	27.521572
229.405930	727.646484	770.742188	720.439209	-16.723885
229.781555	721.107910	769.999207	718.953125	-4.407298
230.157181	719.770508	775.794739	721.627991	3.315499
230.532761	710.334045	776.463379	735.894104	38.651619
230.908325	713.528992	774.605774	732.030457	30.292141
231.283859	714.792175	772.822571	732.179016	29.961611
231.659332	722.519714	766.878357	726.606262	9.212518
232.034821	723.039795	774.011414	725.045898	3.935727
232.410263	719.770508	771.410828	718.804504	-1.870638
232.785690	722.148132	770.593506	720.885071	-2.607187
233.161087	726.457703	770.742188	727.200745	1.677883
233.536469	723.114075	775.646179	723.857117	1.414453
233.911804	720.810730	776.983582	721.033630	0.396812
234.287140	712.414490	773.045471	724.451477	19.852865
234.662430	713.974854	764.872253	729.578430	30.656923
235.037704	719.027405	758.779358	736.042725	42.803734
235.412933	723.931396	758.556458	734.853821	31.544851
235.788162	727.423645	761.974426	737.974609	30.537556
236.163345	725.343079	769.627625	732.030457	15.100929
236.538513	725.714661	767.398499	733.813721	19.429737
236.913635	722.668213	768.438782	735.596924	28.246778
237.288742	711.076965	767.101318	742.507141	56.100918
237.663834	713.231873	767.992981	742.581360	53.595497
238.038879	718.507324	768.810242	734.259521	31.314680
238.413910	725.640381	770.742126	730.692932	11.202562
238.788910	725.343201	773.194092	727.572266	4.658356
239.163879	730.544250	770.593445	737.603027	17.625265
239.538834	730.841492	773.714172	732.104675	2.946360
239.913757	729.206848	771.336609	730.692932	3.527397
240.288651	717.244141	767.101318	732.773438	31.147566
240.663528	715.312317	772.153870	745.627869	53.333435
241.038361	716.203918	778.098145	745.181946	46.818626
241.413177	722.742615	790.283752	742.581360	29.372833
241.787979	725.268860	781.367432	734.036621	15.629206
242.162735	722.668274	787.831787	740.203796	26.910032
242.537476	718.284363	787.088684	733.962341	22.786327
242.912170	713.974854	802.692383	734.631042	23.283098
243.286865	716.129578	799.868835	736.339905	24.134830
243.661514	723.039734	803.583984	735.894226	15.959540
244.036148	728.612488	795.336365	732.030457	5.122557
244.410751	730.321472	796.079346	719.844727	-15.932306
244.785339	719.919128	795.782166	720.587830	0.881458
245.159882	718.804504	802.097839	726.309082	9.009818
245.534378	720.662109	799.571594	733.219238	15.913333
245.908890	727.126465	796.227966	736.562805	13.655767
246.283356	733.813660	792.067078	740.872375	12.117256
246.657791	730.841553	797.862610	742.432800	17.294933
247.032196	723.039734	808.785095	742.135559	22.270390
247.406586	715.386536	814.803650	739.312073	24.065813
247.780960	715.163757	827.732361	738.271912	20.528063
248.155289	719.398926	834.568176	739.609314	17.548424
248.529602	719.919128	839.472168	732.401917	10.441214
248.903870	722.073914	829.367004	731.807434	9.071898
249.278122	722.222412	819.410400	725.417480	3.287514
249.652344	723.336975	813.837646	730.321472	7.717619
250.026550	718.358704	811.905762	731.361633	13.899881
250.400711	725.491760	809.602356	738.569031	15.547709
250.774857	722.593994	807.224670	741.466797	22.300192
251.148987	732.476257	807.967773	738.791931	8.366071
251.523071	727.943665	813.837646	737.751709	11.418779
251.897125	728.612488	814.729309	735.671204	8.196675
252.271164	714.494934	817.701416	734.779602	19.654451
252.645187	711.597168	816.735535	732.030334	19.434547
253.019165	708.402161	820.896484	731.733154	20.739708
253.393112	713.826233	816.958435	738.866211	24.279495
253.767044	714.346375	815.175110	740.278015	25.718502
254.140930	725.788879	804.401306	746.816589	26.748583
254.514801	718.878845	802.246399	745.553467	31.996407
254.888657	724.897400	800.166016	744.216003	25.666214
255.262466	723.411316	812.128723	737.603088	15.996604
255.636276	735.002502	815.546692	736.562927	1.937352
256.010010	733.070618	822.159668	743.472961	11.676344
256.383759	724.377258	826.172058	749.863037	25.036425
256.757446	720.885010	830.630127	747.485352	24.238293
257.131134	715.758118	831.521790	741.095398	21.887074
257.504791	719.398987	829.887024	735.076843	14.189642
257.878418	715.832458	836.871582	738.494812	18.723164
258.252014	714.569336	855.595886	735.151184	14.594307
258.625580	715.832458	871.050781	738.643372	14.696018
258.999115	721.330811	893.861633	737.751709	9.517661
259.372650	726.086243	902.778015	745.776428	11.143805
259.746124	720.067688	921.502380	743.547363	11.656222
260.119598	710.408264	937.254578	746.593750	15.951543
260.493042	706.990417	950.851990	738.048889	12.736108
260.866425	711.076965	960.511292	723.039795	4.795984
261.239838	715.683777	950.926270	714.940857	-0.315810
261.613159	717.392761	937.403137	723.857117	2.938205
261.986511	721.107910	912.288879	741.169617	10.493568
262.359802	725.566101	896.536621	739.906494	8.387641
262.733063	730.024231	886.431458	732.922058	1.852745
263.106293	729.355530	886.208557	726.383362	-1.894874
263.479523	736.562805	884.351013	732.699158	-2.614314
263.852692	732.922058	881.304504	733.070618	0.100119
264.225861	729.875671	881.378845	733.665039	2.501180
264.598969	722.296692	882.864807	736.340027	8.746030
264.972076	723.857117	890.666687	739.832214	9.576847
265.345154	729.652649	891.261169	742.432800	7.908092
265.718201	730.544373	903.966980	741.838379	6.512419
266.091217	731.138733	914.517883	745.256348	7.698593
266.464203	722.965515	928.189514	750.457520	13.396096
266.837158	721.627991	936.065674	744.661926	10.741552
267.210114	721.405090	947.582520	743.770203	9.888304
267.583038	724.228577	962.666016	739.237793	6.294824
267.955902	724.080017	965.563782	742.581360	7.661527
268.328766	725.640381	974.405945	737.751770	4.868596
268.701569	725.863281	967.421387	732.624817	2.799134
269.074371	726.309143	971.508057	726.383484	0.030319
269.447144	719.250427	972.845459	736.117126	6.651037
269.819885	716.872620	988.374756	748.748535	11.740577
270.192596	714.866516	994.096008	756.476013	14.901541
270.565277	723.411316	1006.727539	753.949707	10.778907
270.937927	724.971680	1021.662354	750.828918	8.715218
271.310577	726.606384	1053.241089	753.578125	8.257463
271.683136	717.318542	1078.652588	747.782532	8.430977
272.055725	720.810730	1106.218872	736.934387	4.183528
272.428284	715.609558	1112.757568	732.922058	4.359206
272.800812	724.302917	1114.540894	735.819824	2.951252
273.173279	719.844788	1101.314941	746.519348	6.992568
273.545776	726.457703	1109.116699	750.903320	6.388356
273.918152	720.885071	1102.057983	743.918762	6.042846
274.290558	720.885071	1099.828979	739.089172	4.803904
274.662964	715.683838	1084.076782	734.779602	5.183531
275.035278	720.067688	1082.293457	734.482422	3.979489
275.407593	720.513489	1095.073486	739.906494	5.177543
275.779907	721.851013	1107.779175	740.129395	4.736213
276.152161	716.798340	1123.234253	743.547363	6.581363
276.524384	714.494934	1127.692383	733.665039	4.639454
276.896606	721.107910	1147.828491	729.504089	1.967606
277.268799	714.643555	1161.128540	736.711426	4.942578
277.640930	720.141907	1172.496948	741.318176	4.681338
278.013031	714.346375	1163.432007	751.200500	8.206481
278.385162	719.250305	1164.843750	745.256287	5.836257
278.757233	711.077148	1162.688843	743.844543	7.255657
279.129272	711.671448	1175.171875	738.494690	5.787102
279.501282	714.717957	1186.540161	738.123230	4.960613
279.873230	717.838562	1203.778320	741.392578	4.847106
280.245178	719.027405	1222.576904	737.677429	3.703712
280.617126	719.324646	1243.827515	735.374023	3.059922
280.988983	716.872620	1269.610474	735.225403	3.320341
281.360870	706.470276	1287.369019	737.008789	5.257115
281.732697	702.755188	1313.597778	744.067444	6.763159
282.104492	705.801575	1338.414917	748.674255	6.777075
282.476288	714.272034	1366.204102	744.067383	4.570315
282.848053	720.587708	1385.151367	741.541199	3.152970
283.219757	722.668213	1396.891113	737.454529	2.193090
283.591461	726.829163	1403.801392	745.479187	2.754917
283.963135	723.039795	1399.640259	749.045715	3.843616
284.334747	714.940735	1397.114258	748.302673	4.890535
284.706360	710.259766	1418.884766	752.686523	5.987195
285.077942	707.287598	1453.658325	751.349121	5.903437
285.449524	716.129639	1487.540405	749.714539	4.353699
285.821014	716.352539	1496.828125	742.432800	3.341586
286.192535	722.965515	1511.985962	743.398743	2.589695
286.563995	717.764343	1537.397827	744.141785	3.218199
286.935425	714.866455	1566.152832	744.661865	3.500046
287.306824	715.683777	1568.233398	743.695862	3.285684
287.678223	723.931458	1554.561523	741.392578	2.102154
288.049561	734.036621	1536.208618	748.674255	1.824750
288.420898	732.179016	1520.530884	741.615417	1.196978
288.792145	736.191345	1516.221191	741.689758	0.704898
289.163452	732.401917	1522.239868	736.488525	0.517398
289.534668	730.321472	1549.731812	742.581360	1.496184
289.905914	723.114075	1576.852173	750.531799	3.211491
290.277039	723.857117	1612.963379	748.451355	2.766175
290.648193	728.092346	1651.526733	744.736145	1.802380
291.019318	730.915833	1693.804810	736.488586	0.578754
291.390381	735.002502	1715.575562	733.070618	-0.197016
291.761475	732.253418	1715.798462	728.166687	-0.415510
292.132507	726.532043	1702.795410	728.092346	0.159824
292.503510	714.866455	1689.049438	736.934387	2.265276
292.874481	718.061523	1673.297363	749.120117	3.251406
293.245422	722.073914	1679.390137	749.491516	2.864007
293.616364	729.206848	1696.331055	746.073547	1.744005
293.987213	726.606384	1740.095337	742.804260	1.598229
294.358093	732.104736	1787.277710	750.308838	1.725224
294.728943	730.321472	1849.469116	752.166504	1.951935
295.099731	727.126404	1901.629761	745.702087	1.581578
295.470490	715.535156	1936.254517	739.386414	1.953869
295.841248	717.541443	1960.402954	737.380188	1.596215
296.211975	719.176086	1987.300659	742.655701	1.851523
296.582642	726.160583	2035.077271	737.231628	0.845817
296.953308	721.033630	2082.185059	733.665100	0.927999
297.323883	721.405090	2127.063965	732.030457	0.755899
297.694519	728.538147	2156.041992	735.522644	0.489280
298.065063	728.686768	2159.757324	743.324402	1.022845
298.435608	727.423645	2126.915527	745.627747	1.300765
298.806122	718.581604	2070.148193	746.668030	2.078064
299.176575	720.959290	2008.774048	744.290344	1.811678
299.547028	722.148132	1959.139771	740.575195	1.489667
299.917450	719.993408	1933.356812	749.045715	2.394361
300.287872	718.358704	1927.486938	739.386414	1.739080
300.658234	720.587830	1937.443359	738.271790	1.453251
301.028564	724.897278	1937.963501	727.795166	0.238890
301.398865	726.903503	1928.973022	737.305908	0.865375
301.769135	726.309082	1923.474487	741.912598	1.303372
302.139374	724.971680	1919.684937	749.863098	2.083464
302.509583	726.383362	1928.601196	743.547363	1.427695
302.879791	721.330872	1935.362915	744.364563	1.897289
303.249939	719.621887	1935.140137	741.169617	1.772720
303.620087	721.107910	1923.103027	739.609314	1.539225
303.990173	724.748779	1904.898926	740.946777	1.372537
304.360260	730.172852	1898.880249	743.695862	1.157091
304.730286	730.098450	1904.973145	754.618469	2.087033
305.100281	730.395691	1913.369141	757.367676	2.280016
305.470276	730.990173	1928.972778	749.863098	1.575392
305.840179	732.253235	1952.229492	742.878601	0.870949
306.210144	730.024231	1976.675171	740.872375	0.870183
306.579987	717.392822	1995.325195	749.045715	2.476883
306.949890	706.990417	2007.213501	762.345886	4.257382
307.319702	711.745789	2022.445679	755.064270	3.304988
307.689484	723.039795	2038.420898	751.126221	2.135231
308.059265	732.327637	2069.256592	736.042725	0.277882
308.429016	731.733215	2112.723633	733.293518	0.112984
308.798737	725.714661	2176.103760	742.358459	1.147540
309.168396	725.343079	2225.069336	743.027161	1.179154
309.538055	722.445313	2266.381592	750.308899	1.804711
309.907684	728.538086	2287.409180	745.702148	1.101057
310.277313	731.658875	2309.997314	745.702087	0.889747
310.646851	731.213074	2330.578857	746.222168	0.938440
311.016388	728.463867	2347.594482	751.126221	1.399662
311.385895	728.686768	2351.606689	753.058044	1.501693
311.755371	736.340027	2347.446045	746.742371	0.645665
312.124817	738.717590	2346.554443	743.250183	0.281906
312.494232	730.544373	2348.263184	744.959045	0.891049
312.863617	721.627991	2345.588135	749.714417	1.729502
313.232971	714.049133	2341.947510	745.850769	1.953539
313.602295	716.946960	2323.817627	751.869324	2.173315
313.971619	716.501160	2323.817627	753.949707	2.329880
314.340820	712.414551	2321.216797	757.070374	2.775719
314.710083	709.516663	2363.718018	753.132324	2.636660
315.079285	708.402161	2404.213135	751.126221	2.519388
315.448486	721.776672	2449.389160	753.429626	1.832179
315.817596	720.587830	2450.132080	749.863037	1.692654
316.186707	724.080078	2408.299805	753.206726	1.729385
316.555786	720.216309	2353.167236	749.863098	1.815535
316.924866	722.222473	2305.687744	751.572021	1.853501
317.293884	727.423645	2294.170654	749.342957	1.399033
317.662872	730.172852	2293.502197	745.553528	0.983841
318.031830	722.445313	2310.517578	741.243958	1.183740
318.400757	720.587830	2319.730713	749.937317	1.835326
318.769684	721.999512	2331.544922	749.937317	1.735757
319.138550	728.241028	2346.405518	750.160339	1.354579
319.507416	724.228699	2373.006104	738.717590	0.878766
319.876190	720.141907	2386.529053	740.872498	1.244044
320.244995	722.073792	2386.157715	744.513245	1.348457
320.613770	722.371094	2358.962891	744.216064	1.334784
320.982483	721.702332	2338.529541	740.723816	1.176470
321.351166	722.222473	2316.684570	740.575195	1.151029
321.719818	720.067688	2313.638428	753.058044	2.070216
322.088440	717.764343	2317.873291	756.401672	2.414669
322.457062	718.878845	2339.124023	756.327332	2.311285
322.825623	720.662109	2375.904053	748.079773	1.656414
323.194183	720.959290	2426.058350	748.897156	1.638489
323.562653	726.829285	2481.042236	749.937317	1.317288
323.931183	731.287415	2549.697754	752.835144	1.184976
324.299591	732.922058	2615.084229	750.977539	0.959295
324.668060	726.606262	2674.452393	759.373840	1.682247
325.036407	721.033630	2709.597412	762.866028	2.103649
325.404755	719.547546	2731.887939	766.135437	2.315110
325.773102	719.398926	2742.364502	757.293396	1.873214
326.141388	726.457703	2746.897217	758.184998	1.570317
326.509674	732.030457	2755.739258	754.172607	1.094137
326.877899	729.652649	2772.606201	759.745361	1.473000
327.246124	724.823059	2785.980469	753.503906	1.391492
327.614288	723.485657	2780.853516	764.946533	2.015239
327.982422	726.606384	2765.844482	768.810242	2.069590
328.350525	728.315247	2746.897217	771.856689	2.157031
328.718628	723.634094	2734.340088	766.729736	2.143309
329.086700	719.027405	2743.553711	770.444885	2.539729
329.454712	713.529053	2759.677490	769.256042	2.723507
329.822693	715.238037	2788.209717	769.256104	2.605828
330.190674	714.569336	2805.373779	761.751465	2.256649
330.558563	715.386658	2815.775635	764.649353	2.345408
330.926483	711.077087	2832.568359	769.553284	2.756372
331.294312	714.792175	2861.100586	768.661682	2.509868
331.662231	721.925293	2908.877197	772.822571	2.327316
332.029999	718.581604	2939.044189	783.076355	2.904564
332.397766	715.758057	2981.916748	791.249695	3.331260
332.765503	710.185364	3034.894531	795.633606	3.675653
333.133240	720.364929	3098.572021	792.067078	3.014967
333.500916	720.067688	3149.841064	795.633545	3.109996
333.868561	724.674500	3184.763428	801.429138	3.119995
334.236176	717.169861	3218.050781	808.859375	3.666289
334.603790	722.296692	3227.858643	812.871826	3.614963
334.971344	719.473206	3223.177734	809.602539	3.599839
335.338867	725.640381	3221.765625	811.757263	3.450022
335.706360	723.188416	3228.750244	808.413635	3.401442
336.073853	722.742615	3247.326172	814.283508	3.625980
336.441284	717.764343	3252.230225	813.317566	3.770152
336.808655	718.507324	3247.326172	828.623840	4.354465
337.176086	720.587830	3198.434814	827.435059	4.312099
337.543396	727.869446	3122.200439	824.388672	4.031156
337.910706	729.875549	3040.541748	815.175232	3.691562
338.277954	726.086121	3053.395752	819.113220	3.997195
338.645264	727.126404	3141.073242	830.407227	4.278504
339.012421	729.132568	3283.065674	842.147034	4.425115
339.379669	738.717712	3404.476318	850.246033	4.183737
339.746796	730.172852	3512.809814	858.270691	4.603469
340.113953	736.191406	3596.028564	866.518372	4.557147
340.481018	726.680664	3633.625977	873.502747	5.050734
340.848114	729.058289	3627.830811	871.645264	4.918874
341.215118	716.798340	3621.217529	875.731873	5.472128
341.582153	716.947021	3644.325439	881.898987	5.634801
341.949066	715.758118	3687.792725	899.062927	6.167654
342.316010	713.603333	3700.498291	907.607727	6.495186
342.682922	717.021301	3714.393311	912.808899	6.531975
343.049835	717.467102	3730.516602	904.858643	6.219332
343.416656	720.959290	3780.522217	902.332214	5.928066
343.783478	718.135742	3842.565186	919.941956	6.458978
344.150269	723.411316	3958.180420	952.040710	7.067874
344.516998	726.234802	4094.377686	978.046692	7.476283
344.883728	726.160461	4207.392090	985.922791	7.461794
345.250427	721.999512	4282.214355	994.393250	7.651048
345.617065	719.101746	4321.074707	1005.613037	7.954288
345.983704	716.724060	4315.799316	1013.117676	8.235271
346.350281	720.290588	4310.895996	1009.625305	8.058104
346.716827	717.244141	4260.220703	1009.699707	8.254516
347.083405	723.857117	4239.341309	1020.250671	8.431087
347.449860	720.810730	4177.596191	1025.971924	8.827889
347.816376	720.513489	4125.955566	1027.606689	9.017719
348.182770	716.872742	4086.426758	1032.213501	9.358531
348.549194	713.677551	4059.306396	1033.922363	9.572036
348.915558	716.872559	4086.278320	1044.176147	9.713985
349.281921	717.541321	4096.754883	1053.315430	9.936457
349.648193	715.014954	4150.327148	1072.336914	10.401441
350.014526	718.953125	4186.735840	1086.454468	10.597589
350.380737	720.736328	4247.663574	1093.364624	10.565239
350.746948	723.634216	4286.003906	1095.519287	10.439261
351.113159	720.736389	4323.377441	1106.887573	10.718558
351.479309	723.708496	4366.250488	1114.689453	10.733739
351.845428	726.160461	4410.906250	1124.868774	10.820511
352.211517	724.600159	4455.934082	1133.116455	10.948264
352.577576	723.188416	4506.162598	1152.286621	11.342879
352.943604	721.330811	4568.205566	1175.989136	11.818901
353.309601	724.600098	4631.139648	1192.410156	11.975050
353.675537	720.959290	4723.201172	1215.295288	12.351477
354.041473	724.080078	4831.088867	1242.118652	12.613524
354.407379	726.829285	4964.165039	1265.969849	12.723574
354.773254	725.120300	5084.609375	1286.551636	12.878374
355.139038	729.429871	5167.977051	1296.285400	12.771194
355.504913	721.553711	5270.143066	1312.037476	12.981689
355.870636	726.234802	5356.854492	1331.578979	13.072639
356.236389	729.355469	5483.837402	1373.039917	13.538477
356.602081	732.847717	5624.195313	1410.934448	13.862984
356.967804	728.463867	5784.764160	1436.048706	13.994123
357.333405	721.405090	5921.406738	1472.457031	14.443302
357.699036	722.742493	6086.656250	1512.952148	14.731961
358.064606	722.816895	6254.803223	1554.487305	15.033848
358.430176	718.210144	6405.563965	1576.406616	15.089556
358.795654	719.770508	6473.029785	1595.279419	15.217616
359.161163	726.457703	6458.615234	1619.576538	15.580849
359.526581	729.949951	6424.064941	1629.978882	15.806300
359.892029	729.206848	6436.176270	1645.433960	16.054531
360.257416	726.383484	6547.185059	1662.151978	16.076283
360.622772	730.544434	6756.569824	1712.083374	16.288330
360.988098	727.646545	7016.777344	1766.473022	16.517805
361.353394	722.222412	7312.502441	1838.546509	16.938948
361.718658	726.903503	7637.725098	1889.592407	16.824179
362.083893	735.151062	7925.276855	1946.211060	16.843378
362.449097	741.615417	8106.946777	1984.625610	16.876501
362.814209	733.813660	8102.562500	1996.068237	17.129837
363.179382	721.850891	7889.611328	1963.969360	17.329241
363.544434	718.433044	7514.828613	1909.357056	17.522877
363.909546	722.593933	7100.739746	1855.190430	17.757456
364.274536	727.943787	6747.652344	1812.466309	18.016195
364.639587	730.395752	6514.639160	1784.528320	18.224209
365.004517	728.984070	6371.829590	1774.200317	18.522858
365.369507	723.188477	6286.232910	1774.274536	18.894079
365.734344	714.569336	6243.286621	1776.503540	19.207605
366.099274	713.157532	6179.312012	1778.435547	19.488621
366.464081	717.095642	6158.283691	1774.200195	19.427826
366.828918	727.646545	6141.714355	1777.469727	19.390656
367.193665	725.268860	6155.980469	1787.872070	19.566557
367.558411	723.782898	6149.813965	1804.961792	19.925777
367.923126	720.736511	6140.451660	1816.478638	20.217707
368.287781	727.275085	6139.856934	1825.840820	20.296518
368.652435	733.442139	6116.748535	1836.837524	20.496611
369.017059	732.327637	6097.652344	1838.843750	20.623470
369.381653	728.686829	6055.003418	1837.803345	20.823330
369.746185	723.262695	6060.204590	1846.199707	21.040833
370.110687	725.268860	6056.786621	1866.707397	21.409260
370.475220	726.680603	6100.550781	1894.868042	21.738291
370.839661	728.612488	6135.027344	1919.908081	22.034853
371.204041	728.092346	6224.858887	1948.886108	22.209305
371.568451	728.389587	6287.198730	1964.638306	22.239454
371.932770	722.222473	6356.375000	1988.786621	22.480120
372.297150	725.714600	6377.179688	2005.876343	22.651857
372.661377	721.553711	6432.015137	2029.727417	22.908371
373.025696	727.498047	6460.918457	2036.043335	22.823118
373.389862	722.965515	6465.748535	2038.197876	22.902351
373.754059	720.513489	6459.506348	2059.745850	23.335670
374.118225	727.349365	6478.528809	2067.547607	23.303015
374.482361	730.544373	6551.494141	2089.689697	23.349201
374.846436	729.578430	6616.806641	2099.423584	23.268085
375.210510	720.959290	6731.009277	2139.992432	23.611006
375.574524	715.683777	6851.677246	2180.710449	23.875948
375.938538	714.792175	7018.040527	2241.341553	24.218454
376.302460	712.711731	7167.686035	2293.130615	24.483738
376.666412	718.061523	7348.464355	2347.520264	24.575562
377.030304	722.816895	7515.125000	2388.832520	24.527975
377.394196	726.977844	7690.777344	2431.704834	24.479841
377.757996	723.634216	7848.298828	2470.565430	24.519485
378.121796	720.142029	7923.270020	2484.385742	24.492744
378.485565	720.067627	7936.050293	2499.989258	24.666380
378.849304	716.872620	7829.500488	2485.054443	24.859755
379.212982	723.634216	7693.452637	2475.841064	25.139921
379.576630	722.222473	7483.695313	2443.593750	25.458527
379.940277	731.064453	7332.192871	2431.333740	25.757252
380.303864	732.624817	7236.787598	2404.213135	25.700285
380.667450	733.144958	7211.228027	2405.104736	25.809483
381.030945	725.640320	7210.781738	2412.163818	26.005962
381.394501	723.336914	7233.072754	2443.370850	26.422483
381.757935	723.782776	7265.395020	2464.026611	26.602676
382.121399	726.011902	7269.257813	2489.066650	26.944649
382.484741	727.497986	7326.693848	2518.787842	27.144062
382.848145	726.903503	7374.693848	2552.595703	27.463142
383.211487	725.194580	7479.460938	2591.753174	27.635252
383.574768	724.897400	7560.748047	2633.139893	27.915216
383.938019	723.114075	7659.347168	2682.625488	28.250370
384.301270	725.491760	7761.364746	2736.643555	28.584255
384.664459	711.448547	7849.189941	2784.345703	29.041361
385.027649	715.609558	7939.839844	2822.537354	29.164736
385.390778	717.838623	7992.966797	2866.673096	29.536724
385.753876	726.532043	8022.687500	2893.719482	29.703144
386.116943	721.256531	8068.606934	2935.551758	30.137329
386.479980	714.717834	8088.073730	2963.564209	30.499632
386.842987	717.467041	8153.460449	3011.934814	30.856237
387.205994	724.748718	8189.050781	3055.699219	31.227976
387.568909	728.686768	8272.715820	3085.643311	31.242676
387.931793	727.200745	8323.242188	3120.639893	31.509033
388.294678	724.080078	8356.678711	3135.500732	31.593704
388.657471	721.925293	8369.235352	3178.967529	32.129498
389.020294	718.655945	8367.898438	3199.995117	32.439018
389.383057	718.730225	8385.359375	3230.459229	32.761845
389.745819	719.993347	8394.944336	3237.146729	32.796993
390.108521	726.160461	8418.870117	3276.527344	33.153038
390.471191	723.262695	8503.426758	3331.808594	33.528160
390.833801	717.467041	8642.594727	3395.560303	33.792431
391.196442	715.163635	8827.014648	3485.169189	34.147640
391.558960	722.148132	9032.165039	3588.449951	34.492130
391.921509	728.240967	9260.422852	3694.108398	34.760952
392.284027	727.646545	9498.265625	3753.401611	34.498764
392.646484	724.451477	9601.174805	3795.754639	34.599514
393.008911	724.674500	9577.323242	3805.265381	34.798523
393.371307	720.959290	9505.769531	3820.348633	35.281231
393.733673	715.758118	9433.696289	3811.060547	35.504982
394.096008	709.888184	9408.878906	3837.512695	35.953880
394.458344	704.315430	9416.903320	3874.960938	36.391548
394.820587	702.457947	9453.387695	3918.502197	36.750885
395.182831	701.417664	9493.213867	3963.232666	37.100666
395.545013	712.265808	9438.006836	3950.230225	37.108189
395.907196	725.045898	9342.006836	3934.849365	37.249832
396.269287	735.745544	9193.772461	3888.038330	37.269833
396.631409	743.027283	9047.990234	3872.286133	37.679382
396.993469	742.952881	8906.815430	3845.760010	38.006607
397.355530	742.432800	8804.797852	3824.286865	38.225185
397.717499	733.070618	8783.918945	3830.082275	38.468143
398.079468	717.095520	8776.562500	3841.673584	38.769043
398.441376	712.637451	8793.578125	3864.261719	39.000713
398.803284	715.906738	8792.538086	3877.561768	39.145714
399.165131	725.120300	8820.327148	3895.914795	39.168789
399.526978	714.643555	8823.819336	3932.917236	39.686817
399.888763	710.259766	8841.875000	3962.192627	39.991230
400.250519	711.077087	8857.850586	3995.034424	40.309914
400.612244	721.553772	8893.441406	3998.303955	40.097836
400.973938	727.052185	8898.569336	4008.557617	40.157848
401.335602	725.789001	8928.364258	4020.074463	40.161598
401.697205	721.627991	8978.740234	4072.235107	40.578438
402.058807	717.392761	9034.987305	4129.076660	41.017673
402.420349	715.758118	9145.624023	4190.599121	41.220596
402.781860	722.668274	9266.960938	4252.121582	41.307728
403.143341	724.154297	9432.506836	4314.535645	41.229168
403.504822	728.909668	9588.022461	4404.665039	41.491234
403.866241	727.869446	9785.667969	4492.268555	41.559757
404.227631	726.531982	9947.573242	4595.475098	41.957767
404.588959	722.371094	10151.757813	4699.647461	42.179588
404.950287	716.055359	10315.966797	4788.736328	42.424152
405.311554	717.392761	10442.653320	4843.497559	42.426678
405.672821	717.021240	10489.463867	4886.370117	42.664345
406.034027	715.981018	10454.689453	4878.048340	42.737366
406.395203	714.792175	10397.922852	4846.989746	42.674191
406.756348	712.934570	10304.003906	4813.255859	42.751450
407.117493	710.779785	10216.624023	4805.156738	43.072208
407.478516	706.916016	10171.745117	4795.869141	43.201553
407.839600	712.785950	10149.008789	4789.924805	43.207321
408.200592	708.773682	10162.978516	4791.708008	43.186436
408.561554	714.940735	10131.250977	4836.735840	43.772930
408.922485	709.070862	10156.736328	4861.404297	43.950897
409.283417	713.454773	10190.023438	4886.146973	44.031681
409.644257	709.219543	10301.106445	4920.326660	43.902802
410.005096	706.247375	10428.460938	4986.307129	44.023506
410.365906	705.801575	10556.187500	5048.201172	44.083546
410.726715	710.556946	10701.003906	5115.890625	44.095459
411.087433	715.609558	10803.541992	5166.936523	44.125267
411.448120	728.240967	10885.944336	5241.388184	44.430786
411.808807	731.138855	10886.463867	5251.195801	44.509232
412.169434	728.909729	10801.460938	5235.518066	44.741482
412.530029	723.857117	10735.629883	5222.218262	44.930717
412.890564	717.095520	10697.883789	5230.094238	45.216854
413.251099	724.600098	10696.991211	5240.719238	45.286224
413.611572	730.915833	10754.947266	5253.351074	45.115932
413.972076	728.463867	10816.098633	5295.777832	45.276360
414.332489	717.615723	10917.595703	5356.408691	45.478451
414.692871	714.494934	11058.101563	5426.550781	45.555248
415.053223	719.696106	11222.163086	5498.178223	45.498661
415.413574	720.736389	11431.176758	5588.679199	45.450447
415.773834	722.148132	11592.190430	5657.557129	45.403774
416.134094	727.646484	11757.215820	5754.522949	45.576363
416.494263	732.401855	11926.551758	5852.305176	45.737312
416.854462	731.807434	12224.655273	5998.235840	45.823528
417.214630	724.302917	12564.514648	6137.701660	45.720455
417.574738	722.073792	12923.471680	6296.412109	45.686066
417.934784	725.417480	13235.245117	6465.599609	45.885380
418.294861	719.324707	13640.343750	6652.173828	45.916260
418.654846	721.925293	14072.339844	6868.320313	46.038982
419.014832	723.188416	14574.403320	7090.560059	45.969769
419.374756	724.080017	15067.700195	7337.988281	46.110455
419.734680	723.411316	15642.504883	7591.286621	46.034134
420.094543	713.083252	16165.968750	7862.640137	46.266808
420.454376	715.906738	16669.814453	8107.838379	46.333046
420.814148	714.123535	17179.458984	8369.458008	46.493641
421.173920	718.061523	17728.480469	8652.774414	46.646194
421.533691	724.154297	18255.583984	8933.416992	46.825974
421.893341	722.965515	18628.435547	9130.170898	46.953278
422.253021	721.182190	18873.783203	9234.863281	46.900608
422.612640	717.021301	18967.478516	9256.632813	46.791218
422.972260	720.587830	18945.335938	9244.373047	46.770386
423.331757	715.683838	18860.482422	9206.181641	46.793015
423.691315	712.191589	18824.593750	9232.708008	47.042442
424.050781	715.609558	18975.652344	9301.809570	47.021797
424.410248	714.049133	19092.455078	9352.483398	47.003174
424.769653	713.677673	19301.916016	9422.328125	46.850327
425.128998	711.968689	19339.734375	9445.807617	46.886131
425.488373	718.284424	19273.679688	9424.184570	46.918434
425.847656	722.222473	19001.435547	9319.864258	47.035076
426.206940	718.284424	18728.224609	9226.688477	47.242825
426.566193	721.776672	18358.269531	9085.587891	47.423328
426.925385	719.398926	17993.072266	8933.490234	47.552662
427.284576	722.891174	17464.630859	8669.567383	47.466251
427.643677	720.662109	17079.966797	8482.398438	47.445393
428.002777	721.479431	16710.681641	8300.653320	47.401825
428.361847	722.371033	16314.054688	8153.609375	47.661552
428.720856	716.501160	15936.596680	7997.127441	47.835617
429.079865	716.575439	15649.862305	7878.094238	47.956745
429.438812	718.358704	15501.554688	7797.327637	47.885239
429.797760	719.696106	15414.174805	7761.067871	47.918488
430.156616	716.575439	15241.643555	7705.117676	48.113659
430.515503	714.866455	15135.911133	7653.700684	48.116028
430.874268	721.330872	15086.945313	7640.697754	48.166172
431.233093	722.445374	15092.666992	7643.669922	48.163658
431.591827	718.433044	15148.914063	7699.545410	48.377544
431.950562	714.420715	15162.882813	7730.529785	48.559555
432.309204	721.628113	15282.583008	7766.269043	48.380352
432.667877	722.519592	15409.270508	7851.791504	48.542198
433.026459	720.290588	15546.582031	7917.624512	48.544399
433.385010	715.015076	15663.756836	8007.381348	48.782475
433.743561	712.637390	15869.649414	8068.978516	48.534245
434.102051	718.210144	16106.229492	8179.466309	48.487438
434.460510	722.965515	16279.354492	8257.930664	48.436470
434.818939	723.559998	16312.715820	8289.360352	48.532455
435.177338	723.634216	16301.571289	8297.756836	48.620831
435.535675	719.993347	16278.387695	8274.425781	48.555347
435.894012	724.302917	16240.270508	8252.208984	48.517155
436.252289	719.993347	16269.916992	8258.301758	48.478107
436.610535	712.563049	16229.199219	8260.605469	48.644840
436.968719	717.764343	16377.730469	8341.891602	48.685467
437.326935	716.872620	16487.548828	8399.328125	48.713547
437.685028	723.188416	16674.792969	8485.519531	48.661758
438.043152	715.683777	16759.201172	8572.230469	48.970226
438.401215	721.925110	16996.078125	8685.913086	48.936420
438.759277	717.021240	17250.343750	8811.113281	48.956234
439.117249	721.702332	17679.515625	9011.210938	48.883125
439.475250	724.525879	17989.357422	9177.872070	48.962803
439.833130	733.888000	18419.568359	9392.086914	48.955990
440.191071	726.457703	18726.439453	9519.515625	48.850368
440.548889	718.953125	19064.589844	9702.374023	48.967617
440.906708	725.640381	19401.404297	9878.917969	49.011528
441.264496	734.556702	19654.035156	10015.041016	49.052540
441.622223	737.454529	19851.384766	10112.229492	49.046825
441.979950	727.126465	19895.373047	10159.708008	49.209415
442.337616	721.776611	19884.224609	10185.268555	49.385612
442.695251	715.758118	19726.927734	10098.185547	49.352184
443.052887	720.290527	19509.812500	10007.982422	49.430164
443.410461	718.358704	19345.158203	9901.655273	49.301529
443.768005	723.262695	19167.945313	9820.665039	49.322628
444.125458	723.931458	19087.699219	9774.077148	49.282619
444.482941	720.587708	19083.021484	9798.745117	49.438747
444.840393	717.021240	19235.414063	9891.401367	49.541988
445.197754	711.002747	19518.210938	10041.121094	49.609264
445.555084	716.129639	19865.353516	10197.528320	49.513226
445.912415	714.792175	20275.578125	10404.833008	49.538097
446.269714	720.290527	20600.207031	10566.441406	49.528130
446.626953	719.621887	20962.728516	10756.433594	49.581379
446.984161	729.281250	21298.505859	10933.645508	49.609863
447.341309	725.194580	21572.011719	11079.426758	49.668171
447.698456	726.680603	21735.775391	11187.092773	49.789921
448.055542	717.244141	21830.808594	11240.960938	49.843391
448.412598	714.272034	21764.976563	11206.113281	49.840805
448.769653	710.556946	21599.580078	11130.770508	49.883682
449.126617	724.005676	21261.205078	10991.675781	49.995472
449.483582	732.253357	20992.673828	10871.454102	50.044376
449.840515	736.191406	20642.037109	10697.362305	50.041435
450.197388	717.244202	20372.021484	10548.385742	50.019093
450.554230	711.077148	20125.783203	10437.896484	50.100262
450.911041	706.916199	19946.044922	10348.436523	50.114120
451.267822	720.290588	19784.437500	10271.163086	50.098610
451.624573	724.005676	19569.925781	10153.764648	50.036076
451.981262	731.213135	19399.326172	10085.331055	50.107464
452.337921	731.881836	19269.371094	10035.771484	50.189590
452.694580	733.665039	19229.097656	10030.049805	50.263134
453.051147	722.073792	19233.927734	10045.430664	50.364250
453.407715	717.987122	19135.996094	10000.403320	50.398582
453.764221	717.912903	19161.037109	10026.112305	50.469749
454.120728	721.999512	18907.146484	9911.462891	50.532795
454.477142	725.714661	18824.669922	9902.696289	50.704483
454.833557	719.101746	18566.244141	9783.291016	50.787903
455.189911	725.937683	18412.064453	9699.774414	50.739414
455.546265	722.965515	18215.980469	9574.426758	50.599972
455.902557	728.463867	18075.623047	9515.950195	50.656628
456.258820	727.052063	18082.533203	9525.905273	50.697838
456.615051	730.692932	18162.855469	9582.524414	50.778732
456.971252	721.628113	18136.552734	9582.524414	50.881054
457.327393	714.197754	18329.888672	9693.161133	50.971390
457.683502	708.402161	18574.492188	9825.196289	51.028481
458.039612	717.987122	19070.982422	10068.241211	50.946743
458.395630	727.126404	19546.371094	10328.078125	51.016674
458.751648	724.822998	20077.041016	10574.391602	50.896328
459.107605	722.519714	20850.160156	10949.694336	50.811592
459.463562	720.067688	21588.357422	11308.577148	50.739712
459.819458	728.984070	22274.099609	11694.430664	50.895279
460.175323	734.482422	22830.697266	12005.463867	51.008652
460.531158	732.327637	23387.970703	12307.577148	51.092129
460.886932	727.869446	23724.859375	12474.015625	51.076885
461.242676	716.724060	23833.337891	12551.289063	51.195065
461.598419	715.981018	23553.443359	12413.903320	51.222511
461.954102	714.569275	23038.750000	12179.627930	51.357128
462.309723	718.061523	22329.083984	11838.280273	51.456234
462.665344	717.392761	21610.798828	11481.331055	51.518353
463.020905	717.169922	21019.421875	11203.586914	51.651497
463.376373	713.677673	20551.166016	10949.621094	51.598988
463.731873	714.494934	20170.884766	10764.606445	51.654552
464.087341	708.773682	19892.474609	10593.264648	51.525463
464.442749	711.671448	19724.773438	10546.676758	51.727516
464.798126	707.956299	19645.341797	10496.671875	51.689903
465.153503	711.522888	19744.091797	10547.270508	51.678513
465.508820	713.677673	19846.701172	10564.063477	51.483685
465.864105	722.371033	19999.617188	10649.289063	51.495518
466.219330	724.377258	20265.324219	10773.300781	51.424957
466.574524	727.646484	20446.994141	10878.364258	51.475929
466.929657	723.188293	20643.451172	10984.542969	51.512142
467.284790	730.692932	20826.382813	11105.359375	51.626324
467.639893	727.572266	21018.455078	11196.752930	51.595490
467.994934	736.488586	21223.531250	11309.468750	51.608135
468.349945	727.498047	21236.607422	11339.413086	51.742447
468.704926	729.578430	21158.740234	11326.038086	51.869282
469.059875	725.268860	20894.220703	11216.070313	52.014614
469.414764	728.538269	20648.205078	11093.989258	52.036270
469.769653	722.519714	20468.837891	11008.765625	52.091969
470.124451	717.987244	20380.195313	10951.848633	52.048382
470.479248	717.838562	20228.396484	10860.234375	51.984138
470.834015	719.770508	20124.150391	10786.080078	51.876484
471.188721	720.959290	20183.591797	10818.699219	51.882706
471.543365	719.027527	20328.033203	10906.153320	51.951263
471.898010	722.668274	20493.580078	11001.781250	51.991093
472.252625	721.627991	20667.523438	11083.588867	51.950344
472.607178	719.324646	20925.281250	11213.469727	51.935898
472.961700	716.352539	21180.880859	11344.614258	51.935047
473.316193	716.055359	21479.207031	11511.497070	51.993267
473.670654	717.095520	21638.365234	11592.859375	51.984241
474.025055	709.145203	21848.416016	11724.375000	52.107895
474.379456	707.064758	22022.435547	11807.519531	52.077232
474.733795	714.272034	22192.812500	11916.745117	52.156582
475.088104	725.566101	22330.046875	11966.825195	52.032070
475.442383	735.894104	22335.546875	12025.449219	52.267300
475.796570	732.773438	22474.271484	12094.997070	52.260536
476.150787	726.011902	22688.781250	12228.148438	52.371067
476.504944	714.346375	23005.533203	12331.428711	52.115131
476.859070	719.027405	23314.187500	12487.463867	52.083881
477.213135	722.816895	23610.060547	12625.963867	52.007774
477.567200	731.658875	24052.755859	12902.221680	52.186920
477.921173	722.222412	24480.888672	13130.554688	52.226551
478.275146	721.776611	25045.142578	13426.129883	52.231068
478.629089	719.844727	25370.218750	13579.194336	52.166954
478.983002	726.234863	25797.013672	13852.776367	52.357929
479.336823	728.835388	26170.162109	14068.551758	52.433262
479.690643	722.371094	26684.115234	14314.790039	52.355568
480.044403	713.751953	27275.117188	14570.168945	52.167564
480.398163	709.962463	28003.953125	14932.023438	52.106930
480.751862	708.847961	28979.771484	15481.938477	52.255424
481.105499	708.922302	30167.720703	16104.668945	52.261963
481.459137	713.157471	31792.720703	16966.728516	52.296654
481.812744	720.290588	33802.464844	18004.068359	52.244984
482.166290	724.302917	36304.832031	19338.695313	52.316235
482.519806	718.953125	39245.285156	20938.060547	52.481266
482.873291	720.364929	42587.792969	22820.669922	52.786388
483.226715	719.621887	46258.871094	25011.484375	53.342693
483.580139	725.566101	49690.687500	27232.837891	54.135006
483.933502	723.262695	52789.042969	29496.099609	55.262470
484.286804	720.141907	55224.089844	31558.296875	56.579670
484.640106	716.501160	57025.406250	33323.804688	57.907894
484.993347	713.008850	58042.687500	34460.265625	58.865246
485.346558	716.724121	58219.003906	34779.468750	59.237209
485.699738	713.603333	57625.402344	34253.925781	58.933865
486.052887	715.089355	56468.582031	33163.160156	58.199173
486.405975	713.231873	55062.699219	31824.599609	57.243187
486.759064	721.999573	53642.699219	30522.890625	56.312351
487.112061	718.507324	52505.425781	29496.992188	55.570953
487.464996	723.114075	51791.746094	28884.142578	55.143497
487.817963	721.627991	51644.328125	28729.000000	54.999779
488.170868	727.052063	51678.656250	28699.500000	54.900032
488.523743	723.188416	51772.128906	28791.560547	54.983261
488.876587	722.296692	51577.011719	28699.796875	55.014565
489.229401	720.885010	51140.703125	28475.031250	55.046108
489.582153	724.748779	50393.214844	27903.939453	54.721222
489.934845	719.398926	49434.488281	27250.968750	54.462734
490.287537	716.798340	48362.230469	26580.906250	54.284546
490.640198	722.668274	47513.250000	26072.525391	54.177265
490.992798	730.395752	46930.343750	25671.587891	53.985321
491.345337	730.990173	46862.871094	25562.216797	53.826607
491.697876	724.674500	46933.386719	25586.662109	53.803684
492.050354	726.531982	47353.421875	25808.458984	53.792839
492.402832	730.172852	47527.734375	25935.736328	53.860844
492.755219	731.361633	47375.636719	25850.361328	53.852268
493.107605	725.045898	46606.011719	25491.630859	53.980091
493.459930	725.491699	45365.375000	24780.179688	53.886089
493.812225	720.216309	43587.980469	23801.390625	53.842728
494.164490	722.296814	41470.578125	22566.849609	53.608524
494.516724	721.702332	39262.519531	21349.623047	53.522270
494.868896	726.532043	37239.855469	20210.562500	53.361427
495.221039	720.885010	35654.832031	19358.013672	53.349625
495.573120	727.720886	34443.175781	18651.171875	53.160938
495.925201	725.863281	33770.292969	18288.576172	53.148785
496.277222	728.240967	33387.113281	18058.236328	53.063667
496.629211	725.863281	33347.062500	18006.667969	52.974155
496.981140	728.092346	33389.410156	17989.283203	52.849033
497.333069	731.436035	33489.871094	18024.056641	52.788300
497.684967	731.584656	33547.378906	18075.474609	52.852268
498.036804	724.600159	33564.175781	18093.009766	52.888657
498.388580	722.371033	33483.484375	18074.804688	52.966557
498.740326	717.392761	33299.359375	17972.861328	52.960182
499.092072	715.312256	32957.640625	17802.041016	52.994709
499.443756	715.683777	32581.595703	17627.205078	53.070885
499.795410	706.916199	32183.259766	17444.791016	53.176044
500.147003	711.820129	31812.412109	17235.259766	53.129021
500.498566	710.111145	31424.703125	16985.751953	52.989929
500.850098	720.216309	30950.203125	16749.095703	53.023109
501.201599	716.426819	30504.015625	16568.464844	53.216923
501.553009	714.569275	30113.630859	16378.695313	53.281040
501.904449	708.550781	29864.271484	16240.346680	53.271866
502.255859	716.798340	29647.900391	16086.167969	53.124039
502.607178	716.501221	29559.703125	16035.938477	53.112820
502.958405	724.600098	29477.599609	15983.703125	53.069607
503.309692	717.318420	29466.083984	15946.625977	52.973778
503.660919	715.163635	29495.802734	15920.174805	52.830692
504.012115	708.996582	29602.056641	15916.383789	52.633354
504.363251	715.535217	29729.111328	16005.993164	52.701046
504.714294	719.696106	29753.412109	16041.213867	52.771465
505.065369	717.615723	29733.421875	16097.386719	53.004803
505.416443	720.662109	29733.349609	16110.092773	53.043797
505.767395	720.439209	29785.287109	16143.008789	53.062618
506.118317	724.897400	29810.103516	16107.343750	52.887524
506.469238	719.398987	29816.048828	16122.054688	52.936180
506.820160	726.680664	29778.970703	16103.479492	52.928013
507.170929	727.052063	29775.328125	16127.924805	53.018200
507.521729	729.578430	29832.244141	16150.512695	52.988049
507.872498	727.200867	29944.587891	16211.367188	52.996410
508.223236	723.708557	30166.531250	16336.418945	53.027218
508.573883	726.086182	30351.396484	16416.591797	52.963177
508.924500	727.052063	30589.166016	16529.162109	52.916920
509.275116	734.185120	30781.833984	16585.630859	52.754364
509.625702	727.200684	31068.494141	16734.310547	52.756847
509.976196	722.742615	31362.287109	16885.517578	52.751354
510.326660	714.866516	31655.632813	17065.775391	52.845844
510.677124	716.352539	31942.369141	17206.580078	52.809258
511.027557	717.392761	32164.904297	17346.937500	52.880322
511.377869	716.724060	32397.919922	17490.562500	52.945724
511.728180	714.494934	32540.728516	17549.931641	52.897987
512.078430	716.872620	32657.234375	17607.443359	52.881588
512.428650	711.894348	32805.468750	17655.218750	52.793510
512.778931	722.073914	32906.890625	17721.496094	52.818142
513.129028	721.702332	32993.007813	17758.126953	52.791245
513.479126	727.275085	33024.511719	17790.076172	52.830528
513.829285	724.451477	33001.406250	17806.572266	52.923584
514.179382	723.411316	32917.367188	17782.646484	52.988937
514.529297	720.216309	32821.593750	17718.447266	52.951717
514.879272	709.145203	32804.875000	17724.837891	53.015442
515.229187	699.114258	32741.640625	17685.832031	53.013042
515.579163	708.625000	32744.318359	17695.193359	53.023884
515.928955	716.649719	32788.378906	17674.091797	52.873489
516.278748	726.829285	33040.933594	17820.318359	52.897919
516.628540	724.228577	33372.917969	18007.708984	52.937748
516.978333	726.011902	33831.738281	18275.125000	53.009296
517.327942	726.086182	34366.199219	18562.007813	53.019802
517.677612	725.194519	35012.925781	18875.861328	52.936329
518.027222	721.999512	35710.113281	19231.029297	52.900906
518.376831	721.479431	36495.339844	19635.832031	52.871998
518.726379	722.073914	37212.437500	20043.232422	52.948658
519.075867	723.262695	37797.718750	20364.890625	52.978870
519.425293	721.033630	38257.800781	20597.605469	52.952278
519.774658	723.782776	38457.828125	20751.337891	53.075554
520.124084	725.120300	38453.890625	20824.453125	53.273224
520.473389	729.801331	38099.238281	20679.337891	53.384632
520.822693	721.702332	37712.863281	20432.505859	53.285172
521.171997	714.717834	37260.957031	20100.148438	53.043571
521.521240	709.813904	36795.226563	19836.076172	53.002750
521.870361	714.940735	36352.828125	19615.546875	53.035145
522.219482	724.451477	35959.765625	19423.697266	53.069618
522.568604	726.903564	35767.843750	19291.068359	52.978497
522.917664	727.943787	35598.359375	19196.478516	52.963337
523.266724	723.559875	35689.972656	19238.906250	52.951801
523.615662	713.751953	35912.289063	19370.794922	53.005161
523.964600	710.408264	36363.753906	19599.646484	52.980270
524.313538	710.779785	36917.011719	19906.142578	53.016739
524.662354	724.897278	37667.546875	20310.945313	53.017445
525.011169	730.024231	38633.253906	20845.330078	53.070164
525.359985	727.423645	39797.800781	21489.833984	53.141052
525.708740	715.386536	41108.722656	22216.958984	53.230495
526.057434	719.398926	42569.886719	23011.031250	53.264931
526.406067	721.405090	44206.109375	23949.998047	53.417850
526.754700	727.349365	46012.781250	24992.093750	53.581787
527.103333	716.278259	47955.500000	26204.859375	53.956394
527.451782	714.420654	49967.910156	27544.166016	54.472782
527.800293	715.906738	51953.730469	28974.642578	55.152100
528.148743	716.426758	53840.343750	30450.740234	55.971611
528.497131	713.751953	55501.156250	31840.572266	56.813824
528.845642	710.779785	56874.718750	33194.890625	57.838024
529.193909	712.785950	57932.125000	34370.730469	58.822674
529.542175	713.083191	58646.390625	35254.261719	59.622314
529.890503	712.340149	58896.050781	35622.804688	60.000408
530.238770	709.591003	58652.261719	35395.066406	59.861713
530.586914	715.758118	57919.488281	34673.957031	59.363609
530.934998	713.528992	56776.714844	33553.398438	58.576530
531.283142	715.758118	55356.640625	32243.812500	57.700485
531.631226	715.015137	53756.011719	30788.595703	56.698746
531.979248	726.309082	52130.863281	29409.681641	55.799282
532.327148	730.024231	50695.484375	28205.310547	54.988560
532.675110	730.247131	49596.105469	27388.947266	54.554855
533.023071	724.674500	49119.300781	26973.744141	54.239639
533.370850	726.457703	49024.562500	26901.447266	54.194653
533.718689	727.349304	49279.203125	26986.154297	54.084038
534.066467	728.018066	49464.437500	27123.837891	54.160362
534.414246	721.999512	49549.292969	27181.421875	54.189819
534.761963	711.597168	49398.902344	27144.419922	54.290997
535.109619	706.544617	49027.832031	26959.406250	54.329803
535.457153	705.504333	48398.785156	26548.880859	54.186619
535.804749	712.191589	47598.546875	26012.490234	53.960899
536.152344	712.860291	46705.355469	25416.134766	53.711533
536.499817	714.717834	45748.558594	24826.025391	53.540421
536.847229	713.454773	44815.386719	24296.693359	53.474384
537.194641	711.448547	43984.980469	23790.541016	53.333046
537.542114	710.185364	43396.207031	23435.005859	53.237144
537.889404	711.448547	42876.160156	23146.710938	53.208622
538.236694	712.265930	42388.218750	22857.744141	53.137306
538.583984	716.649719	41933.855469	22614.927734	53.128971
538.931213	717.987244	41654.105469	22446.406250	53.078850
539.278381	726.309082	41486.031250	22385.179688	53.137924
539.625488	727.497986	41543.316406	22425.228516	53.160099
539.972595	725.937561	41887.710938	22553.031250	53.027584
540.319641	721.702332	42638.394531	22918.005859	52.953377
540.666687	717.912903	43651.957031	23438.421875	52.919567
541.013611	722.148193	45011.546875	24224.470703	53.065346
541.360596	721.107910	46404.722656	25073.603516	53.306850
541.707458	722.445313	47856.449219	25979.351563	53.585320
542.054260	717.541321	48988.082031	26689.912109	53.805843
542.401062	715.089355	49945.843750	27307.736328	54.016331
542.747864	715.758118	50412.832031	27655.250000	54.207401
543.094666	713.900574	50363.199219	27708.599609	54.370758
543.441284	710.408386	49743.667969	27344.218750	54.317848
543.787903	711.225647	48741.769531	26751.880859	54.216866
544.134460	713.008972	47433.375000	25937.744141	53.990875
544.481079	716.278259	45981.347656	25053.166016	53.765274
544.827637	710.185364	44413.707031	24048.593750	53.401661
545.174072	711.002686	42742.046875	23056.876953	53.165169
545.520508	716.649719	41333.191406	22211.162109	52.920586
545.866943	723.857117	40076.878906	21499.193359	52.792225
546.213318	729.578430	39211.847656	20996.462891	52.665512
546.559631	723.857117	38403.656250	20562.906250	52.651680
546.905823	716.872742	37723.710938	20194.439453	52.632343
547.252136	713.231750	37203.667969	19886.603516	52.543549
547.598389	716.426819	36660.738281	19583.968750	52.491032
547.944458	723.485596	36239.148438	19375.476563	52.517643
548.290588	722.073914	35674.964844	19090.673828	52.552448
548.636658	719.993347	35085.074219	18725.773438	52.395565
548.982727	716.946960	34284.613281	18307.744141	52.403988
549.328735	724.451477	33481.769531	17900.568359	52.434441
549.674622	726.680603	32613.396484	17483.951172	52.552513
550.020569	729.504150	31813.306641	17032.189453	52.447525
550.366455	720.959290	30980.890625	16569.953125	52.376171
550.712280	722.742493	30262.904297	16183.949219	52.339615
551.058044	715.683777	29716.630859	15901.971680	52.364799
551.403748	714.866455	29301.796875	15686.121094	52.370979
551.749512	707.361816	29050.505859	15534.321289	52.312328
552.095154	709.516602	28852.562500	15434.085938	52.320454
552.440735	708.030579	28786.062500	15377.765625	52.246311
552.786316	715.015137	28727.365234	15372.565430	52.325317
553.131897	724.377258	28738.062500	15367.289063	52.270565
553.477417	729.281250	28747.720703	15394.187500	52.340195
553.822815	731.956116	28731.820313	15368.180664	52.272488
554.168213	725.343201	28706.931641	15332.738281	52.203598
554.513672	726.234802	28579.427734	15205.531250	51.984333
554.859009	721.925232	28405.412109	15096.157227	51.923492
555.204285	720.736389	28153.005859	14991.390625	52.021412
555.549500	721.479492	27859.804688	14902.598633	52.254955
555.894714	722.073914	27530.791016	14767.444336	52.391056
556.239990	719.696106	27237.669922	14559.692383	52.190998
556.585022	718.210144	26924.630859	14376.684570	52.118813
556.930115	719.621887	26641.242188	14213.812500	52.057663
557.275146	720.513489	26302.349609	14069.815430	52.182735
557.620178	719.993347	26114.509766	13952.266602	52.106815
557.965149	720.364929	25931.724609	13855.301758	52.099277
558.310059	720.736389	25795.304688	13758.709961	51.996803
558.654968	718.730164	25604.718750	13661.372070	52.007748
558.999756	712.934570	25444.818359	13582.166992	52.034988
559.344604	718.655945	25361.154297	13536.023438	52.013264
559.689331	718.061523	25304.537109	13489.583008	51.945309
560.033997	718.878845	25274.591797	13446.786133	51.832775
560.378723	717.764343	25235.656250	13447.975586	51.922127
560.723389	721.256531	25217.375000	13459.493164	52.001038
561.067932	726.977783	25282.166016	13488.620117	51.971268
561.412476	726.309082	25308.250000	13493.670898	51.937969
561.757019	720.290527	25333.437500	13497.536133	51.912281
562.101501	721.479309	25311.369141	13507.864258	51.998543
562.445862	719.473206	25288.859375	13495.604492	52.000202
562.790222	725.937561	25265.599609	13479.553711	51.971443
563.134644	718.581604	25224.658203	13452.582031	51.962624
563.478943	718.953125	25214.328125	13461.721680	52.021122
563.823181	718.581604	25212.177734	13462.613281	52.030056
564.167358	721.851013	25260.546875	13468.928711	51.946846
564.511536	719.844788	25373.857422	13477.769531	51.747864
564.855774	716.649719	25425.945313	13480.593750	51.656448
565.199768	717.244141	25544.234375	13548.359375	51.682121
565.543823	718.061523	25647.367188	13631.949219	51.802036
565.887817	716.129639	25920.726563	13760.715820	51.754787
566.231812	712.563049	26152.404297	13859.538086	51.678680
566.575745	710.333984	26363.869141	13970.545898	51.689610
566.919617	712.117249	26558.912109	14071.151367	51.685459
567.263428	714.569336	26700.460938	14159.645508	51.739910
567.607239	714.792175	26813.103516	14213.070313	51.720890
567.950989	719.993347	26784.052734	14237.515625	51.862694
568.294678	724.080017	26765.921875	14212.549805	51.795376
568.638367	727.572266	26640.646484	14162.916992	51.847744
568.981995	719.027344	26514.554688	14091.362305	51.839741
569.325623	711.894287	26298.630859	13995.958008	51.917770
569.669128	711.076965	26139.994141	13868.454102	51.741787
570.012573	709.070801	26005.431641	13767.179688	51.620506
570.356140	713.974792	26009.890625	13745.854492	51.517723
570.699524	714.643555	25979.873047	13738.721680	51.549412
571.042908	720.216309	26053.359375	13806.782227	51.657887
571.386230	714.197754	26162.583984	13823.872070	51.514755
571.729492	711.671448	26396.931641	13903.823242	51.360786
572.072815	711.671448	26572.361328	13953.753906	51.205448
572.416016	719.547546	26711.603516	14022.112305	51.179344
572.759094	722.965515	26827.515625	14075.536133	51.150356
573.102234	720.067688	26917.943359	14113.282227	51.123287
573.445374	711.820007	26942.912109	14156.971680	51.256546
573.788391	709.442322	26909.919922	14165.812500	51.359253
574.131409	710.556946	26871.132813	14145.899414	51.357212
574.474365	715.460938	26788.804688	14109.863281	51.372017
574.817261	717.987122	26673.193359	14028.131836	51.281212
575.160156	729.801270	26481.119141	13911.773438	51.189507
575.502930	735.299744	26263.263672	13772.975586	51.072132
575.845703	730.172852	26047.115234	13650.969727	51.036167
576.188477	728.538269	25803.998047	13524.952148	51.031624
576.531250	730.395752	25528.111328	13401.460938	51.097713
576.873901	737.974609	25208.240234	13261.846680	51.179958
577.216431	730.767273	24893.791016	13110.640625	51.234783
577.559082	720.439148	24575.998047	12938.628906	51.217369
577.901611	713.974792	24189.103516	12769.590820	51.354847
578.244080	708.030579	23841.218750	12603.450195	51.421448
578.586487	717.169861	23502.992188	12416.356445	51.344151
578.928955	723.411316	23186.240234	12255.120117	51.336853
579.271301	730.098572	22817.843750	12063.567383	51.311115
579.613647	722.742493	22393.726563	11858.640625	51.386215
579.955872	720.216309	22030.234375	11625.625977	51.175041
580.298157	724.005676	21720.466797	11460.006836	51.132431
580.640320	727.349304	21478.984375	11330.942383	51.097626
580.982483	724.228577	21207.632813	11217.036133	51.225899
581.324524	719.547546	20990.890625	11113.606445	51.274639
581.666626	715.832336	20819.029297	11004.233398	51.177937
582.008728	714.940735	20737.591797	10937.062500	51.052792
582.350647	716.055359	20621.308594	10850.945313	50.915649
582.692566	721.182190	20539.054688	10806.364258	50.889324
583.034424	723.114075	20423.589844	10746.551758	50.879162
583.376343	721.107910	20302.029297	10715.269531	51.040306
583.718201	720.439209	20229.658203	10664.744141	50.972336
584.059937	728.835388	20148.521484	10612.508789	50.895126
584.401611	731.064453	20070.427734	10559.753906	50.822197
584.743347	732.699158	19971.902344	10535.531250	50.952381
585.085022	724.080078	19851.085938	10493.549805	51.076839
585.426514	725.491699	19758.876953	10446.665039	51.074329
585.768127	720.587708	19669.341797	10396.436523	51.063244
586.109619	720.141907	19609.974609	10374.666016	51.109634
586.451172	719.101746	19580.921875	10319.458984	50.898361
586.792542	715.163757	19535.300781	10303.483398	50.947128
587.133850	716.649719	19515.164063	10278.444336	50.864632
587.475220	715.906738	19488.861328	10287.062500	50.983749
587.816589	723.782898	19438.185547	10251.397461	50.910599
588.157776	730.172852	19500.005859	10273.836914	50.845760
588.498962	733.293640	19574.009766	10300.512695	50.779484
588.840210	730.247131	19696.017578	10317.528320	50.550446
589.181335	724.005798	19722.841797	10315.744141	50.485928
589.522400	722.148193	19751.150391	10328.078125	50.480469
589.863403	726.903564	19799.669922	10370.059570	50.559822
590.204407	729.281250	19784.064453	10367.458984	50.581409
590.545410	729.355469	19869.810547	10390.196289	50.473412
590.886353	727.349365	19853.908203	10370.356445	50.416843
591.227112	723.336975	19857.996094	10368.722656	50.407932
591.567932	719.398926	19725.662109	10301.999023	50.418114
591.908752	717.764343	19618.666016	10264.177734	50.507710
592.249512	720.513489	19575.421875	10230.889648	50.439789
592.590149	718.804504	19486.927734	10196.635742	50.499622
592.930786	715.089355	19427.189453	10153.020508	50.437588
593.271423	711.894348	19328.144531	10116.760742	50.519661
593.612000	716.129639	19269.964844	10058.657227	50.353615
593.952576	720.587830	19285.123047	10065.938477	50.339806
594.292969	722.073914	19323.390625	10071.659180	50.263027
594.633484	730.247253	19415.748047	10138.903320	50.352715
594.973877	725.863281	19510.482422	10160.526367	50.225468
595.314209	726.086182	19645.861328	10206.593750	50.108986
595.654480	710.705566	19848.560547	10280.375977	50.003880
595.994812	718.135925	20040.484375	10381.724609	50.012497
596.335022	717.912903	20308.494141	10514.206055	50.005116
596.675171	722.296692	20473.076172	10619.344727	50.109657
597.015320	715.535156	20658.978516	10709.995117	50.114014
597.355408	719.844727	20747.029297	10749.671875	50.081066
597.695496	716.575500	20830.990234	10777.089844	50.016445
598.035461	719.919128	20797.851563	10770.699219	50.058842
598.375366	716.352539	20758.248047	10721.881836	49.923073
598.715271	718.432922	20657.267578	10664.223633	49.881508
599.055176	722.148132	20452.341797	10559.084961	49.857273
599.395081	727.349365	20159.814453	10457.885742	50.073608
599.734802	727.126465	19815.271484	10300.958008	50.155907
600.074524	723.114075	19472.439453	10135.188477	50.199532
600.414246	717.764343	19068.603516	9939.995117	50.255085
600.753906	715.832458	18687.357422	9761.000000	50.330551
601.093506	713.900574	18361.912109	9587.057617	50.278511
601.433044	715.312317	18170.656250	9461.782227	50.107693
601.772583	723.559875	18061.283203	9364.222656	49.837360
602.112122	727.720886	18019.226563	9335.319336	49.779346
602.451538	727.497986	18022.494141	9339.182617	49.792927
602.790894	724.748779	18116.267578	9393.870117	49.846828
603.130310	719.844727	18325.429688	9476.717773	49.739174
603.469604	725.194580	18598.865234	9577.471680	49.526917
603.808838	723.336975	18903.949219	9689.966797	49.319736
604.148010	727.423645	19224.566406	9863.983398	49.394436
604.487305	722.073914	19531.287109	10004.340820	49.349575
604.826416	725.120300	19806.728516	10130.581055	49.290714
605.165527	719.993347	20005.783203	10215.956055	49.238136
605.504456	721.405090	20164.568359	10312.920898	49.331043
605.843445	716.946960	20204.544922	10352.896484	49.446571
606.182434	714.940735	20145.845703	10330.307617	49.484921
606.521423	715.089355	19978.515625	10239.212891	49.441483
606.860229	715.980957	19749.439453	10136.823242	49.496216
607.199036	721.925232	19504.167969	10005.828125	49.429153
607.537903	715.312317	19256.443359	9891.920898	49.493252
607.876648	711.374268	18940.656250	9753.272461	49.600960
608.215271	707.361877	18650.353516	9600.802734	49.564980
608.553955	709.219482	18351.804688	9460.890625	49.605373
608.892578	719.473328	18196.437500	9352.855469	49.398632
609.231140	721.776672	18100.291016	9287.691406	49.290264
609.569641	724.080078	18041.962891	9224.980469	49.087410
609.908081	725.789063	18037.060547	9212.944336	49.026760
610.246521	722.816895	17995.451172	9219.036133	49.188900
610.584961	730.767273	18020.935547	9228.174805	49.145893
610.923340	724.823059	17966.099609	9205.512695	49.188290
611.261597	727.126465	17905.023438	9138.268555	48.964916
611.599854	719.027344	17755.453125	9087.817383	49.122921
611.938110	719.993347	17623.044922	9005.711914	49.019073
612.276245	725.714661	17394.490234	8913.206055	49.118732
612.614319	723.336975	17088.957031	8751.819336	49.056999
612.952393	721.702332	16708.677734	8559.450195	49.025833
613.290466	713.454773	16369.036133	8371.612305	48.916470
613.628479	719.919128	16038.539063	8210.747070	48.900150
613.966370	722.296692	15777.661133	8101.151855	49.011467
614.304260	722.891113	15532.834961	7990.217285	49.070587
614.642151	720.662109	15339.573242	7874.825684	48.937733
614.979980	724.228516	15142.968750	7770.281250	48.867325
615.317749	723.114075	14995.477539	7687.805176	48.798443
615.655396	721.330811	14879.789063	7627.917480	48.780643
615.993164	722.519714	14831.714844	7583.187500	48.625507
616.330811	724.971680	14781.487305	7559.781738	48.623787
616.668396	730.024231	14779.406250	7555.917969	48.585011
617.005859	723.634094	14754.960938	7551.162598	48.659176
617.343445	720.290588	14722.936523	7537.268066	48.683498
617.680908	720.587830	14700.792969	7532.364746	48.724442
618.018311	723.485596	14719.815430	7530.283691	48.632732
618.355652	728.315247	14749.386719	7541.875000	48.595142
618.692993	725.343201	14743.739258	7533.850098	48.568371
619.030273	723.559875	14730.069336	7523.001953	48.544868
619.367554	732.773438	14690.168945	7480.277344	48.343575
619.704712	734.556702	14662.082031	7458.209473	48.276005
620.041870	740.798157	14606.281250	7424.847656	48.206390
620.379028	732.253357	14552.485352	7422.024902	48.405636
620.716064	733.367859	14501.809570	7386.730957	48.323284
621.053040	731.658875	14426.319336	7368.824219	48.465355
621.389954	730.618652	14382.851563	7335.312988	48.378128
621.726929	727.943787	14294.729492	7301.876953	48.456081
622.063843	728.686829	14243.460938	7250.459473	48.256615
622.400635	725.863281	14202.221680	7209.667969	48.112438
622.737427	725.417480	14174.432617	7190.645996	48.072132
623.074219	716.798340	14113.132813	7176.603027	48.220692
623.410889	715.460876	14041.950195	7145.692871	48.251507
623.747559	713.380371	14027.460938	7113.445313	48.069901
624.084167	720.290527	13994.545898	7086.993652	47.962788
624.420715	723.411316	13991.573242	7077.928223	47.892971
624.757324	721.999512	14008.812500	7084.764160	47.887817
625.093750	719.398926	14079.102539	7105.865723	47.803959
625.430176	725.045959	14141.293945	7125.333984	47.705498
625.766602	729.726990	14200.958008	7132.986816	47.532848
626.102905	726.680664	14281.949219	7173.185059	47.557186
626.439209	718.953125	14409.156250	7218.806641	47.478138
626.775452	711.597168	14528.856445	7273.493652	47.490578
627.111694	717.690002	14629.239258	7310.421875	47.390350
627.447876	720.885010	14709.784180	7348.019043	47.374233
627.783997	729.875671	14753.918945	7371.721191	47.360420
628.120056	732.476257	14819.752930	7378.855469	47.180016
628.456055	734.110840	14800.804688	7349.876953	47.031422
628.792053	729.281250	14751.468750	7321.196777	47.010609
629.128052	718.953125	14658.664063	7278.621094	47.057419
629.463928	712.414551	14564.226563	7252.020020	47.211189
629.799744	711.151367	14459.606445	7221.556152	47.353718
630.135559	715.609436	14319.768555	7148.590332	47.286869
630.471375	716.055359	14150.877930	7050.361816	47.148422
630.807068	720.662048	13967.796875	6933.261719	46.897686
631.142700	723.188293	13815.476563	6869.881348	46.948959
631.478333	728.538147	13659.292969	6796.915527	46.929802
631.813965	721.033630	13539.887695	6728.185547	46.861847
632.149475	716.426758	13392.916992	6667.851563	46.948521
632.484924	719.473145	13288.594727	6626.911621	46.999615
632.820435	734.853821	13197.945313	6598.898926	47.051285
633.155884	736.042725	13142.367188	6562.119141	46.960533
633.491150	732.847717	13098.752930	6518.949219	46.790764
633.826477	721.702332	13039.979492	6475.556152	46.709892
634.161804	721.182190	12967.458008	6416.485840	46.506416
634.497009	713.008972	12905.862305	6384.759277	46.517006
634.832153	710.333984	12842.112305	6338.542480	46.392281
635.167297	709.293762	12765.504883	6304.437500	46.408806
635.502380	715.980957	12673.445313	6265.576660	46.411140
635.837463	719.324707	12558.200195	6228.574219	46.535244
636.172424	722.593994	12468.071289	6181.169434	46.473846
636.507324	724.897278	12360.628906	6122.469238	46.387901
636.842224	725.640381	12260.246094	6061.095703	46.256069
637.177124	727.200684	12133.708008	5977.133301	46.025764
637.511963	719.176025	12011.481445	5909.146484	45.960239
637.846741	723.782898	11887.468750	5852.378906	45.939991
638.181396	724.823059	11747.112305	5799.921875	46.043961
638.516113	733.367859	11646.504883	5737.209473	45.851543
638.850769	724.451477	11541.515625	5671.377441	45.732609
639.185303	719.398926	11474.569336	5640.097168	45.751934
639.519836	716.649719	11373.739258	5605.025879	45.869709
639.854370	718.581604	11273.133789	5583.031738	46.088650
640.188843	721.256531	11142.807617	5519.949219	46.045860
640.523254	720.141907	11046.585938	5459.541016	45.895748
640.857605	724.823059	10928.592773	5386.278809	45.683662
641.191895	724.897400	10863.875000	5346.749512	45.584991
641.526184	725.343079	10792.767578	5317.474609	45.613762
641.860413	721.702332	10773.895508	5300.681641	45.552044
642.194580	715.609558	10711.628906	5281.734375	45.679432
642.528748	715.683838	10630.043945	5256.471191	45.800102
642.862793	716.203918	10571.270508	5223.109863	45.731865
643.196838	721.182312	10515.247070	5178.453613	45.509926
643.530823	725.491760	10486.566406	5147.469238	45.302162
643.864746	726.532043	10414.937500	5121.314941	45.361259
644.198669	725.789001	10371.396484	5102.070801	45.370724
644.532532	722.445374	10303.334961	5060.980957	45.283222
644.866333	722.519714	10261.577148	5039.359863	45.254368
645.200073	714.940735	10243.000977	5021.378418	45.197418
645.533813	710.185364	10241.664063	5009.043945	45.101696
645.867554	709.665283	10223.534180	4986.826660	44.957115
646.201172	716.575439	10196.338867	4955.843262	44.719128
646.534729	728.761047	10189.652344	4973.824219	44.869587
646.868225	723.114075	10214.766602	4975.904785	44.805588
647.201782	726.086182	10219.967773	4977.836426	44.784103
647.535217	720.141907	10237.131836	4957.477539	44.523903
647.868591	728.612488	10228.883789	4963.198730	44.573318
648.201965	727.869446	10232.598633	4971.297363	44.645435
648.535278	732.550476	10206.666992	4966.839355	44.693237
648.868591	729.949890	10224.500000	4924.561523	44.179153
649.201782	721.850891	10188.760742	4892.685547	44.056976
649.534912	716.872742	10162.532227	4858.060547	43.842236
649.868103	712.563171	10093.653320	4837.478516	43.970535
650.201172	717.541321	10045.429688	4825.589844	44.040497
650.534180	714.494934	9985.022461	4808.574707	44.162319
650.867188	716.055359	9937.468750	4800.401367	44.291973
651.200134	713.008850	9940.812500	4776.772949	44.038261
651.533020	716.352539	9918.521484	4761.466309	43.958263
651.865845	723.337097	9881.815430	4738.358398	43.839390
652.198608	727.052185	9822.670898	4705.442871	43.739635
652.531433	718.953125	9778.833008	4680.477051	43.726009
652.864136	714.420715	9750.597656	4663.312988	43.700920
653.196777	853.886902	9845.779297	4789.182129	43.764927
653.529358	864.066406	9821.258789	4768.079590	43.585232
653.861938	864.289246	9768.429688	4715.102051	43.247440
654.194519	721.702332	9564.096680	4541.530762	43.199028
654.526978	710.556946	9479.837891	4516.639160	43.402443
654.859375	707.436218	9414.971680	4490.708496	43.448257
655.191833	715.163757	9380.346680	4471.463379	43.349342
655.524170	720.810730	9337.102539	4446.274902	43.237442
655.856445	719.696106	9293.487305	4433.494629	43.315712
656.188660	718.804504	9264.211914	4410.906738	43.205692
656.520874	720.364929	9240.509766	4373.458008	42.875950
656.853088	717.244141	9240.211914	4352.133301	42.648163
657.185181	717.838562	9227.877930	4338.907227	42.550552
657.517212	718.953125	9247.419922	4344.108398	42.506531
657.849243	729.801270	9286.800781	4359.786621	42.421238
658.181274	728.315247	9350.997070	4393.742676	42.509136
658.513123	728.463867	9421.360352	4423.760742	42.509384
658.844971	728.686768	9511.194336	4468.342285	42.580727
659.176819	728.018066	9601.620117	4499.401367	42.501156
659.508667	725.937683	9709.135742	4530.014160	42.346569
659.840393	721.702332	9784.256836	4545.097656	42.188934
660.172058	720.513489	9832.256836	4539.524902	41.913071
660.503662	723.336975	9860.416992	4542.868164	41.802536
660.835266	723.411316	9870.374023	4539.004395	41.714317
661.166931	721.033630	9848.529297	4542.050781	41.862709
661.498413	722.519714	9799.266602	4521.395020	41.852825
661.829773	722.816895	9693.161133	4468.491699	41.756203
662.161194	725.194580	9556.964844	4409.271484	41.713913
662.492615	721.776672	9412.743164	4329.470703	41.510849
662.823975	726.532043	9236.274414	4258.809082	41.508625
663.155212	735.448425	9067.830078	4176.704590	41.299789
663.486450	732.922058	8905.775391	4108.197754	41.298618
663.817627	727.795166	8776.265625	4047.343750	41.244465
664.148743	717.987244	8649.729492	3977.499023	41.094524
664.479858	724.823059	8524.083008	3916.199219	40.918964
664.810913	729.132629	8419.984375	3864.484375	40.767292
665.141907	728.761047	8353.111328	3843.605469	40.853901
665.472778	722.519714	8273.161133	3816.782227	40.980125
665.803711	717.318420	8225.534180	3808.014648	41.164192
666.134583	718.655945	8185.558594	3782.083008	41.026741
666.465454	722.891113	8176.419434	3766.256592	40.831207
666.796143	719.547546	8136.890625	3729.922119	40.585617
667.126831	715.609558	8108.804688	3712.683838	40.538280
667.457458	713.751953	8066.526855	3695.074219	40.546898
667.788147	721.702332	8050.402832	3672.931885	40.269478
668.118774	729.801331	8019.344238	3644.845703	39.989399
668.449219	723.411316	7986.205078	3637.563721	40.124397
668.779663	718.581604	7977.288574	3640.016357	40.247318
669.110107	707.956360	7953.214844	3642.319336	40.500462
669.440552	712.563171	7948.533203	3627.458984	40.283413
669.770874	713.380432	7927.357422	3617.947998	40.263058
670.101135	718.581604	7917.846191	3588.895752	39.869549
670.431396	719.473328	7898.378906	3568.611084	39.687634
670.761597	717.987122	7851.197266	3538.072266	39.534588
671.091797	712.563049	7794.727051	3520.685547	39.650627
671.421875	713.603333	7732.461426	3493.936768	39.612335
671.751892	710.333984	7684.907715	3472.835205	39.608173
672.081909	718.655945	7653.923340	3447.794922	39.351601
672.411865	719.101746	7615.286621	3431.894287	39.337582
672.741821	722.891113	7549.230957	3409.900635	39.362377
673.071716	719.250305	7498.482422	3394.668701	39.464920
673.401550	724.005676	7457.393066	3365.170654	39.224911
673.731262	723.708557	7455.238281	3348.452393	38.991791
674.060974	722.816895	7411.845215	3323.412109	38.878521
674.390625	714.866516	7356.638184	3303.647461	38.977268
674.720276	712.637451	7284.860840	3270.954346	38.926201
675.049927	716.129639	7245.777832	3237.518311	38.614464
675.379395	718.284424	7224.378906	3227.041748	38.560112
675.708923	719.770508	7189.308594	3208.391602	38.466751
676.038330	715.683777	7143.166504	3203.413330	38.704567
676.367737	719.250305	7109.804688	3165.072998	38.272469
676.697083	719.919006	7082.089844	3144.788330	38.113869
677.026428	715.832336	7075.179688	3119.376953	37.795464
677.355652	717.467041	7043.824219	3112.318115	37.855133
677.684875	715.981018	7038.771484	3124.429443	38.091545
678.013977	725.566101	7023.910645	3122.125977	38.050629
678.343079	725.863281	7037.359375	3118.930908	37.916012
678.672180	721.405090	7055.265625	3107.042725	37.664829
679.001221	712.860291	7096.206543	3101.395508	37.418228
679.330139	708.327881	7133.357910	3100.355469	37.229824
679.659058	714.866516	7176.082520	3088.912842	36.743031
679.987976	718.730225	7230.769531	3105.853760	36.657082
680.316772	720.141907	7300.019531	3125.841064	36.561459
680.645630	715.832458	7344.972656	3145.159912	36.646191
680.974304	713.528992	7392.229004	3149.766846	36.477722
681.302979	716.278259	7417.640625	3152.813232	36.358799
681.631653	730.841553	7449.293457	3165.221680	36.234241
681.960266	731.510254	7447.732910	3168.194092	36.280571
682.288757	725.714661	7449.367188	3167.599609	36.317837
682.617249	713.157532	7444.464355	3157.419922	36.311855
682.945679	715.609558	7423.436035	3132.825928	36.035759
683.274109	721.628113	7374.322266	3110.311768	35.905506
683.602478	721.182190	7296.675781	3073.531982	35.774498
683.930725	723.559875	7181.061035	3045.000000	35.949512
684.259033	712.934570	7091.674316	3005.990967	35.948425
684.587280	715.015137	7011.725098	2968.170898	35.783066
684.915344	711.894348	6970.486816	2943.427979	35.655521
685.243469	725.714661	6903.094238	2915.341797	35.445892
685.571533	726.977844	6831.020996	2894.165283	35.504131
685.899536	729.652649	6754.711426	2858.053955	35.325821
686.227539	719.770447	6679.814453	2834.054443	35.474300
686.555420	717.541321	6644.298340	2804.853516	35.218456
686.883301	717.318542	6625.871094	2796.903076	35.196175
687.211121	716.055359	6619.628906	2793.782227	35.194389
687.538940	711.745789	6627.876465	2787.020752	35.078247
687.866638	710.705566	6623.195313	2773.572021	34.889980
688.194336	711.522888	6646.526855	2754.327393	34.419598
688.521973	715.758057	6625.127441	2751.503906	34.449463
688.849609	710.185364	6595.853027	2739.987061	34.487198
689.177063	711.968689	6555.580566	2729.956299	34.533222
689.504578	709.813904	6505.574219	2711.232178	34.532452
689.832031	718.210144	6454.454590	2676.309570	34.135563
690.159485	720.364929	6370.121094	2648.371826	34.125488
690.486816	724.228577	6276.351074	2601.635498	33.814220
690.814087	723.708496	6181.243652	2583.431396	34.076241
691.141296	722.816833	6079.076660	2540.261475	33.931225
691.468506	724.451477	6006.483887	2508.757080	33.780666
691.795715	718.953125	5937.010254	2469.599609	33.549778
692.122803	720.067688	5877.345215	2442.627686	33.400570
692.449829	722.445313	5799.327637	2420.336914	33.443588
692.776855	726.606262	5729.705566	2397.526123	33.397697
693.103821	730.172852	5671.154785	2372.114502	33.231079
693.430664	725.045898	5628.060059	2333.551025	32.806454
693.757568	724.080017	5587.267578	2305.464844	32.517456
694.084351	716.501160	5534.215332	2271.285400	32.272236
694.411133	719.993347	5493.720215	2276.709717	32.610081
694.737854	716.946960	5432.420410	2269.799561	32.931000
695.064575	718.655945	5399.578613	2266.233154	33.061367
695.391174	714.792175	5373.795410	2248.103271	32.910709
695.717773	715.535156	5367.925293	2230.047607	32.553429
696.044250	717.169922	5354.997559	2218.976318	32.381680
696.370789	720.141907	5346.526855	2205.973633	32.116478
696.697205	717.615723	5382.043457	2210.580322	32.007454
697.023621	711.968689	5443.565918	2224.846436	31.973932
697.349915	712.414551	5513.187988	2248.028564	31.986805
697.676208	713.008972	5573.149902	2267.124756	31.976761
698.002380	719.176025	5661.347656	2293.130615	31.847427
698.328674	718.284363	5790.708496	2319.508057	31.567226
698.654724	717.541321	5899.859375	2349.897705	31.498579
698.980896	718.804504	6012.427734	2374.417725	31.275618
699.306946	721.702332	6087.770020	2398.566162	31.249395
699.632935	727.943787	6173.069824	2405.922119	30.816151
699.958862	720.587830	6183.695313	2407.110596	30.871124
700.284729	725.491760	6175.299316	2390.169922	30.545633
700.610596	718.581726	6130.866699	2377.984131	30.659922
700.936340	728.761047	6060.501465	2344.993896	30.313421
701.262146	719.696228	5939.165527	2312.077637	30.508492
701.587830	724.748718	5789.964844	2261.031494	30.330051
701.913513	717.318420	5641.359375	2215.112793	30.417994
702.239075	719.176086	5491.564941	2160.797607	30.207548
702.564697	721.999512	5359.009277	2121.416992	30.179308
702.890137	718.432922	5217.833984	2073.417236	30.114773
703.215698	718.358704	5097.092285	2042.061523	30.230268
703.541016	719.919128	4988.535645	2006.470703	30.139776
703.866455	721.850891	4919.285645	1978.829956	29.946363
704.191711	713.380432	4836.289551	1949.405884	29.979448
704.517029	707.584778	4768.525879	1930.161743	30.105753
704.842163	720.959290	4698.309082	1912.180298	29.950117
705.167419	729.058289	4653.133301	1896.131226	29.741354
705.492493	734.631042	4616.056641	1874.657593	29.371338
705.817566	726.977844	4565.159668	1869.976563	29.779694
706.142578	726.383362	4536.478516	1849.691772	29.482422
706.467590	725.566101	4513.444824	1836.094604	29.317955
706.792480	721.479492	4520.429199	1812.986328	28.731806
707.117371	717.541321	4518.497070	1809.717163	28.734240
707.442200	717.021301	4524.589844	1814.620972	28.826784
707.766907	717.169861	4514.112793	1814.026489	28.887890
708.091675	716.872620	4523.771973	1807.487915	28.648386
708.416321	717.615662	4517.531250	1790.101074	28.223927
708.741028	714.866455	4545.766113	1798.571655	28.288530
709.065552	723.559875	4564.268066	1805.258789	28.164049
709.390137	717.764343	4594.434570	1815.066772	28.305285
709.714600	723.336975	4609.072266	1807.116333	27.891228
710.039063	721.925232	4633.740723	1798.794556	27.528635
710.363403	730.470032	4649.789551	1805.184692	27.420948
710.687744	727.646545	4711.312500	1810.162720	27.173866
711.012085	724.377258	4747.646973	1830.447388	27.491819
711.336304	725.045959	4799.212891	1838.026367	27.317989
711.660461	725.491882	4805.305664	1846.051147	27.465944
711.984619	727.646545	4836.363770	1836.986328	26.999664
712.308716	724.080017	4845.875000	1830.967651	26.854507
712.632751	726.234863	4835.397949	1818.930664	26.591688
712.956726	727.126465	4798.246582	1812.466187	26.659487
713.280701	724.748779	4756.042969	1801.840942	26.718273
713.604553	727.869446	4716.142090	1787.054688	26.557495
713.928467	726.160461	4671.337891	1771.822632	26.504818
714.252258	727.869446	4610.409668	1751.315063	26.360207
714.575989	727.423645	4547.177734	1735.562988	26.392780
714.899719	728.909668	4485.877930	1722.485718	26.446218
715.223267	733.442139	4448.949707	1709.334106	26.265375
715.546936	730.692932	4409.123047	1695.736694	26.235207
715.870422	724.748779	4380.739746	1680.876099	26.152344
716.193970	716.872742	4352.058594	1663.489258	26.040388
716.517395	716.575439	4327.836426	1649.074585	25.821981
716.840820	721.182190	4296.331543	1622.177124	25.201603
717.164124	720.513489	4257.471191	1600.926392	24.891813
717.487488	723.411316	4211.255371	1594.239258	24.967514
717.810730	719.398926	4181.683105	1602.041016	25.493057
718.133972	724.451477	4131.603027	1595.428101	25.563190
718.457092	720.885010	4088.209717	1575.886353	25.391117
718.780212	723.262695	4033.151367	1552.332397	25.048265
719.103210	722.148132	3975.715820	1537.546265	25.061663
719.426208	721.033508	3938.712891	1529.001465	25.110270
719.749207	717.244141	3888.484375	1513.917969	25.121838
720.072083	715.758118	3844.943115	1496.753906	24.958441
720.394958	708.550720	3795.382813	1477.807007	24.920574
720.717773	708.847961	3720.634033	1469.039063	25.240541
721.040527	705.875793	3677.315674	1461.237305	25.420723
721.363281	717.615723	3645.217041	1450.537720	25.034897
721.685913	720.290527	3634.666016	1429.064331	24.319921
722.008545	722.519714	3607.842773	1420.519531	24.191393
722.331055	715.609558	3560.809326	1409.002563	24.370626
722.653503	719.250305	3532.425781	1403.727051	24.331106
722.976013	720.290527	3512.512451	1402.909668	24.447166
723.298401	727.943665	3510.283447	1407.144897	24.411154
723.620789	724.302917	3502.333008	1403.206909	24.438324
723.943115	726.977844	3481.305420	1382.699219	23.806950
724.265381	719.770508	3463.398438	1374.971802	23.880836
724.587585	716.575439	3466.742188	1377.423828	24.029394
724.909790	714.569336	3486.135010	1377.052246	23.902840
725.231873	719.398987	3483.460205	1368.656250	23.489250
725.553894	721.925232	3492.302490	1369.102051	23.360603
725.875916	768.884583	3534.505859	1420.519409	23.561968
726.197937	766.804138	3540.747314	1418.958984	23.510029
726.519775	768.513000	3531.756836	1406.921997	23.103607
726.841675	727.200745	3505.305420	1347.925659	22.343468
727.163513	726.383484	3525.069580	1340.644043	21.948177
727.485291	724.302917	3558.208740	1339.232300	21.699005
727.806946	720.067688	3598.480469	1355.504517	22.075945
728.128662	716.575439	3617.873779	1370.067993	22.524141
728.450256	714.866516	3632.139893	1374.749023	22.619837
728.771790	711.077087	3609.848877	1368.804688	22.689873
729.093323	712.637390	3610.220703	1345.473633	21.840139
729.414795	717.318542	3597.737549	1343.616089	21.743280
729.736145	714.123474	3587.409424	1336.928833	21.675718
730.057495	717.095642	3591.867920	1347.925659	21.943653
730.378845	715.832458	3612.524170	1363.603516	22.362444
730.700134	715.981018	3631.396729	1356.841919	21.981802
731.021301	707.733398	3632.511475	1356.916138	22.195965
731.342468	708.847961	3622.034424	1334.922729	21.491064
731.663574	714.123535	3612.152344	1339.678101	21.585520
731.984680	720.067688	3626.418701	1345.473755	21.518600
732.305664	718.953125	3636.375244	1350.600586	21.650877
732.626648	719.696106	3673.080811	1353.201172	21.450136
732.947571	725.045898	3674.343750	1344.062012	20.988592
733.268433	728.389648	3680.362549	1343.021851	20.821066
733.589233	728.166687	3649.675781	1327.715454	20.521887
733.909973	723.559875	3629.167969	1323.777222	20.657202
734.230713	725.120300	3577.676025	1315.604004	20.700165
734.551331	722.519714	3541.416260	1316.198364	21.060677
734.871948	726.532043	3497.949463	1308.025024	20.981789
735.192505	720.810730	3462.506836	1290.266724	20.770208
735.513062	726.086182	3423.944092	1266.564209	20.033598
735.833435	719.324646	3373.714844	1237.437622	19.519096
736.153931	718.730225	3324.600830	1223.468628	19.369282
736.474304	719.250305	3269.988281	1221.462402	19.688894
736.794617	727.572266	3228.378906	1222.725586	19.799744
737.114807	725.788879	3205.567627	1222.577026	20.033567
737.434998	717.541321	3210.992188	1212.248901	19.840277
737.755188	716.501160	3209.729248	1213.289185	19.925495
738.075256	720.810730	3219.091064	1208.385132	19.516401
738.395325	719.919128	3215.970459	1215.666870	19.861280
738.715271	713.083191	3238.558350	1216.930054	19.950577
739.035278	713.380432	3259.139893	1220.199341	19.908358
739.355164	715.312317	3270.211182	1220.496582	19.773161
739.675049	718.433044	3278.012939	1213.660645	19.348003
739.994873	720.810730	3266.644775	1210.094116	19.218983
740.314636	719.101746	3259.957764	1203.555420	19.066553
740.634277	715.683838	3235.660889	1199.468872	19.197994
740.953979	711.448547	3209.283203	1190.998291	19.198618
741.273499	717.467041	3187.438232	1177.103638	18.608986
741.593140	723.708496	3148.429443	1165.958252	18.239202
741.912598	724.822998	3111.054932	1154.812866	18.019617
742.232117	723.931396	3048.120361	1152.360840	18.433502
742.551453	725.491760	3017.879150	1144.633423	18.284067
742.870850	726.532043	2986.523438	1139.358032	18.266706
743.190063	727.869446	2953.830322	1132.596313	18.182119
743.509338	722.965515	2912.072266	1127.840942	18.495007
743.828552	724.748718	2879.676514	1122.045288	18.436653
744.147705	724.005676	2861.100586	1111.420044	18.128084
744.466797	731.881836	2846.760010	1104.138550	17.601805
744.785828	728.389587	2811.169189	1094.627808	17.584108
745.104858	723.634216	2785.609131	1089.649536	17.750717
745.423706	721.999512	2757.671143	1084.671021	17.815815
745.742615	719.696106	2747.343018	1074.268677	17.486898
746.061401	723.039795	2734.934570	1073.228394	17.405910
746.380249	717.912903	2735.231689	1069.661987	17.436464
746.698975	718.210144	2725.869873	1076.052002	17.823830
747.017639	710.185364	2724.458008	1069.439087	17.835407
747.336304	712.711731	2705.362305	1071.147949	17.987911
747.654907	708.104980	2697.263428	1062.454590	17.814047
747.973389	716.724060	2685.523438	1065.129395	17.696335
748.291931	715.758118	2689.981689	1057.179077	17.293936
748.610352	722.222473	2694.737061	1059.928345	17.120577
748.928711	719.844788	2706.476807	1056.138794	16.927845
749.247070	715.237976	2704.322021	1061.265747	17.396338
749.565308	717.838562	2700.012207	1060.894165	17.307041
749.883545	712.563049	2682.327881	1060.225464	17.649944
750.201782	715.015076	2676.086670	1057.253418	17.451599
750.519836	715.460876	2668.879395	1054.727051	17.367819
750.837952	719.027405	2664.718506	1047.965576	16.905981
751.155884	715.386536	2648.371826	1041.352539	16.863346
751.473877	711.671387	2632.619873	1038.752075	17.027040
751.791809	713.306152	2616.570313	1032.659180	16.779228
752.109619	711.151367	2616.198975	1023.965820	16.420296
752.427490	711.448547	2610.180420	1012.746094	15.868356
752.745300	709.516663	2609.362793	1016.089661	16.136726
753.062988	717.169861	2605.052979	1016.906982	15.876890
753.380615	717.244141	2600.298096	1017.278503	15.933392
753.698303	717.244141	2591.084473	1017.724365	16.035530
754.015808	722.668274	2575.926758	1020.027771	16.045225
754.333374	725.417480	2579.567383	1018.170166	15.789052
754.650757	729.652649	2570.279785	1009.551086	15.206688
754.968262	729.058289	2568.273682	997.365417	14.588130
755.285583	728.909668	2548.137695	994.467590	14.597286
755.602905	722.073914	2544.199463	991.049622	14.761645
755.920105	713.974854	2532.013916	999.891785	15.726666
756.237305	710.111145	2528.001465	998.182678	15.846475
756.554443	718.655945	2523.692139	995.359192	15.329513
756.871582	725.714661	2517.227539	988.746277	14.682095
757.188599	721.776672	2519.902588	987.854675	14.797518
757.505615	716.724060	2524.880859	998.628601	15.590714
757.822510	712.414490	2541.524658	995.433594	15.473049
758.139465	721.925293	2562.478027	989.117859	14.516974
758.456238	724.302917	2582.688477	984.436707	13.997838
758.773010	724.302917	2598.069092	986.368652	13.986043
759.089783	724.600159	2612.483643	994.839111	14.314386
759.406433	726.234802	2626.378174	993.947449	14.089077
759.723145	723.336975	2637.077881	993.724548	14.128744
760.039673	723.485596	2639.975830	1006.578918	14.771446
760.356201	730.767273	2643.988037	1012.597473	14.730668
760.672668	734.556641	2653.498779	1013.712097	14.547361
760.989136	736.117004	2638.192627	999.148682	13.828665
761.305481	733.367859	2628.607422	988.894958	13.482575
761.621826	735.225403	2612.334961	986.740173	13.399045
761.938049	730.395752	2636.112061	988.597717	13.548815
762.254333	730.247253	2664.421387	991.792725	13.522334
762.570496	723.262695	2724.235107	999.445862	13.802447
762.886597	721.107910	2802.475830	1004.201233	13.601311
763.202637	716.872742	2913.558350	1018.170166	13.716002
763.518677	718.730225	3063.352783	1037.711792	13.604815
763.834656	718.953125	3222.137451	1049.748901	13.214998
764.150574	719.027527	3374.086670	1071.148071	13.262249
764.466370	725.194580	3460.128906	1081.476196	13.027063
764.782288	727.943787	3487.992920	1093.810303	13.255797
765.097961	726.977844	3466.816406	1090.466675	13.266797
765.413696	720.810730	3407.522705	1079.990112	13.368734
765.729309	713.900574	3308.105713	1071.148071	13.770982
766.044861	716.501160	3176.069580	1050.714722	13.588302
766.360474	723.411316	3034.077393	1036.448730	13.547497
766.675903	725.120300	2905.756592	1015.123718	13.299027
766.991394	720.810730	2789.769775	996.473816	13.323758
767.306763	715.386658	2685.671631	974.925964	13.172679
767.622131	719.993347	2607.951172	966.083984	13.034753
767.937378	720.736389	2533.945557	959.842590	13.186906
768.252625	718.284424	2479.704834	952.337952	13.287772
768.567810	720.364929	2417.959229	944.981934	13.231489
768.882996	718.358704	2382.442139	935.619812	13.055902
769.197998	720.513489	2340.461182	933.316467	13.136410
769.513062	716.501160	2304.944580	923.136963	13.008698
769.828064	714.049133	2266.084229	913.106140	12.825547
770.142944	711.077087	2240.078369	905.973083	12.746621
770.457825	711.076965	2227.595459	902.852356	12.645766
770.772705	716.575439	2198.171631	901.589172	12.487460
771.087402	719.398926	2165.329834	898.914246	12.415207
771.402100	724.600159	2127.138184	895.422058	12.179483
771.716736	721.850891	2106.482178	895.422058	12.535551
772.031372	726.086182	2103.138672	896.536621	12.377919
772.345947	720.513489	2079.212891	892.078430	12.627144
772.660461	731.807434	2067.176025	890.369568	11.874035
772.974854	727.869446	2039.609741	873.502869	11.102306
773.289246	734.705261	2024.377563	872.611145	10.693094
773.603638	725.045898	2005.578979	871.347961	11.425091
773.917908	728.240967	1992.947388	884.499695	12.355336
774.232178	722.816833	1988.638062	888.734863	13.107540
774.546265	725.194519	1981.802246	882.864990	12.547311
774.860474	727.869385	1957.133789	870.084961	11.569160
775.174561	727.572266	1937.517700	863.843506	11.262594
775.488586	723.559875	1912.923462	859.311035	11.413765
775.802551	717.467041	1908.316772	863.471924	12.260563
776.116516	720.736328	1898.806030	860.797058	11.889002
776.430359	727.943787	1893.307617	861.094238	11.425655
776.744202	731.733215	1881.419312	861.317139	11.271244
777.057922	724.600098	1875.623657	860.574036	11.813306
777.371704	718.432922	1870.496704	854.481262	11.809098
777.685303	720.067627	1867.004395	854.629883	11.732317
777.998962	724.674377	1862.100586	849.502991	10.974655
778.312500	730.172852	1845.902710	855.447266	11.228024
778.626038	726.309082	1840.849976	846.828125	10.813335
778.939453	726.383362	1832.305176	852.103577	11.367911
779.252869	722.593994	1841.741577	852.772278	11.631914
779.566223	722.965515	1839.215210	852.549377	11.608859
779.879578	723.262695	1839.438110	851.434875	11.483157
780.192749	718.433044	1836.094727	848.314148	11.620790
780.505920	712.711670	1845.011108	848.759949	12.015221
780.819031	708.773621	1845.902466	849.205750	12.349710
781.132141	713.231750	1843.079102	848.462708	11.968958
781.445190	718.730164	1834.162720	844.598938	11.284301
781.758118	721.776611	1820.639648	840.140869	10.771521
782.071045	726.086182	1805.036133	836.574402	10.240347
782.383911	723.485596	1777.543945	835.757019	10.651348
782.696838	723.559875	1755.178833	827.732422	10.097968
783.009583	723.485596	1743.958984	832.562012	10.688806
783.322266	727.349365	1733.705444	830.927307	10.292375
783.634888	725.045959	1727.909790	822.456848	9.713272
783.947510	720.885010	1709.036987	810.716980	9.090906
784.260132	719.176025	1696.033813	804.698486	8.754852
784.572571	724.897278	1693.136108	804.847107	8.257242
784.885010	727.720886	1695.067993	807.521973	8.249478
785.197449	726.532043	1693.061890	814.506531	9.102098
785.509766	725.268860	1684.219727	816.215393	9.483962
785.822083	723.262695	1676.640991	813.837708	9.500427
786.134277	724.302917	1673.223022	815.918152	9.654684
786.446533	725.343079	1663.192017	822.605408	10.370789
786.758606	723.411194	1653.384155	824.165710	10.834134
787.070740	722.222412	1655.984741	820.376282	10.511655
787.382690	723.039795	1671.439819	816.809753	9.887174
787.694641	722.148132	1684.888550	821.565186	10.326465
788.006653	720.141907	1704.058594	824.091492	10.564877
788.318481	711.299988	1726.200806	821.639465	10.871947
788.630310	707.658997	1755.921875	822.828308	10.986682
788.942017	712.637390	1779.327271	822.382507	10.288381
789.253784	714.420654	1801.246460	827.212219	10.378072
789.565430	721.628113	1799.537598	822.456848	9.354101
789.877014	716.649719	1792.478882	822.382568	9.828034
790.188538	720.364807	1784.082642	825.503235	9.884053
790.500061	715.981018	1781.036255	824.165771	10.157666
790.811462	718.432922	1755.996216	817.255615	9.524498
791.122925	716.426758	1723.228882	809.007996	9.195575
791.434204	715.906738	1680.950562	812.203064	9.978440
791.745483	718.210144	1655.315918	812.277344	10.038055
792.056702	716.946960	1628.715698	810.048279	10.211067
792.367920	719.844727	1615.192383	807.373352	9.775937
792.678955	720.439209	1604.046997	806.927551	9.788092
792.990112	722.371094	1586.437378	811.831543	10.353424
793.301086	718.284424	1575.960571	810.865540	10.794415
793.612122	715.906738	1567.564453	816.735535	11.839122
793.922974	716.946960	1570.462280	809.379578	10.829638
794.233826	720.885010	1569.719238	813.614807	10.924371
794.544556	724.748779	1565.855469	805.441467	9.593633
794.855286	721.851013	1556.939087	808.116394	10.330093
795.166016	719.547607	1552.406616	795.930664	9.171187
795.476624	715.906738	1565.186646	799.571594	9.851270
795.787292	725.937561	1581.533569	801.800598	8.866689
796.097778	727.943665	1603.304077	803.509583	8.632549
796.408264	724.302917	1614.895386	796.599426	8.117799
796.718689	713.454773	1619.873535	797.416809	9.263051
797.029053	711.299988	1624.851929	799.200134	9.621800
797.339355	719.101746	1620.988159	803.435364	9.350802
797.649658	720.216309	1621.508301	803.063782	9.192080
797.959839	719.027405	1616.158569	803.286621	9.392074
798.270020	710.556946	1594.685059	800.537415	10.177311
798.580078	711.894348	1586.140259	795.930725	9.612441
798.890137	721.850891	1571.725586	787.906006	7.772336
799.200195	722.965515	1572.097046	788.351868	7.700380
799.510071	727.423645	1559.837036	793.181641	7.899680
799.820007	721.256531	1553.149780	800.983398	9.583786
800.129883	723.931396	1542.524536	802.097900	9.548883
800.439575	716.129639	1531.156250	801.726318	10.502317
800.749329	714.272034	1515.403931	792.364197	9.747728
801.058960	713.380432	1502.698242	789.912170	9.695934
801.368591	723.559875	1491.998657	788.723450	8.479996
801.678162	723.634216	1485.311401	789.763672	8.682084
801.987671	728.240967	1482.190552	788.351868	7.972801
802.297119	726.531982	1478.772827	776.091980	6.588315
802.606506	729.058289	1467.553101	778.098145	6.640515
802.915894	725.491760	1467.478882	776.834961	6.919689
803.225159	723.485596	1465.323853	780.104309	7.632218
803.534424	722.148132	1464.803711	774.457214	7.043519
803.843628	721.256531	1459.528320	777.949463	7.679141
804.152771	722.891174	1455.887329	782.704895	8.160169
804.461792	728.092285	1461.088501	787.757507	8.139909
804.770874	731.361633	1463.317749	783.002014	7.055120
805.079773	731.435852	1462.723267	780.624329	6.726285
805.388733	727.572205	1467.627319	784.116638	7.640571
805.697571	726.977783	1472.382813	784.488098	7.715311
806.006470	721.107910	1484.791382	785.528320	8.435486
806.315125	722.296814	1484.122559	772.079590	6.534667
806.623901	718.433044	1489.323730	773.639954	7.161445
806.932495	718.284424	1495.639526	775.423157	7.350403
807.241150	717.467041	1497.571289	785.305481	8.696074
807.549622	722.593994	1483.453735	783.745117	8.037108
807.858154	724.525879	1465.026733	775.423157	6.873358
808.166565	722.073792	1461.534546	776.314880	7.335222
808.474915	719.027405	1463.094727	779.584167	8.138614
808.783264	717.541321	1456.333374	788.128967	9.554467
809.091492	716.426758	1436.791870	787.014404	9.798871
809.399719	710.036804	1420.370728	790.878113	11.380747
809.707825	710.259766	1408.854004	787.906067	11.114650
810.015930	709.962585	1403.058472	787.980286	11.256408
810.323975	714.569275	1394.067749	781.664612	9.874244
810.632080	717.169922	1385.894409	777.503662	9.022212
810.939880	715.906738	1380.247437	771.782288	8.410677
811.247864	719.176086	1376.458008	766.209656	7.155768
811.555664	715.312317	1370.067871	765.763855	7.705400
811.863464	718.655945	1365.535522	766.283997	7.362739
812.171143	717.987122	1360.185669	769.924805	8.087481
812.478882	721.702393	1355.207397	769.924805	7.612002
812.786438	729.132629	1343.244629	772.376770	7.041735
813.094055	728.686768	1335.740112	774.011414	7.466337
813.401489	724.971680	1330.687500	776.834961	8.562312
813.708984	712.934570	1336.928955	770.444885	9.216479
814.016357	711.002747	1340.421143	774.457275	10.081454
814.323730	712.934631	1339.009399	772.302490	9.482551
814.630981	717.690002	1333.362305	780.327148	10.173780
814.938232	723.188477	1335.517212	769.479004	7.559751
815.245361	725.566101	1328.607056	767.398499	6.936908
815.552490	727.126465	1329.721558	761.677246	5.733665
815.859619	731.881836	1317.907349	762.643127	5.249139
816.166565	734.259521	1333.436646	766.432617	5.369547
816.473572	735.894226	1332.099243	772.674011	6.168983
816.780457	731.807556	1338.340576	769.999084	6.296694
817.087341	723.188477	1339.083618	763.906311	6.611164
817.394043	718.135925	1345.622192	757.664856	6.299569
817.700806	712.488831	1350.823608	760.191223	7.472943
818.007507	715.238037	1354.984497	758.928040	6.829268
818.314209	721.330872	1368.136108	756.921875	5.502584
818.620667	720.736389	1375.640625	762.494446	6.376208
818.927246	723.188416	1398.377075	767.398438	6.547803
819.233704	718.433044	1421.188110	765.615234	6.713888
819.540161	717.095642	1462.128906	764.203430	6.322911
819.846497	724.154297	1503.366821	776.017578	6.655858
820.152832	730.618652	1562.363281	784.339539	6.458820
820.458984	732.773438	1626.932251	780.104248	5.293334
820.765259	725.640442	1703.018433	778.692566	5.428005
821.071350	722.668274	1804.218628	787.757507	6.018142
821.377502	723.039734	1981.504883	809.899658	6.902053
821.683472	729.132568	2318.021973	829.812805	6.336516
821.989441	729.058289	2887.626709	853.366699	5.758836
822.295349	730.024231	3683.111572	891.186768	5.457425
822.601196	717.689941	4560.180176	937.848938	5.729591
822.907043	718.953125	5306.031250	979.978516	5.690450
823.212769	721.107910	5732.157715	997.885559	5.523346
823.518494	730.024231	5798.807129	997.513977	5.277199
823.824097	724.525879	5548.406738	992.015625	5.545115
824.129700	719.250305	5146.726563	966.901367	5.593504
824.435242	716.203918	4710.049316	939.260742	5.585014
824.740723	712.860352	4339.501953	907.459167	5.365813
825.046082	714.792175	3989.610352	887.323059	5.268411
825.351501	710.556885	3629.390625	863.323303	5.233817
825.656799	717.169922	3272.514893	843.781738	4.954784
825.962036	715.089355	2960.294922	828.326721	5.043519
826.267212	717.912903	2731.962158	808.785156	4.511918
826.572449	723.634216	2600.075195	804.029724	4.284468
826.877502	723.411316	2598.143311	812.128723	4.732272
827.182495	723.114075	2704.693359	835.757019	5.684504
827.487488	715.758118	2865.707275	839.546448	5.757733
827.792419	722.668274	2992.839111	849.057190	5.567375
828.097290	721.627991	3029.247803	836.128601	4.961849
828.402100	726.383362	2953.310303	838.803406	5.048214
828.706848	726.754944	2802.401611	820.227722	4.503309
829.011597	720.067688	2617.833740	813.020325	4.898003
829.316223	712.414551	2437.797852	797.714050	4.943800
829.620789	713.900574	2280.647705	794.221863	5.126628
829.925354	725.194580	2131.596436	790.432312	4.638627
830.229797	724.377258	2002.755493	788.426086	5.010163
830.534302	713.677551	1866.038696	776.314758	5.435554
830.838562	707.287598	1746.634155	767.249939	5.769235
831.142944	715.163757	1625.372070	758.705078	4.783666
831.447144	717.987244	1534.499878	762.122986	5.405396
831.751404	727.126465	1480.704590	767.101257	5.304665
832.055542	720.959290	1444.593384	777.800842	7.855013
832.359619	727.497986	1436.123047	771.856628	6.259819
832.663635	726.977783	1435.751343	770.147766	6.090800
832.967651	732.922058	1466.438477	762.791748	4.072123
833.271545	729.875671	1530.933228	771.336609	5.175775
833.575439	729.801270	1645.731079	773.937195	4.818702
833.879211	726.457703	1798.125854	783.373596	5.310962
834.183044	727.795166	1952.972656	781.961853	4.421130
834.486694	726.309082	2052.538330	789.615051	4.773381
834.790344	730.172852	2090.507080	793.330139	4.642777
835.093933	725.194580	2058.779541	793.924622	5.153780
835.397522	721.628113	2002.384155	786.717224	5.082085
835.700928	709.962585	1930.756226	776.314758	5.435167
836.004395	713.157532	1857.270874	774.828796	5.390311
836.307739	710.705566	1778.361328	771.782288	5.720638
836.611023	717.689941	1702.795410	778.246765	6.147243
836.914307	718.210144	1628.195679	772.228210	5.936146
837.217529	726.234802	1551.589478	771.485168	5.482536
837.520691	729.058289	1462.872070	759.150940	4.100857
837.823730	726.234680	1389.386597	754.767090	4.302545
838.126831	724.674500	1326.006470	750.011719	4.213516
838.429749	727.869446	1286.328735	751.794922	4.284194
838.732727	729.429871	1258.465210	751.943542	4.255608
839.035522	721.999573	1240.335327	747.856873	4.988523
839.338379	717.467102	1228.001099	745.553528	5.501382
839.641113	720.142090	1223.988647	745.404968	5.014002
839.943848	723.262695	1249.994629	749.045715	4.894904
840.246460	725.194580	1278.972778	744.067383	3.408008
840.549072	722.519714	1313.597778	741.243958	3.167812
840.851563	725.045959	1318.427490	742.284180	2.905082
841.154053	726.160461	1320.730835	743.250183	2.874298
841.456482	728.315247	1298.514282	745.033386	2.931983
841.758850	735.522644	1278.006836	745.702148	1.876461
842.061157	737.008728	1251.257813	750.457520	2.615229
842.363403	739.906494	1226.886597	747.708313	1.602082
842.665588	727.869446	1210.762939	741.912659	2.908139
842.967712	721.033630	1190.032471	736.117004	3.216079
843.269775	717.021301	1166.329834	739.460632	4.994192
843.571777	721.182312	1141.587036	744.364685	5.514299
843.873840	723.782898	1119.964844	747.559753	6.001499
844.175659	721.182312	1104.584351	746.073669	6.492234
844.477600	722.816895	1086.380005	747.931213	6.907829
844.779297	730.024231	1070.776489	745.776428	4.622771
845.081116	735.076843	1061.117188	742.729980	2.347298
845.382751	735.448303	1045.290527	740.055176	1.486845
845.684387	730.767273	1037.191650	733.665039	0.945671
845.985962	722.073914	1027.829590	742.432800	6.658547
846.287537	722.371033	1026.863525	743.473083	6.930237
846.588989	714.197754	1014.455078	747.559631	11.111095
846.890381	716.649719	999.817444	744.364685	9.787474
847.191711	713.380432	996.325195	744.216064	10.898110
847.493042	717.912903	994.467590	743.250183	9.161761
847.794250	723.931458	1001.377747	743.547363	7.070163
848.095459	724.080017	994.467712	736.934387	4.754051
848.396606	725.640320	989.489319	741.392578	5.970179
848.697693	722.445313	982.207703	744.067444	8.323812
848.998657	726.532043	979.384216	747.931213	8.463115
849.299622	722.371094	988.746338	748.599915	9.846568
849.600464	726.160583	991.049744	744.438965	6.900389
849.901367	724.525879	993.353027	738.049011	5.030419
850.202087	729.058350	982.059021	741.392578	4.875176
850.502808	732.476257	978.715393	734.259521	0.724200
850.803467	731.213074	970.987976	745.479187	5.949794
851.104065	722.742615	967.049988	737.305847	5.961029
851.404663	716.947021	966.455566	743.844543	10.780201
851.705139	720.216309	966.604187	739.386414	7.780458
852.005615	728.315247	972.474060	736.042725	3.164939
852.306030	727.497864	975.148926	733.219238	2.310256
852.606384	728.166687	977.006531	731.138733	1.194361
852.906616	730.470032	975.966248	732.476257	0.817212
853.206909	731.584656	967.867188	737.157288	2.358461
853.506958	728.835449	962.888977	736.785828	3.396821
853.807129	720.587830	964.597900	738.049011	7.155927
854.107178	713.231873	967.644348	733.665039	8.031511
854.407166	714.717834	971.582336	732.773438	7.029233
854.707092	717.095520	975.446106	733.887939	6.499857
855.007019	725.863281	980.201477	733.070618	2.833761
855.306763	727.200745	978.492493	726.977783	-0.088726
855.606567	727.349365	967.346985	725.194580	-0.897836
855.906250	724.600159	956.573181	723.114075	-0.640628
856.205933	721.553711	951.149109	729.355530	3.398073
856.505493	721.999512	950.257507	731.138733	4.003900
856.805054	716.872742	950.183289	731.584656	6.305722
857.104492	711.002747	955.310059	730.544373	7.998789
857.403931	708.253601	953.675476	727.423645	7.811058
857.703308	706.544617	951.223389	728.761047	9.079836
858.002563	707.659180	948.845703	729.058289	8.872432
858.301819	706.916199	954.864258	736.265625	11.836926
858.601013	711.299988	954.715637	733.516418	9.126952
858.900208	714.272034	947.434021	733.293640	8.158108
859.199219	722.742493	942.009949	726.977844	1.931592
859.498291	728.240967	942.158508	727.200745	-0.486272
859.797302	731.733215	947.954102	722.593994	-4.226799
860.096191	726.829163	947.285339	727.275085	0.202273
860.395020	728.389587	945.799316	730.692932	1.059449
860.693787	728.240967	935.694153	742.507080	6.876787
860.992554	727.795166	939.780823	740.723877	6.098861
861.291260	724.748718	946.690918	740.278015	6.997001
861.589844	722.222412	951.372070	731.658875	4.118035
861.888428	718.730164	949.588684	731.733215	5.632476
862.186890	722.222412	949.068604	730.915833	3.832297
862.485413	718.953125	957.687744	732.773438	5.788986
862.783813	719.621887	951.669250	728.984070	4.034600
863.082153	707.807800	948.994385	733.070618	10.474387
863.380371	711.299988	941.341125	736.042786	10.755815
863.678589	713.826233	955.310059	733.442200	8.123097
863.976746	721.033508	951.966492	740.352295	8.365538
864.274902	724.005676	961.031433	733.219238	3.887156
864.572937	727.869446	954.046936	735.968445	3.580816
864.870911	731.138733	961.774414	724.525818	-2.867256
865.168884	726.903503	953.080994	726.309082	-0.262812
865.466736	722.148132	950.406067	728.166687	2.636734
865.764587	715.832336	939.632141	734.185242	8.200590
866.062317	715.609436	942.752930	734.185242	8.178004
866.360107	717.169922	946.542419	734.408020	7.515329
866.657715	717.987244	950.628967	732.550537	6.259966
866.955322	719.398926	946.690918	730.990173	5.099717
867.252808	726.903503	955.532959	738.123230	4.907384
867.550293	726.903503	956.498840	738.717590	5.145613
867.847717	728.315247	965.043762	737.751709	3.986196
868.145081	726.606262	957.241943	730.544250	1.707450
868.442383	728.909668	960.362732	726.160461	-1.187803
868.739624	724.080017	955.830139	728.240967	1.795447
869.036804	728.315247	949.440186	731.361633	1.377677
869.333984	732.996399	951.223450	732.699158	-0.136207
869.631042	739.089172	951.892273	730.098572	-4.224845
869.928101	734.333801	956.350342	730.990234	-1.505999
870.224976	728.240967	953.155273	728.984070	0.330394
870.521851	728.686768	955.458679	733.145020	1.965963
870.818726	725.640381	963.260498	728.612488	1.250781
871.115479	735.522644	960.659912	729.058289	-2.871295
871.412231	731.287354	960.362732	729.726990	-0.681157
871.708862	730.395752	949.811707	731.881836	0.677291
872.005493	723.262695	951.297668	727.349365	1.792124
872.302063	727.572266	944.239014	731.881836	1.989032
872.598572	726.234802	944.090332	728.092346	0.852649
872.895020	725.566101	945.725098	727.572266	0.911234
873.191406	725.937561	958.059265	726.457703	0.224081
873.487671	731.064453	969.353271	727.052063	-1.683835
873.783997	727.423584	976.114746	732.327637	1.971945
874.080200	721.182190	979.681335	733.813660	4.886465
874.376343	716.649719	975.074646	729.578430	5.002889
874.672424	717.541321	980.870178	726.383362	3.357794
874.968445	721.330811	975.817566	723.782776	0.963494
875.264465	721.776611	974.628723	727.275085	2.174581
875.560364	720.439148	966.083984	733.293640	5.232958
875.856201	718.878845	966.232605	731.510254	5.106617
876.152039	723.559875	977.823792	730.990234	2.922302
876.447754	725.491760	980.647278	727.126465	0.640670
876.743469	724.897400	984.808167	725.045898	0.057134
877.039063	724.823059	979.161194	725.194519	0.146050
877.334595	725.937561	977.229309	727.349365	0.561819
877.630127	723.708496	974.257324	724.971680	0.504167
877.925537	717.912903	976.932190	727.720886	3.786584
878.221008	722.965515	988.523438	733.590759	4.001102
878.516296	727.275085	994.021790	737.751709	3.927555
878.811646	730.395752	1004.201233	732.847717	0.895514
879.106812	732.996338	1007.470520	734.556702	0.568492
879.401978	731.436035	1029.464233	737.603088	2.069285
879.697083	738.940613	1037.265991	740.872375	0.647536
879.992126	738.346130	1066.987183	734.408142	-1.198264
880.287109	740.872375	1101.166382	732.179016	-2.412852
880.582031	739.014893	1181.413208	736.934387	-0.470279
880.876892	732.179016	1319.393433	738.569092	1.088201
881.171753	729.429871	1551.217773	745.553467	1.962014
881.466492	727.572266	1895.610962	757.887756	2.595418
881.761230	731.287415	2294.765381	771.782410	2.590059
882.055786	728.761169	2692.136230	779.807068	2.599906
882.350403	720.587830	2960.591797	781.441711	2.716686
882.644958	710.854187	3076.058350	776.017578	2.755085
882.939453	710.482666	3036.306641	773.119812	2.693116
883.233826	714.940735	2931.762695	763.460449	2.188706
883.528137	715.386536	2791.033203	760.711243	2.183643
883.822449	722.742493	2661.671875	756.921814	1.762793
884.116577	722.073792	2520.794189	759.373840	2.073699
884.410828	724.525818	2387.346436	758.927979	2.068904
884.704956	723.411316	2223.063232	759.373840	2.398058
884.999023	726.977844	2021.925659	758.259277	2.415652
885.292969	726.234680	1813.432251	758.407898	2.959280
885.586914	712.042969	1617.198608	759.745300	5.270070
885.880798	708.773621	1472.457031	750.531738	5.467988
886.174622	709.145203	1361.448730	743.027161	5.194201
886.468384	717.838623	1289.003540	734.928223	2.992060
886.762085	718.358704	1242.192871	735.002502	3.177303
887.055664	718.655945	1201.772095	741.541199	4.737009
887.349304	715.089355	1164.323608	745.553528	6.781356
887.642822	704.984192	1129.029907	752.166443	11.126690
887.936340	705.058533	1114.838013	750.383240	11.060756
888.229736	705.504333	1097.079590	745.256348	10.151820
888.523071	716.055359	1079.395630	739.906494	6.564407
888.816284	719.993347	1046.925293	737.603088	5.386363
889.109619	725.640381	1033.402222	738.494812	4.176746
889.402710	727.943665	1024.040161	739.609314	3.939813
889.695862	732.847717	1015.123779	740.946777	2.869198
889.988892	732.401855	1005.613098	742.061279	3.535515
890.281921	722.668274	1003.755493	741.615417	6.740664
>>>>>End Processed Spectral Data<<<<<
