Jaz Data File
++++++++++++++++++++++++++++++++++++
Date: Fri Jun 04 16:55:46 2021
User: jaz
Dark Spectrum Present: Yes
Reference Spectrum Present: Yes
Processed Spectrum Present: Yes
Spectrometers: JAZA3586
Integration Time (usec): 26900 (JAZA3586)
Spectra Averaged: 10 (JAZA3586)
Boxcar Smoothing: 1 (JAZA3586)
Correct for Electrical Dark: No (JAZA3586)
Strobe/Lamp Enabled: Yes (JAZA3586)
Correct for Detector Non-linearity: No (JAZA3586)
Correct for Stray Light: No (JAZA3586)
Number of Pixels in Processed Spectrum: 2048
>>>>>Begin Processed Spectral Data<<<<<
W	D	R	S	P
191.335022	0.000000	0.000000	0.000000	0.000000
191.713211	231.824478	223.576904	229.892624	23.423304
192.091385	465.580902	454.658356	464.912109	6.123048
192.469528	703.795410	697.033875	699.411438	64.836929
192.847641	715.832458	712.340149	703.423828	355.313019
193.225739	725.120300	725.268860	710.482666	-9853.040039
193.603790	738.123230	728.761047	717.392761	221.427734
193.981842	739.089172	738.197571	729.578430	1066.703125
194.359863	739.460632	743.324463	736.265686	-82.688568
194.737854	732.624817	745.702148	745.553528	98.863525
195.115829	740.278015	744.216003	751.200500	277.362061
195.493774	746.890930	744.884766	747.782532	-44.443092
195.871704	745.627747	747.856873	750.457520	216.666672
196.249603	741.912598	747.485352	750.234558	149.332993
196.627457	744.661865	747.782532	755.807312	357.149567
197.005310	745.107727	743.175781	751.497742	-330.755371
197.383133	743.324463	743.398743	751.126160	10503.122070
197.760910	734.036621	739.386414	748.525574	270.832062
198.138687	732.327637	735.894104	745.553528	370.840118
198.516449	729.281250	735.299805	736.191406	114.814217
198.894180	729.206848	732.624817	742.284180	382.605347
199.271866	735.299744	734.556641	745.404846	-1359.852173
199.649536	736.934387	730.247070	750.903320	-208.886963
200.027191	736.042725	729.504089	745.776428	-148.864456
200.404816	733.962219	731.361633	745.776428	-454.290283
200.782410	733.367859	754.321289	753.132385	94.325974
201.159988	737.454529	773.788574	752.686523	41.922100
201.537537	735.151123	779.138367	750.085938	33.952602
201.915070	731.658875	774.457275	737.528809	13.715312
202.292557	737.454529	775.943359	734.853943	-6.756729
202.670029	740.426575	783.522217	739.980774	-1.034445
203.047485	742.284180	778.692566	742.952881	1.836668
203.424911	730.098572	769.701904	741.169678	27.954987
203.802292	728.018066	760.042480	739.014893	34.338882
204.179688	728.166687	759.968201	739.683594	36.214966
204.557037	732.699158	756.104492	745.107666	53.015728
204.934357	727.423645	767.547180	746.593750	47.777706
205.311661	730.470032	764.277832	746.668030	47.912014
205.688934	726.383362	771.039368	745.107727	41.930229
206.066177	728.166687	760.711243	746.073547	55.022598
206.443390	717.541321	768.587402	754.544128	72.489029
206.820587	723.039734	772.451111	754.915710	64.511414
207.197769	728.092346	776.166260	752.760925	51.313858
207.574921	731.213074	773.491394	742.655701	27.064999
207.952042	731.510254	767.175598	739.460632	22.291607
208.329147	725.714661	766.581116	732.401917	16.363680
208.706223	728.463867	778.766785	738.866211	20.679405
209.083267	718.730225	781.590332	736.860107	28.841635
209.460297	714.717834	779.509827	734.705322	30.848701
209.837280	715.460876	770.965088	727.275085	21.285248
210.214264	715.163757	768.736023	732.996338	33.286964
210.591217	727.052063	772.748291	739.609314	27.479841
210.968124	728.018066	770.816406	744.290344	38.020817
211.345016	736.637146	770.593567	749.565857	38.074421
211.721893	729.206848	763.386169	747.113831	52.391277
212.098724	721.256531	751.869324	744.141785	74.757156
212.475555	717.467102	755.064270	732.401917	39.723244
212.852356	712.265930	756.847473	727.646484	34.499825
213.229126	721.330750	768.290100	729.504150	17.405268
213.605865	715.609436	765.318054	728.612488	26.158546
213.982590	722.296692	764.946472	732.253235	23.344887
214.359283	716.129639	755.138489	729.429871	34.095421
214.735931	724.005676	754.321228	729.875671	19.362984
215.112579	722.296814	755.807312	732.624817	30.820202
215.489197	725.343079	759.225281	737.231628	35.087891
215.865799	720.439148	750.531738	737.974609	58.271690
216.242355	717.021301	753.875488	738.643311	58.669071
216.618896	712.934631	757.144714	744.661926	71.764839
216.995407	711.968689	766.283997	747.485352	65.389786
217.371902	714.049133	764.872253	752.909485	76.461952
217.748367	719.621826	759.893860	748.525635	71.771416
218.124802	722.891113	757.441895	748.451355	73.978767
218.501236	721.256531	755.064270	744.364563	68.351311
218.877609	711.299988	755.212891	733.516418	50.592033
219.253983	714.123352	758.333496	727.126465	29.412058
219.630295	715.312256	760.562683	728.389587	28.899908
220.006592	720.216309	758.556458	732.624817	32.364269
220.382889	716.946960	753.875427	742.804260	70.019966
220.759140	720.662109	754.841309	736.637207	46.739239
221.135391	726.383484	756.996094	739.386414	42.475731
221.511581	726.754944	762.866028	741.392578	40.535019
221.887772	727.646545	759.893982	740.129395	38.709587
222.263931	728.835388	769.256042	739.163391	25.551300
222.640060	725.788879	762.568848	733.516418	21.010183
223.016159	716.055359	765.838196	737.825989	43.731197
223.392212	713.083191	765.392395	737.083008	45.880676
223.768265	717.912903	772.005310	740.352356	41.483555
224.144302	728.389465	775.348877	742.878662	30.854723
224.520294	722.965393	780.252869	743.844543	36.446274
224.896286	727.126465	777.429382	741.689758	28.951191
225.272217	727.349365	776.091980	742.432861	30.945192
225.648148	729.281189	769.479004	744.810486	38.632191
226.024048	727.349365	766.952698	745.256348	45.215847
226.399902	729.206848	768.884521	743.918762	37.078571
226.775772	731.138733	765.020813	744.513245	39.473701
227.151581	728.240967	774.977356	745.107666	36.089008
227.527374	725.120300	771.485107	738.197571	28.205166
227.903137	725.194580	770.519226	736.711487	25.409811
228.278870	721.776611	765.095154	732.104736	23.842272
228.654572	721.256531	765.689514	736.414246	34.113655
229.030273	723.931396	767.398499	738.494690	33.504173
229.405930	727.646484	770.742188	744.438965	38.965557
229.781555	721.107910	769.999207	747.559570	54.103004
230.157181	719.770508	775.794739	740.649414	37.267635
230.532761	710.334045	776.463379	737.454407	41.011093
230.908325	713.528992	774.605774	737.528809	39.294502
231.283859	714.792175	772.822571	741.838379	46.606960
231.659332	722.519714	766.878357	741.763977	43.383343
232.034821	723.039795	774.011414	741.243958	35.714310
232.410263	719.770508	771.410828	739.609314	38.417278
232.785690	722.148132	770.593506	738.420410	33.588921
233.161087	726.457703	770.742188	741.763977	34.563515
233.536469	723.114075	775.646179	743.324402	38.472336
233.911804	720.810730	776.983582	743.695862	40.740555
234.287140	712.414490	773.045471	740.723816	46.691189
234.662430	713.974854	764.872253	737.454407	46.131145
235.037704	719.027405	758.779358	742.581360	59.252323
235.412933	723.931396	758.556458	741.615417	51.072895
235.788162	727.423645	761.974426	740.723877	38.494736
236.163345	725.343079	769.627625	733.293518	17.953079
236.538513	725.714661	767.398499	735.448303	23.351118
236.913635	722.668213	768.438782	740.649475	39.285645
237.288742	711.076965	767.101318	745.182068	60.875496
237.663834	713.231873	767.992981	739.089172	47.218365
238.038879	718.507324	768.810242	738.866211	40.472576
238.413910	725.640381	770.742126	739.906494	31.630957
238.788910	725.343201	773.194092	741.169617	33.074444
239.163879	730.544250	770.593445	744.438965	34.694118
239.538834	730.841492	773.714172	747.262451	38.301685
239.913757	729.206848	771.336609	749.565857	48.324532
240.288651	717.244141	767.101318	748.377014	62.444115
240.663528	715.312317	772.153870	747.262451	56.209114
241.038361	716.203918	778.098145	744.513245	45.738235
241.413177	722.742615	790.283752	736.562805	20.461885
241.787979	725.268860	781.367432	727.869446	4.635744
242.162735	722.668274	787.831787	728.018066	8.209798
242.537476	718.284363	787.088684	730.247131	17.386652
242.912170	713.974854	802.692383	735.671204	24.455540
243.286865	716.129578	799.868835	735.968445	23.691238
243.661514	723.039734	803.583984	739.609192	20.571869
244.036148	728.612488	795.336365	741.912598	19.933060
244.410751	730.321472	796.079346	741.169617	16.497103
244.785339	719.919128	795.782166	741.095398	27.913816
245.159882	718.804504	802.097839	740.798157	26.405056
245.534378	720.662109	799.571594	737.974609	21.939695
245.908890	727.126465	796.227966	735.299744	11.827932
246.283356	733.813660	792.067078	734.631042	1.403150
246.657791	730.841553	797.862610	741.838379	16.408016
247.032196	723.039734	808.785095	740.649597	20.537395
247.406586	715.386536	814.803650	733.144958	17.862541
247.780960	715.163757	827.732361	730.990234	14.059406
248.155289	719.398926	834.568176	737.900330	16.064535
248.529602	719.919128	839.472168	743.324402	19.577314
248.903870	722.073914	829.367004	746.965332	23.199461
249.278122	722.222412	819.410400	741.169617	19.495419
249.652344	723.336975	813.837646	746.816650	25.944201
250.026550	718.358704	811.905762	740.946716	24.146151
250.400711	725.491760	809.602356	743.324402	21.201422
250.774857	722.593994	807.224670	740.500916	21.158901
251.148987	732.476257	807.967773	743.621643	14.763760
251.523071	727.943665	813.837646	737.157288	10.726739
251.897125	728.612488	814.729309	733.739319	5.953344
252.271164	714.494934	817.701416	733.219238	18.142567
252.645187	711.597168	816.735535	737.751709	24.876305
253.019165	708.402161	820.896484	739.163513	27.344805
253.393112	713.826233	816.958435	743.993164	29.250738
253.767044	714.346375	815.175110	741.392517	26.823843
254.140930	725.788879	804.401306	736.934326	14.177716
254.514801	718.878845	802.246399	732.104675	15.864481
254.888657	724.897400	800.166016	732.847717	10.562593
255.262466	723.411316	812.128723	739.163513	17.755476
255.636276	735.002502	815.546692	748.451355	16.697483
256.010010	733.070618	822.159668	754.841370	24.437069
256.383759	724.377258	826.172058	756.327393	31.386805
256.757446	720.885010	830.630127	747.931152	24.644506
257.131134	715.758118	831.521790	743.250183	23.748440
257.504791	719.398987	829.887024	743.175781	21.519791
257.878418	715.832458	836.871582	743.398682	22.774639
258.252014	714.569336	855.595886	748.005554	23.709166
258.625580	715.832458	871.050781	749.268555	21.541334
258.999115	721.330811	893.861633	755.807312	19.982807
259.372650	726.086243	902.778015	748.228333	12.531478
259.746124	720.067688	921.502380	739.386414	9.590566
260.119598	710.408264	937.254578	728.018066	7.762878
260.493042	706.990417	950.851990	726.234802	7.891520
260.866425	711.076965	960.511292	733.590759	9.025941
261.239838	715.683777	950.926270	739.757874	10.233736
261.613159	717.392761	937.403137	744.364746	12.259415
261.986511	721.107910	912.288879	746.296570	13.175297
262.359802	725.566101	896.536621	744.438965	11.038666
262.733063	730.024231	886.431458	749.194336	12.256534
263.106293	729.355530	886.208557	745.330566	10.184717
263.479523	736.562805	884.351013	741.020996	3.016608
263.852692	732.922058	881.304504	738.420410	3.705527
264.225861	729.875671	881.378845	734.185242	2.844541
264.598969	722.296692	882.864807	741.615417	12.031483
264.972076	723.857117	890.666687	745.479187	12.962129
265.345154	729.652649	891.261169	755.807312	16.183964
265.718201	730.544373	903.966980	750.828918	11.696598
266.091217	731.138733	914.517883	754.989990	13.006526
266.464203	722.965515	928.189514	747.485413	11.947870
266.837158	721.627991	936.065674	749.417236	12.959125
267.210114	721.405090	947.582520	745.553528	10.676767
267.583038	724.228577	962.666016	742.655762	7.728310
267.955902	724.080017	965.563782	750.160339	10.800032
268.328766	725.640381	974.405945	746.965271	8.572284
268.701569	725.863281	967.421387	743.844543	7.443866
269.074371	726.309143	971.508057	738.791931	5.090882
269.447144	719.250427	972.845459	735.225403	6.299404
269.819885	716.872620	988.374756	738.643311	8.018607
270.192596	714.866516	994.096008	734.333801	6.971787
270.565277	723.411316	1006.727539	732.327637	3.147127
270.937927	724.971680	1021.662354	733.144958	2.754815
271.310577	726.606384	1053.241089	735.819824	2.820717
271.683136	717.318542	1078.652588	745.404846	7.772947
272.055725	720.810730	1106.218872	749.342957	7.403120
272.428284	715.609558	1112.757568	750.383118	8.755818
272.800812	724.302917	1114.540894	750.085938	6.606999
273.173279	719.844788	1101.314941	751.869324	8.395031
273.545776	726.457703	1109.116699	753.206726	6.990303
273.918152	720.885071	1102.057983	754.098328	8.713436
274.290558	720.885071	1099.828979	747.188171	6.941159
274.662964	715.683838	1084.076782	739.237793	6.393704
275.035278	720.067688	1082.293457	737.157288	4.717941
275.407593	720.513489	1095.073486	742.284180	5.812337
275.779907	721.851013	1107.779175	748.228333	6.834774
276.152161	716.798340	1123.234253	746.370789	7.276042
276.524384	714.494934	1127.692383	748.154114	8.146028
276.896606	721.107910	1147.828491	745.553528	5.728718
277.268799	714.643555	1161.128540	743.250183	6.407075
277.640930	720.141907	1172.496948	738.717590	4.106439
278.013031	714.346375	1163.432007	744.513245	6.717398
278.385162	719.250305	1164.843750	739.906494	4.635658
278.757233	711.077148	1162.688843	742.581360	6.975951
279.129272	711.671448	1175.171875	743.770203	6.925292
279.501282	714.717957	1186.540161	750.977539	7.685010
279.873230	717.838562	1203.778320	741.541199	4.877690
280.245178	719.027405	1222.576904	736.934387	3.556151
280.617126	719.324646	1243.827515	738.940613	3.739916
280.988983	716.872620	1269.610474	746.519470	5.363637
281.360870	706.470276	1287.369019	740.055115	5.781531
281.732697	702.755188	1313.597778	732.327637	4.841255
282.104492	705.801575	1338.414917	734.110840	4.474971
282.476288	714.272034	1366.204102	744.810486	4.684300
282.848053	720.587708	1385.151367	753.503906	4.953054
283.219757	722.668213	1396.891113	753.578186	4.584533
283.591461	726.829163	1403.801392	748.897156	3.259808
283.963135	723.039795	1399.640259	748.525635	3.766749
284.334747	714.940735	1397.114258	751.349121	5.337115
284.706360	710.259766	1418.884766	747.188171	5.211276
285.077942	707.287598	1453.658325	740.575195	4.459928
285.449524	716.129639	1487.540405	735.151123	2.465805
285.821014	716.352539	1496.828125	733.516418	2.199157
286.192535	722.965515	1511.985962	736.637207	1.732742
286.563995	717.764343	1537.397827	739.237793	2.619884
286.935425	714.866455	1566.152832	742.655701	3.264383
287.306824	715.683777	1568.233398	747.856873	3.773751
287.678223	723.931458	1554.561523	747.262451	2.808831
288.049561	734.036621	1536.208618	752.166504	2.260099
288.420898	732.179016	1520.530884	748.674255	2.092370
288.792145	736.191345	1516.221191	750.977600	1.895601
289.163452	732.401917	1522.239868	749.120056	2.116654
289.534668	730.321472	1549.731812	745.033386	1.795427
289.905914	723.114075	1576.852173	740.500977	2.036561
290.277039	723.857117	1612.963379	745.330566	2.415173
290.648193	728.092346	1651.526733	752.909485	2.687483
291.019318	730.915833	1693.804810	756.624573	2.669959
291.390381	735.002502	1715.575562	751.274841	1.659472
291.761475	732.253418	1715.798462	743.621582	1.155836
292.132507	726.532043	1702.795410	746.147949	2.009284
292.503510	714.866455	1689.049438	753.355286	3.950883
292.874481	718.061523	1673.297363	760.859863	4.480395
293.245422	722.073914	1679.390137	757.590515	3.710018
293.616364	729.206848	1696.331055	752.166443	2.374007
293.987213	726.606384	1740.095337	754.618469	2.763926
294.358093	732.104736	1787.277710	752.835205	1.964651
294.728943	730.321472	1849.469116	755.955872	2.290529
295.099731	727.126404	1901.629761	753.058044	2.207881
295.470490	715.535156	1936.254517	755.955872	3.311221
295.841248	717.541443	1960.402954	751.497742	2.732106
296.211975	719.176086	1987.300659	747.559753	2.238240
296.582642	726.160583	2035.077271	743.993164	1.362392
296.953308	721.033630	2082.185059	749.120056	2.063432
297.323883	721.405090	2127.063965	746.445129	1.781374
297.694519	728.538147	2156.041992	749.120056	1.441811
298.065063	728.686768	2159.757324	746.667969	1.256486
298.435608	727.423645	2126.915527	758.259277	2.203345
298.806122	718.581604	2070.148193	752.463623	2.506870
299.176575	720.959290	2008.774048	751.943542	2.405956
299.547028	722.148132	1959.139771	741.689758	1.579770
299.917450	719.993408	1933.356812	750.160339	2.486224
300.287872	718.358704	1927.486938	747.039551	2.372027
300.658234	720.587830	1937.443359	752.017883	2.582891
301.028564	724.897278	1937.963501	756.104553	2.572595
301.398865	726.903503	1928.973022	753.949707	2.249970
301.769135	726.309082	1923.474487	748.302734	1.837144
302.139374	724.971680	1919.684937	739.460693	1.212761
302.509583	726.383362	1928.601196	742.135559	1.310262
302.879791	721.330872	1935.362915	745.850769	2.019708
303.249939	719.621887	1935.140137	755.807312	2.976954
303.620087	721.107910	1923.103027	756.624695	2.954819
303.990173	724.748779	1904.898926	759.373779	2.933949
304.360260	730.172852	1898.880249	752.166443	1.881873
304.730286	730.098450	1904.973145	748.599915	1.574761
305.100281	730.395691	1913.369141	741.838379	0.967282
305.470276	730.990173	1928.972778	742.655762	0.973769
305.840179	732.253235	1952.229492	740.946777	0.712599
306.210144	730.024231	1976.675171	742.952942	1.037076
306.579987	717.392822	1995.325195	739.163513	1.703587
306.949890	706.990417	2007.213501	741.095276	2.623000
307.319702	711.745789	2022.445679	745.553467	2.579361
307.689484	723.039795	2038.420898	746.445129	1.779358
308.059265	732.327637	2069.256592	748.525635	1.211583
308.429016	731.733215	2112.723633	751.349121	1.420423
308.798737	725.714661	2176.103760	754.098328	1.956969
309.168396	725.343079	2225.069336	756.253113	2.061045
309.538055	722.445313	2266.381592	752.017883	1.915401
309.907684	728.538086	2287.409180	752.017822	1.506201
310.277313	731.658875	2309.997314	756.178772	1.553526
310.646851	731.213074	2330.578857	757.367676	1.635311
311.016388	728.463867	2347.594482	758.779480	1.872339
311.385895	728.686768	2351.606689	754.544128	1.593262
311.755371	736.340027	2347.446045	752.092102	0.977718
312.124817	738.717590	2346.554443	743.101563	0.272663
312.494232	730.544373	2348.263184	741.318298	0.665995
312.863617	721.627991	2345.588135	740.723877	1.175884
313.232971	714.049133	2341.947510	746.593750	1.999180
313.602295	716.946960	2323.817627	746.593750	1.845002
313.971619	716.501160	2323.817627	747.188171	1.909208
314.340820	712.414551	2321.216797	748.451233	2.239970
314.710083	709.516663	2363.718018	749.268555	2.403087
315.079285	708.402161	2404.213135	751.497742	2.541296
315.448486	721.776672	2449.389160	749.342957	1.595629
315.817596	720.587830	2450.132080	752.389343	1.838722
316.186707	724.080078	2408.299805	749.714417	1.522030
316.555786	720.216309	2353.167236	745.553528	1.551622
316.924866	722.222473	2305.687744	744.216003	1.388949
317.293884	727.423645	2294.170654	738.643372	0.716116
317.662872	730.172852	2293.502197	747.262451	1.093154
318.031830	722.445313	2310.517578	749.120117	1.679697
318.400757	720.587830	2319.730713	755.510071	2.183810
318.769684	721.999512	2331.544922	745.033447	1.431083
319.138550	728.241028	2346.405518	743.770264	0.959682
319.507416	724.228699	2373.006104	738.940613	0.892292
319.876190	720.141907	2386.529053	745.999329	1.551705
320.244995	722.073792	2386.157715	747.708313	1.540458
320.613770	722.371094	2358.962891	758.705078	2.220101
320.982483	721.702332	2338.529541	767.992981	2.863055
321.351166	722.222473	2316.684570	758.036377	2.246143
321.719818	720.067688	2313.638428	753.949707	2.126170
322.088440	717.764343	2317.873291	749.194336	1.964241
322.457062	718.878845	2339.124023	761.751465	2.646058
322.825623	720.662109	2375.904053	757.218994	2.208552
323.194183	720.959290	2426.058350	753.503906	1.908664
323.562653	726.829285	2481.042236	753.132385	1.499425
323.931183	731.287415	2549.697754	752.017883	1.140032
324.299591	732.922058	2615.084229	754.618408	1.152735
324.668060	726.606262	2674.452393	755.435791	1.480072
325.036407	721.033630	2709.597412	763.014648	2.111123
325.404755	719.547546	2731.887939	765.020813	2.259721
325.773102	719.398926	2742.364502	759.596680	1.987071
326.141388	726.457703	2746.897217	758.036438	1.562964
326.509674	732.030457	2755.739258	754.395508	1.105152
326.877899	729.652649	2772.606201	754.395508	1.211132
327.246124	724.823059	2785.980469	750.977600	1.268925
327.614288	723.485657	2780.853516	757.367676	1.646862
327.982422	726.606384	2765.844482	761.157043	1.694293
328.350525	728.315247	2746.897217	765.318054	1.833109
328.718628	723.634094	2734.340088	762.048645	1.910501
329.086700	719.027405	2743.553711	765.540833	2.297497
329.454712	713.529053	2759.677490	768.587341	2.690826
329.822693	715.238037	2788.209717	765.540955	2.426609
330.190674	714.569336	2805.373779	759.893982	2.167809
330.558563	715.386658	2815.775635	757.962097	2.027026
330.926483	711.077087	2832.568359	753.503906	1.999858
331.294312	714.792175	2861.100586	758.036377	2.014818
331.662231	721.925293	2908.877197	765.615234	1.997755
332.029999	718.581604	2939.044189	770.593506	2.342390
332.397766	715.758057	2981.916748	768.364441	2.321390
332.765503	710.185364	3034.894531	762.791748	2.262923
333.133240	720.364929	3098.572021	771.113586	2.133904
333.500916	720.067688	3149.841064	774.457214	2.238461
333.868561	724.674500	3184.763428	778.841064	2.201813
334.236176	717.169861	3218.050781	776.760559	2.382788
334.603790	722.296692	3227.858643	775.794678	2.135169
334.971344	719.473206	3223.177734	775.720398	2.246559
335.338867	725.640381	3221.765625	782.259033	2.268262
335.706360	723.188416	3228.750244	781.664612	2.333856
336.073853	722.742615	3247.326172	783.150696	2.392794
336.441284	717.764343	3252.230225	785.082520	2.656109
336.808655	718.507324	3247.326172	797.342468	3.117469
337.176086	720.587830	3198.434814	800.983337	3.244571
337.543396	727.869446	3122.200439	799.125732	2.976042
337.910706	729.875549	3040.541748	798.382813	2.964827
338.277954	726.086121	3053.395752	804.624207	3.374630
338.645264	727.126404	3141.073242	816.735535	3.712142
339.012421	729.132568	3283.065674	821.490906	3.616318
339.379669	738.717712	3404.476318	824.983154	3.236056
339.746796	730.172852	3512.809814	820.822083	3.257674
340.113953	736.191406	3596.028564	829.366882	3.258069
340.481018	726.680664	3633.625977	827.286438	3.460876
340.848114	729.058289	3627.830811	834.642395	3.642373
341.215118	716.798340	3621.217529	831.150208	3.937168
341.582153	716.947021	3644.325439	839.917969	4.200719
341.949066	715.758118	3687.792725	846.753845	4.407611
342.316010	713.603333	3700.498291	855.298645	4.743900
342.682922	717.021301	3714.393311	854.258484	4.578584
343.049835	717.467102	3730.516602	857.156250	4.636138
343.416656	720.959290	3780.522217	863.026123	4.643370
343.783478	718.135742	3842.565186	880.487244	5.196197
344.150269	723.411316	3958.180420	888.809082	5.113124
344.516998	726.234802	4094.377686	890.443787	4.875357
344.883728	726.160461	4207.392090	891.112549	4.738326
345.250427	721.999512	4282.214355	896.908203	4.912869
345.617065	719.101746	4321.074707	905.898865	5.185967
345.983704	716.724060	4315.799316	910.356934	5.380073
346.350281	720.290588	4310.895996	913.551941	5.382417
346.716827	717.244141	4260.220703	916.003967	5.609967
347.083405	723.857117	4239.341309	923.731445	5.685542
347.449860	720.810730	4177.596191	927.223633	5.971239
347.816376	720.513489	4125.955566	939.037781	6.416914
348.182770	716.872742	4086.426758	945.427917	6.782950
348.549194	713.677551	4059.306396	951.594910	7.111290
348.915558	716.872559	4086.278320	956.424622	7.109623
349.281921	717.541321	4096.754883	966.529785	7.368237
349.648193	715.014954	4150.327148	974.034363	7.539909
350.014526	718.953125	4186.735840	986.591492	7.717853
350.380737	720.736328	4247.663574	993.278748	7.727475
350.746948	723.634216	4286.003906	1004.795593	7.892538
351.113159	720.736389	4323.377441	1017.278503	8.231242
351.479309	723.708496	4366.250488	1026.714966	8.318544
351.845428	726.160461	4410.906250	1042.987305	8.598336
352.211517	724.600159	4455.934082	1037.191650	8.377473
352.577576	723.188416	4506.162598	1056.213135	8.803251
352.943604	721.330811	4568.205566	1071.668091	9.107062
353.309601	724.600098	4631.139648	1097.971313	9.557594
353.675537	720.959290	4723.201172	1111.494507	9.757912
354.041473	724.080078	4831.088867	1129.104248	9.861780
354.407379	726.829285	4964.165039	1144.930664	9.867082
354.773254	725.120300	5084.609375	1169.376343	10.190553
355.139038	729.429871	5167.977051	1188.546265	10.343843
355.504913	721.553711	5270.143066	1211.134277	10.763350
355.870636	726.234802	5356.854492	1216.335571	10.583914
356.236389	729.355469	5483.837402	1230.007202	10.530101
356.602081	732.847717	5624.195313	1245.610962	10.483067
356.967804	728.463867	5784.764160	1272.062622	10.750919
357.333405	721.405090	5921.406738	1302.452393	11.173984
357.699036	722.742493	6086.656250	1334.105347	11.397701
358.064606	722.816895	6254.803223	1372.296997	11.740450
358.430176	718.210144	6405.563965	1392.432983	11.854772
358.795654	719.770508	6473.029785	1418.884766	12.151621
359.161163	726.457703	6458.615234	1428.024048	12.239132
359.526581	729.949951	6424.064941	1446.228149	12.579271
359.892029	729.206848	6436.176270	1474.834595	13.065214
360.257416	726.383484	6547.185059	1505.521851	13.385413
360.622772	730.544434	6756.569824	1546.462524	13.539905
360.988098	727.646545	7016.777344	1584.877075	13.630350
361.353394	722.222412	7312.502441	1636.220215	13.868876
361.718658	726.903503	7637.725098	1691.055664	13.951339
362.083893	735.151062	7925.276855	1725.680664	13.776248
362.449097	741.615417	8106.946777	1748.565918	13.671489
362.814209	733.813660	8102.562500	1748.714478	13.773041
363.179382	721.850891	7889.611328	1734.745605	14.131258
363.544434	718.433044	7514.828613	1698.263062	14.416907
363.909546	722.593933	7100.739746	1672.777222	14.897484
364.274536	727.943787	6747.652344	1642.536011	15.193297
364.639587	730.395752	6514.639160	1633.471069	15.612679
365.004517	728.984070	6371.829590	1606.053345	15.543032
365.369507	723.188477	6286.232910	1604.493042	15.842127
365.734344	714.569336	6243.286621	1606.870605	16.139391
366.099274	713.157532	6179.312012	1615.861328	16.514421
366.464081	717.095642	6158.283691	1628.344116	16.747234
366.828918	727.646545	6141.714355	1633.842407	16.737801
367.193665	725.268860	6155.980469	1650.337769	17.034029
367.558411	723.782898	6149.813965	1659.402710	17.243170
367.923126	720.736511	6140.451660	1670.473633	17.523745
368.287781	727.275085	6139.856934	1681.693359	17.633327
368.652435	733.442139	6116.748535	1691.427124	17.795475
369.017059	732.327637	6097.652344	1716.541382	18.343973
369.381653	728.686829	6055.003418	1722.560059	18.659674
369.746185	723.262695	6060.204590	1735.934570	18.974760
370.110687	725.268860	6056.786621	1737.346191	18.982912
370.475220	726.680603	6100.550781	1752.875488	19.096010
370.839661	728.612488	6135.027344	1771.228149	19.284788
371.204041	728.092346	6224.858887	1790.175415	19.321959
371.568451	728.389587	6287.198730	1825.543579	19.737215
371.932770	722.222473	6356.375000	1843.004761	19.892651
372.297150	725.714600	6377.179688	1858.459595	20.043388
372.661377	721.553711	6432.015137	1855.413208	19.855829
373.025696	727.498047	6460.918457	1866.187134	19.860554
373.389862	722.965515	6465.748535	1875.326172	20.066238
373.754059	720.513489	6459.506348	1889.072266	20.361742
374.118225	727.349365	6478.528809	1906.013306	20.494299
374.482361	730.544373	6551.494141	1932.316772	20.645643
374.846436	729.578430	6616.806641	1963.895142	20.966007
375.210510	720.959290	6731.009277	1998.223022	21.252131
375.574524	715.683777	6851.677246	2027.275391	21.375374
375.938538	714.792175	7018.040527	2072.748779	21.543756
376.302460	712.711731	7167.686035	2111.980469	21.677372
376.666412	718.061523	7348.464355	2170.085205	21.899479
377.030304	722.816895	7515.125000	2208.573975	21.874111
377.394196	726.977844	7690.777344	2259.322998	22.004442
377.757996	723.634216	7848.298828	2296.399902	22.074944
378.121796	720.142029	7923.270020	2323.148926	22.254316
378.485565	720.067627	7936.050293	2332.510986	22.345444
378.849304	716.872620	7829.500488	2312.152100	22.428835
379.212982	723.634216	7693.452637	2291.941650	22.501410
379.576630	722.222473	7483.695313	2259.099854	22.729921
379.940277	731.064453	7332.192871	2252.932861	23.054670
380.303864	732.624817	7236.787598	2242.530518	23.214453
380.667450	733.144958	7211.228027	2257.093994	23.524691
381.030945	725.640320	7210.781738	2265.118408	23.738541
381.394501	723.336914	7233.072754	2289.935547	24.065472
381.757935	723.782776	7265.395020	2303.532715	24.149246
382.121399	726.011902	7269.257813	2326.120850	24.454359
382.484741	727.497986	7326.693848	2350.863525	24.599443
382.848145	726.903503	7374.693848	2394.627930	25.086897
383.211487	725.194580	7479.460938	2433.711182	25.295368
383.574768	724.897400	7560.748047	2469.822510	25.526085
383.938019	723.114075	7659.347168	2513.140869	25.806902
384.301270	725.491760	7761.364746	2551.852539	25.957842
384.664459	711.448547	7849.189941	2609.808838	26.596094
385.027649	715.609558	7939.839844	2647.406006	26.740515
385.390778	717.838623	7992.966797	2692.061768	27.136610
385.753876	726.532043	8022.687500	2721.559814	27.343550
386.116943	721.256531	8068.606934	2749.795166	27.609116
386.479980	714.717834	8088.073730	2764.209961	27.795921
386.842987	717.467041	8153.460449	2806.116455	28.088371
387.205994	724.748718	8189.050781	2841.038818	28.352148
387.568909	728.686768	8272.715820	2889.558594	28.643471
387.931793	727.200745	8323.242188	2915.044189	28.802416
388.294678	724.080078	8356.678711	2952.492920	29.195992
388.657471	721.925293	8369.235352	2979.761963	29.524586
389.020294	718.655945	8367.898438	3005.248047	29.893051
389.383057	718.730225	8385.359375	3033.557373	30.193546
389.745819	719.993347	8394.944336	3066.770508	30.577095
390.108521	726.160461	8418.870117	3092.330811	30.758608
390.471191	723.262695	8503.426758	3135.128906	31.000196
390.833801	717.467041	8642.594727	3202.224365	31.352900
391.196442	715.163635	8827.014648	3283.511475	31.661674
391.558960	722.148132	9032.165039	3366.582031	31.822245
391.921509	728.240967	9260.422852	3451.733154	31.920233
392.284027	727.646545	9498.265625	3525.367188	31.898783
392.646484	724.451477	9601.174805	3577.899170	32.145283
393.008911	724.674500	9577.323242	3598.109375	32.458477
393.371307	720.959290	9505.769531	3611.632080	32.905354
393.733673	715.758118	9433.696289	3605.985352	33.152645
394.096008	709.888184	9408.878906	3627.236084	33.536629
394.458344	704.315430	9416.903320	3660.078125	33.925198
394.820587	702.457947	9453.387695	3702.727539	34.285152
395.182831	701.417664	9493.213867	3732.002686	34.470600
395.545013	712.265808	9438.006836	3745.748779	34.764759
395.907196	725.045898	9342.006836	3725.018311	34.814739
396.269287	735.745544	9193.772461	3683.780029	34.854870
396.631409	743.027283	9047.990234	3643.508057	34.924667
396.993469	742.952881	8906.815430	3618.245117	35.219753
397.355530	742.432800	8804.797852	3596.102783	35.394947
397.717499	733.070618	8783.918945	3601.081299	35.623711
398.079468	717.095520	8776.562500	3616.907959	35.980202
398.441376	712.637451	8793.578125	3647.074463	36.313065
398.803284	715.906738	8792.538086	3670.480225	36.581757
399.165131	725.120300	8820.327148	3698.195313	36.726360
399.526978	714.643555	8823.819336	3715.582031	37.006702
399.888763	710.259766	8841.875000	3730.962646	37.147636
400.250519	711.077087	8857.850586	3749.240967	37.292847
400.612244	721.553772	8893.441406	3794.342773	37.601948
400.973938	727.052185	8898.569336	3833.574951	38.016476
401.335602	725.789001	8928.364258	3869.833984	38.329975
401.697205	721.627991	8978.740234	3905.573975	38.560043
402.058807	717.392761	9034.987305	3938.638428	38.728092
402.420349	715.758118	9145.624023	4003.356201	38.999413
402.781860	722.668274	9266.960938	4058.785889	39.044983
403.143341	724.154297	9432.506836	4132.494629	39.138748
403.504822	728.909668	9588.022461	4208.431641	39.276188
403.866241	727.869446	9785.667969	4306.511230	39.508957
404.227631	726.531982	9947.573242	4393.965820	39.772449
404.588959	722.371094	10151.757813	4481.939941	39.870766
404.950287	716.055359	10315.966797	4540.639160	39.839783
405.311554	717.392761	10442.653320	4614.793457	40.075024
405.672821	717.021240	10489.463867	4643.697266	40.181110
406.034027	715.981018	10454.689453	4663.981934	40.539268
406.395203	714.792175	10397.922852	4614.273438	40.270870
406.756348	712.934570	10304.003906	4591.759766	40.442051
407.117493	710.779785	10216.624023	4567.462402	40.571701
407.478516	706.916016	10171.745117	4572.068848	40.837006
407.839600	712.785950	10149.008789	4569.914551	40.875771
408.200592	708.773682	10162.978516	4586.558594	41.016510
408.561554	714.940735	10131.250977	4616.279785	41.431717
408.922485	709.070862	10156.736328	4656.031250	41.777100
409.283417	713.454773	10190.023438	4676.836426	41.822964
409.644257	709.219543	10301.106445	4724.241211	41.858521
410.005096	706.247375	10428.460938	4783.312012	41.935558
410.365906	705.801575	10556.187500	4862.667480	42.200031
410.726715	710.556946	10701.003906	4927.607910	42.210831
411.087433	715.609558	10803.541992	4989.650391	42.367859
411.448120	728.240967	10885.944336	5031.334473	42.362862
411.808807	731.138855	10886.463867	5056.448730	42.591545
412.169434	728.909729	10801.460938	5021.229004	42.614025
412.530029	723.857117	10735.629883	5014.467773	42.855656
412.890564	717.095520	10697.883789	5008.375488	42.995399
413.251099	724.600098	10696.991211	5038.244629	43.255871
413.611572	730.915833	10754.947266	5072.201172	43.308777
413.972076	728.463867	10816.098633	5100.881348	43.344326
414.332489	717.615723	10917.595703	5156.980469	43.523266
414.692871	714.494934	11058.101563	5222.441406	43.581959
415.053223	719.696106	11222.163086	5303.356445	43.643654
415.413574	720.736389	11431.176758	5404.185059	43.727882
415.773834	722.148132	11592.190430	5491.342285	43.874664
416.134094	727.646484	11757.215820	5587.490723	44.061958
416.494263	732.401855	11926.551758	5673.532715	44.140293
416.854462	731.807434	12224.655273	5809.061035	44.177505
417.214630	724.302917	12564.514648	5962.941406	44.244469
417.574738	722.073792	12923.471680	6136.810059	44.378002
417.934784	725.417480	13235.245117	6299.904785	44.560863
418.294861	719.324707	13640.343750	6485.215332	44.624115
418.654846	721.925293	14072.339844	6714.885254	44.889694
419.014832	723.188416	14574.403320	6946.933105	44.932842
419.374756	724.080017	15067.700195	7195.921875	45.120003
419.734680	723.411316	15642.504883	7443.349609	45.042538
420.094543	713.083252	16165.968750	7700.808594	45.219551
420.454376	715.906738	16669.814453	7943.257813	45.301445
420.814148	714.123535	17179.458984	8171.515625	45.291466
421.173920	718.061523	17728.480469	8429.124023	45.331409
421.533691	724.154297	18255.583984	8670.086914	45.323929
421.893341	722.965515	18628.435547	8882.889648	45.572243
422.253021	721.182190	18873.783203	9011.062500	45.667725
422.612640	717.021301	18967.478516	9050.813477	45.663471
422.972260	720.587830	18945.335938	9033.130859	45.611290
423.331757	715.683838	18860.482422	8998.580078	45.648876
423.691315	712.191589	18824.593750	9038.108398	45.968044
424.050781	715.609558	18975.652344	9117.166992	46.010612
424.410248	714.049133	19092.455078	9191.024414	46.124649
424.769653	713.677673	19301.916016	9256.187500	45.956532
425.128998	711.968689	19339.734375	9287.765625	46.037712
425.488373	718.284424	19273.679688	9258.491211	46.025467
425.847656	722.222473	19001.435547	9196.745117	46.361526
426.206940	718.284424	18728.224609	9086.256836	46.463081
426.566193	721.776672	18358.269531	8944.858398	46.625381
426.925385	719.398926	17993.072266	8780.575195	46.667412
427.284576	722.891174	17464.630859	8587.462891	46.975834
427.643677	720.662109	17079.966797	8412.627930	47.018906
428.002777	721.479431	16710.681641	8244.035156	47.047726
428.361847	722.371033	16314.054688	8064.668457	47.091114
428.720856	716.501160	15936.596680	7929.586426	47.391853
429.079865	716.575439	15649.862305	7823.333496	47.590042
429.438812	718.358704	15501.554688	7759.582031	47.629910
429.797760	719.696106	15414.174805	7721.093262	47.646446
430.156616	716.575439	15241.643555	7649.167969	47.728470
430.515503	714.866455	15135.911133	7605.552246	47.782150
430.874268	721.330872	15086.945313	7593.068848	47.834625
431.233093	722.445374	15092.666992	7623.235840	48.021461
431.591827	718.433044	15148.914063	7663.507813	48.127811
431.950562	714.420715	15162.882813	7694.343750	48.309105
432.309204	721.628113	15282.583008	7728.671387	48.122143
432.667877	722.519592	15409.270508	7799.853516	48.188560
433.026459	720.290588	15546.582031	7896.447266	48.401566
433.385010	715.015076	15663.756836	7981.375000	48.608505
433.743561	712.637390	15869.649414	8076.929199	48.586700
434.102051	718.210144	16106.229492	8173.002441	48.445431
434.460510	722.965515	16279.354492	8264.097656	48.476112
434.818939	723.559998	16312.715820	8305.260742	48.634453
435.177338	723.634216	16301.571289	8300.876953	48.640858
435.535675	719.993347	16278.387695	8275.168945	48.560123
435.894012	724.302917	16240.270508	8262.388672	48.582764
436.252289	719.993347	16269.916992	8291.738281	48.693134
436.610535	712.563049	16229.199219	8319.899414	49.026970
436.968719	717.764343	16377.730469	8381.718750	48.939793
437.326935	716.872620	16487.548828	8441.235352	48.979275
437.685028	723.188416	16674.792969	8523.785156	48.901642
438.043152	715.683777	16759.201172	8601.877930	49.155022
438.401215	721.925110	16996.078125	8699.956055	49.022709
438.759277	717.021240	17250.343750	8835.632813	49.104538
439.117249	721.702332	17679.515625	9054.901367	49.140766
439.475250	724.525879	17989.357422	9258.266602	49.428459
439.833130	733.888000	18419.568359	9483.702148	49.474007
440.191071	726.457703	18726.439453	9619.378906	49.405163
440.548889	718.953125	19064.589844	9787.526367	49.431770
440.906708	725.640381	19401.404297	9959.983398	49.445595
441.264496	734.556702	19654.035156	10123.002930	49.623177
441.622223	737.454529	19851.384766	10216.698242	49.593380
441.979950	727.126465	19895.373047	10271.088867	49.790485
442.337616	721.776611	19884.224609	10270.790039	49.831909
442.695251	715.758118	19726.927734	10221.973633	50.003319
443.052887	720.290527	19509.812500	10097.887695	49.908657
443.410461	718.358704	19345.158203	10024.625977	49.961712
443.768005	723.262695	19167.945313	9966.224609	50.111794
444.125458	723.931458	19087.699219	9948.391602	50.231850
444.482941	720.587708	19083.021484	9983.684570	50.445911
444.840393	717.021240	19235.414063	10061.034180	50.458012
445.197754	711.002747	19518.210938	10250.581055	50.722988
445.555084	716.129639	19865.353516	10411.743164	50.631886
445.912415	714.792175	20275.578125	10634.799805	50.713749
446.269714	720.290527	20600.207031	10767.355469	50.538769
446.626953	719.621887	20962.728516	10955.786133	50.566170
446.984161	729.281250	21298.505859	11150.757813	50.665382
447.341309	725.194580	21572.011719	11310.583008	50.777004
447.698456	726.680603	21735.775391	11411.559570	50.858349
448.055542	717.244141	21830.808594	11456.885742	50.866074
448.412598	714.272034	21764.976563	11440.835938	50.955841
448.769653	710.556946	21599.580078	11405.690430	51.199780
449.126617	724.005676	21261.205078	11238.583008	51.197716
449.483582	732.253357	20992.673828	11148.379883	51.411209
449.840515	736.191406	20642.037109	10936.617188	51.243366
450.197388	717.244202	20372.021484	10823.529297	51.418976
450.554230	711.077148	20125.783203	10700.929688	51.455078
450.911041	706.916199	19946.044922	10639.778320	51.628441
451.267822	720.290588	19784.437500	10552.100586	51.572250
451.624573	724.005676	19569.925781	10450.454102	51.610367
451.981262	731.213135	19399.326172	10410.924805	51.851582
452.337921	731.881836	19269.371094	10365.750000	51.969650
452.694580	733.665039	19229.097656	10354.456055	52.017117
453.051147	722.073792	19233.927734	10348.214844	51.999874
453.407715	717.987122	19135.996094	10302.294922	52.037693
453.764221	717.912903	19161.037109	10275.248047	51.820583
454.120728	721.999512	18907.146484	10151.682617	51.853767
454.477142	725.714661	18824.669922	10140.017578	52.015724
454.833557	719.101746	18566.244141	10068.835938	52.387852
455.189911	725.937683	18412.064453	10018.608398	52.542149
455.546265	722.965515	18215.980469	9916.663086	52.556389
455.902557	728.463867	18075.623047	9847.041992	52.565250
456.258820	727.052063	18082.533203	9865.840820	52.656502
456.615051	730.692932	18162.855469	9925.728516	52.747532
456.971252	721.628113	18136.552734	9937.617188	52.920067
457.327393	714.197754	18329.888672	10010.583008	52.773319
457.683502	708.402161	18574.492188	10160.823242	52.907047
458.039612	717.987122	19070.982422	10439.086914	52.967373
458.395630	727.126404	19546.371094	10691.046875	52.945381
458.751648	724.822998	20077.041016	10940.926758	52.790348
459.107605	722.519714	20850.160156	11315.338867	52.628223
459.463562	720.067688	21588.357422	11737.601563	52.795578
459.819458	728.984070	22274.099609	12150.129883	53.010372
460.175323	734.482422	22830.697266	12490.213867	53.202469
460.531158	732.327637	23387.970703	12789.653320	53.219971
460.886932	727.869446	23724.859375	12954.010742	53.164093
461.242676	716.724060	23833.337891	12989.156250	53.089233
461.598419	715.981018	23553.443359	12860.687500	53.178875
461.954102	714.569275	23038.750000	12626.113281	53.357136
462.309723	718.061523	22329.083984	12274.363281	53.474106
462.665344	717.392761	21610.798828	11924.843750	53.641090
463.020905	717.169922	21019.421875	11628.375000	53.743816
463.376373	713.677673	20551.166016	11403.757813	53.888275
463.731873	714.494934	20170.884766	11191.252930	53.847385
464.087341	708.773682	19892.474609	11030.536133	53.804855
464.442749	711.671448	19724.773438	10950.066406	53.849155
464.798126	707.956299	19645.341797	10913.286133	53.889858
465.153503	711.522888	19744.091797	10972.208008	53.911198
465.508820	713.677673	19846.701172	11015.304688	53.842129
465.864105	722.371033	19999.617188	11135.081055	54.015549
466.219330	724.377258	20265.324219	11309.468750	54.168774
466.574524	727.646484	20446.994141	11452.946289	54.389729
466.929657	723.188293	20643.451172	11562.172852	54.411854
467.284790	730.692932	20826.382813	11666.938477	54.420849
467.639893	727.572266	21018.455078	11762.714844	54.384735
467.994934	736.488586	21223.531250	11869.414063	54.341301
468.349945	727.498047	21236.607422	11887.320313	54.413979
468.704926	729.578430	21158.740234	11875.581055	54.559277
469.059875	725.268860	20894.220703	11738.566406	54.605209
469.414764	728.538269	20648.205078	11597.614258	54.564548
469.769653	722.519714	20468.837891	11494.629883	54.552502
470.124451	717.987244	20380.195313	11446.854492	54.565929
470.479248	717.838562	20228.396484	11388.972656	54.694149
470.834015	719.770508	20124.150391	11333.838867	54.699345
471.188721	720.959290	20183.591797	11367.499023	54.702465
471.543365	719.027527	20328.033203	11421.145508	54.577568
471.898010	722.668274	20493.580078	11509.268555	54.557930
472.252625	721.627991	20667.523438	11622.729492	54.653358
472.607178	719.324646	20925.281250	11811.680664	54.896465
472.961700	716.352539	21180.880859	11931.085938	54.800842
473.316193	716.055359	21479.207031	12110.823242	54.879757
473.670654	717.095520	21638.365234	12191.070313	54.843586
474.025055	709.145203	21848.416016	12361.594727	55.122284
474.379456	707.064758	22022.435547	12474.609375	55.206848
474.733795	714.272034	22192.812500	12600.700195	55.340946
475.088104	725.566101	22330.046875	12665.938477	55.268036
475.442383	735.894104	22335.546875	12673.145508	55.265942
475.796570	732.773438	22474.271484	12698.557617	55.036613
476.150787	726.011902	22688.781250	12834.382813	55.131348
476.504944	714.346375	23005.533203	13000.747070	55.117748
476.859070	719.027405	23314.187500	13186.057617	55.175667
477.213135	722.816895	23610.060547	13374.414063	55.277943
477.567200	731.658875	24052.755859	13643.911133	55.367256
477.921173	722.222412	24480.888672	13932.206055	55.600697
478.275146	721.776611	25045.142578	14204.303711	55.430355
478.629089	719.844727	25370.218750	14406.182617	55.521824
478.983002	726.234863	25797.013672	14660.668945	55.580376
479.336823	728.835388	26170.162109	14902.153320	55.709824
479.690643	722.371094	26684.115234	15151.735352	55.579334
480.044403	713.751953	27275.117188	15424.575195	55.384289
480.398163	709.962463	28003.953125	15830.937500	55.400383
480.751862	708.847961	28979.771484	16396.085938	55.488949
481.105499	708.922302	30167.720703	17130.269531	55.743439
481.459137	713.157471	31792.720703	18085.580078	55.896610
481.812744	720.290588	33802.464844	19225.830078	55.938095
482.166290	724.302917	36304.832031	20595.673828	55.849007
482.519806	718.953125	39245.285156	22259.757813	55.911900
482.873291	720.364929	42587.792969	24274.849609	56.259686
483.226715	719.621887	46258.871094	26612.041016	56.857368
483.580139	725.566101	49690.687500	29009.789063	57.764019
483.933502	723.262695	52789.042969	31441.718750	58.999321
484.286804	720.141907	55224.089844	33649.402344	60.416286
484.640106	716.501160	57025.406250	35559.722656	61.878708
484.993347	713.008850	58042.687500	36766.175781	62.887440
485.346558	716.724121	58219.003906	37099.273438	63.271492
485.699738	713.603333	57625.402344	36523.425781	62.921616
486.052887	715.089355	56468.582031	35343.796875	62.110382
486.405975	713.231873	55062.699219	33948.765625	61.151535
486.759064	721.999573	53642.699219	32556.554688	60.155205
487.112061	718.507324	52505.425781	31457.171875	59.356041
487.464996	723.114075	51791.746094	30767.421875	58.831238
487.817963	721.627991	51644.328125	30595.929688	58.665981
488.170868	727.052063	51678.656250	30626.763672	58.682568
488.523743	723.188416	51772.128906	30760.212891	58.839664
488.876587	722.296692	51577.011719	30660.349609	58.869770
489.229401	720.885010	51140.703125	30388.994141	58.842159
489.582153	724.748779	50393.214844	29824.443359	58.587868
489.934845	719.398926	49434.488281	29133.947266	58.328022
490.287537	716.798340	48362.230469	28417.595703	58.139458
490.640198	722.668274	47513.250000	27800.212891	57.869648
490.992798	730.395752	46930.343750	27337.382813	57.590942
491.345337	730.990173	46862.871094	27229.048828	57.439793
491.697876	724.674500	46933.386719	27309.369141	57.531784
492.050354	726.531982	47353.421875	27644.328125	57.730198
492.402832	730.172852	47527.734375	27809.353516	57.864510
492.755219	731.361633	47375.636719	27773.390625	57.975025
493.107605	725.045898	46606.011719	27322.669922	57.970936
493.459930	725.491699	45365.375000	26539.146484	57.826439
493.812225	720.216309	43587.980469	25456.406250	57.703472
494.164490	722.296814	41470.578125	24202.845703	57.623409
494.516724	721.702332	39262.519531	22885.757813	57.508007
494.868896	726.532043	37239.855469	21686.583984	57.403847
495.221039	720.885010	35654.832031	20747.697266	57.327656
495.573120	727.720886	34443.175781	20053.263672	57.319542
495.925201	725.863281	33770.292969	19656.191406	57.287502
496.277222	728.240967	33387.113281	19392.416016	57.148865
496.629211	725.863281	33347.062500	19339.437500	57.059750
496.981140	728.092346	33389.410156	19300.726563	56.864315
497.333069	731.436035	33489.871094	19393.455078	56.968594
497.684967	731.584656	33547.378906	19408.539063	56.914532
498.036804	724.600159	33564.175781	19456.539063	57.040749
498.388580	722.371033	33483.484375	19423.474609	57.083237
498.740326	717.392761	33299.359375	19351.177734	57.190487
499.092072	715.312256	32957.640625	19158.361328	57.201355
499.443756	715.683777	32581.595703	18933.521484	57.170300
499.795410	706.916199	32183.259766	18704.298828	57.177490
500.147003	711.820129	31812.412109	18464.748047	57.082283
500.498566	710.111145	31424.703125	18245.107422	57.090115
500.850098	720.216309	30950.203125	18005.482422	57.179203
501.201599	716.426819	30504.015625	17816.603516	57.407051
501.553009	714.569275	30113.630859	17584.705078	57.383247
501.904449	708.550781	29864.271484	17452.150391	57.428181
502.255859	716.798340	29647.900391	17302.947266	57.329819
502.607178	716.501221	29559.703125	17266.244141	57.378311
502.958405	724.600098	29477.599609	17180.943359	57.233486
503.309692	717.318420	29466.083984	17170.541016	57.231056
503.660919	715.163635	29495.802734	17162.962891	57.148830
504.012115	708.996582	29602.056641	17178.566406	57.001820
504.363251	715.535217	29729.111328	17235.408203	56.938423
504.714294	719.696106	29753.412109	17257.773438	56.961628
505.065369	717.615723	29733.421875	17331.705078	57.258755
505.416443	720.662109	29733.349609	17363.208984	57.362995
505.767395	720.439209	29785.287109	17386.316406	57.340321
506.118317	724.897400	29810.103516	17348.349609	57.154324
506.469238	719.398987	29816.048828	17343.517578	57.134132
506.820160	726.680664	29778.970703	17371.603516	57.292980
507.170929	727.052063	29775.328125	17403.330078	57.408836
507.521729	729.578430	29832.244141	17420.646484	57.352367
507.872498	727.200867	29944.587891	17444.421875	57.216686
508.223236	723.708557	30166.531250	17575.566406	57.235878
508.573883	726.086182	30351.396484	17727.958984	57.389687
508.924500	727.052063	30589.166016	17884.888672	57.456871
509.275116	734.185120	30781.833984	17976.205078	57.382259
509.625702	727.200684	31068.494141	18084.611328	57.207218
509.976196	722.742615	31362.287109	18257.664063	57.229706
510.326660	714.866516	31655.632813	18432.572266	57.263306
510.677124	716.352539	31942.369141	18626.875000	57.357697
511.027557	717.392761	32164.904297	18757.126953	57.364586
511.377869	716.724060	32397.919922	18897.259766	57.385887
511.728180	714.494934	32540.728516	19040.666016	57.581966
512.078430	716.872620	32657.234375	19124.330078	57.630711
512.428650	711.894348	32805.468750	19205.841797	57.625080
512.778931	722.073914	32906.890625	19253.322266	57.577610
513.129028	721.702332	32993.007813	19311.279297	57.604042
513.479126	727.275085	33024.511719	19350.138672	57.660858
513.829285	724.451477	33001.406250	19316.107422	57.600403
514.179382	723.411316	32917.367188	19258.150391	57.572105
514.529297	720.216309	32821.593750	19222.783203	57.637920
514.879272	709.145203	32804.875000	19219.958984	57.673759
515.229187	699.114258	32741.640625	19167.427734	57.636879
515.579163	708.625000	32744.318359	19145.804688	57.551991
515.928955	716.649719	32788.378906	19141.496094	57.448872
516.278748	726.829285	33040.933594	19297.531250	57.469337
516.628540	724.228577	33372.917969	19461.072266	57.389267
516.978333	726.011902	33831.738281	19740.746094	57.436390
517.327942	726.086182	34366.199219	20057.275391	57.464699
517.677612	725.194519	35012.925781	20450.486328	57.528717
518.027222	721.999512	35710.113281	20855.658203	57.544281
518.376831	721.479431	36495.339844	21310.539063	57.553368
518.726379	722.073914	37212.437500	21755.464844	57.640945
519.075867	723.262695	37797.718750	22102.085938	57.664566
519.425293	721.033630	38257.800781	22382.656250	57.707752
519.774658	723.782776	38457.828125	22500.724609	57.711651
520.124084	725.120300	38453.890625	22541.142578	57.823303
520.473389	729.801331	38099.238281	22380.427734	57.936722
520.822693	721.702332	37712.863281	22190.062500	58.036457
521.171997	714.717834	37260.957031	21910.757813	57.997868
521.521240	709.813904	36795.226563	21632.345703	57.980576
521.870361	714.940735	36352.828125	21340.857422	57.876373
522.219482	724.451477	35959.765625	21106.728516	57.846165
522.568604	726.903564	35767.843750	20955.300781	57.727890
522.917664	727.943787	35598.359375	20857.294922	57.726162
523.266724	723.559875	35689.972656	20871.931641	57.622070
523.615662	713.751953	35912.289063	20974.246094	57.560612
523.964600	710.408264	36363.753906	21286.095703	57.710400
524.313538	710.779785	36917.011719	21658.873047	57.857704
524.662354	724.897278	37667.546875	22105.429688	57.874935
525.011169	730.024231	38633.253906	22609.130859	57.723595
525.359985	727.423645	39797.800781	23260.687500	57.673523
525.708740	715.386536	41108.722656	24067.095703	57.810795
526.057434	719.398926	42569.886719	24964.078125	57.931652
526.406067	721.405090	44206.109375	25970.287109	58.063828
526.754700	727.349365	46012.781250	27107.564453	58.253201
527.103333	716.278259	47955.500000	28404.517578	58.612820
527.451782	714.420654	49967.910156	29882.177734	59.219681
527.800293	715.906738	51953.730469	31417.490234	59.919765
528.148743	716.426758	53840.343750	33066.121094	60.894783
528.497131	713.751953	55501.156250	34664.445313	61.968063
528.845642	710.779785	56874.718750	36119.441406	63.045189
529.193909	712.785950	57932.125000	37335.261719	64.003670
529.542175	713.083191	58646.390625	38196.875000	64.701630
529.890503	712.340149	58896.050781	38588.820313	65.098083
530.238770	709.591003	58652.261719	38345.847656	64.954300
530.586914	715.758118	57919.488281	37597.621094	64.474579
530.934998	713.528992	56776.714844	36424.531250	63.697777
531.283142	715.758118	55356.640625	35088.121094	62.905945
531.631226	715.015137	53756.011719	33558.601563	61.921135
531.979248	726.309082	52130.863281	32120.470703	61.072723
532.327148	730.024231	50695.484375	30808.287109	60.198112
532.675110	730.247131	49596.105469	29911.673828	59.717411
533.023071	724.674500	49119.300781	29407.976563	59.269604
533.370850	726.457703	49024.562500	29261.302734	59.080673
533.718689	727.349304	49279.203125	29371.419922	58.996861
534.066467	728.018066	49464.437500	29553.164063	59.144985
534.414246	721.999512	49549.292969	29645.523438	59.236385
534.761963	711.597168	49398.902344	29600.570313	59.335739
535.109619	706.544617	49027.832031	29387.693359	59.355099
535.457153	705.504333	48398.785156	28992.994141	59.311268
535.804749	712.191589	47598.546875	28381.929688	59.014481
536.152344	712.860291	46705.355469	27767.072266	58.823101
536.499817	714.717834	45748.558594	27129.705078	58.655861
536.847229	713.454773	44815.386719	26549.697266	58.583015
537.194641	711.448547	43984.980469	25996.888672	58.431652
537.542114	710.185364	43396.207031	25610.958984	58.334724
537.889404	711.448547	42876.160156	25260.695313	58.222256
538.236694	712.265930	42388.218750	24942.755859	58.140217
538.583984	716.649719	41933.855469	24626.523438	58.009445
538.931213	717.987244	41654.105469	24471.228516	58.025146
539.278381	726.309082	41486.031250	24379.392578	58.030533
539.625488	727.497986	41543.316406	24408.742188	58.019768
539.972595	725.937561	41887.710938	24582.087891	57.957050
540.319641	721.702332	42638.394531	24956.427734	57.816406
540.666687	717.912903	43651.957031	25613.484375	57.985622
541.013611	722.148193	45011.546875	26458.531250	58.109577
541.360596	721.107910	46404.722656	27407.673828	58.416058
541.707458	722.445313	47856.449219	28316.916016	58.544720
542.054260	717.541321	48988.082031	29100.216797	58.799168
542.401062	715.089355	49945.843750	29814.265625	59.107719
542.747864	715.758118	50412.832031	30216.093750	59.360306
543.094666	713.900574	50363.199219	30247.005859	59.483433
543.441284	710.408386	49743.667969	29810.177734	59.347004
543.787903	711.225647	48741.769531	29150.369141	59.210537
544.134460	713.008972	47433.375000	28307.478516	59.063038
544.481079	716.278259	45981.347656	27354.619141	58.849663
544.827637	710.185364	44413.707031	26254.642578	58.449421
545.174072	711.002686	42742.046875	25142.851563	58.128105
545.520508	716.649719	41333.191406	24214.068359	57.851841
545.866943	723.857117	40076.878906	23437.974609	57.718861
546.213318	729.578430	39211.847656	22900.843750	57.614235
546.559631	723.857117	38403.656250	22401.525391	57.531269
546.905823	716.872742	37723.710938	22061.443359	57.677364
547.252136	713.231750	37203.667969	21726.560547	57.585850
547.598389	716.426819	36660.738281	21460.705078	57.712265
547.944458	723.485596	36239.148438	21197.898438	57.648964
548.290588	722.073914	35674.964844	20868.587891	57.639050
548.636658	719.993347	35085.074219	20456.505859	57.431877
548.982727	716.946960	34284.613281	20000.880859	57.447941
549.328735	724.451477	33481.769531	19580.849609	57.563927
549.674622	726.680603	32613.396484	19117.718750	57.676178
550.020569	729.504150	31813.306641	18667.519531	57.708561
550.366455	720.959290	30980.890625	18185.666016	57.715618
550.712280	722.742493	30262.904297	17769.125000	57.705788
551.058044	715.683777	29716.630859	17405.634766	57.549675
551.403748	714.866455	29301.796875	17091.927734	57.288635
551.749512	707.361816	29050.505859	16906.394531	57.153267
552.095154	709.516602	28852.562500	16767.820313	57.059578
552.440735	708.030579	28786.062500	16764.179688	57.184029
552.786316	715.015137	28727.365234	16723.685547	57.148617
553.131897	724.377258	28738.062500	16732.230469	57.142975
553.477417	729.281250	28747.720703	16707.117188	57.026146
553.822815	731.956116	28731.820313	16710.535156	57.066631
554.168213	725.343201	28706.931641	16701.097656	57.093811
554.513672	726.234802	28579.427734	16625.605469	57.082760
554.859009	721.925232	28405.412109	16539.935547	57.138798
555.204285	720.736389	28153.005859	16400.912109	57.159599
555.549500	721.479492	27859.804688	16283.738281	57.344215
555.894714	722.073914	27530.791016	16121.832031	57.443100
556.239990	719.696106	27237.669922	15945.809570	57.418087
556.585022	718.210144	26924.630859	15770.010742	57.435547
556.930115	719.621887	26641.242188	15580.984375	57.331917
557.275146	720.513489	26302.349609	15422.941406	57.472137
557.620178	719.993347	26114.509766	15268.836914	57.291283
557.965149	720.364929	25931.724609	15160.206055	57.275139
558.310059	720.736389	25795.304688	15047.489258	57.136589
558.654968	718.730164	25604.718750	14939.972656	57.145580
558.999756	712.934570	25444.818359	14874.734375	57.261311
559.344604	718.655945	25361.154297	14815.143555	57.203972
559.689331	718.061523	25304.537109	14798.649414	57.269646
560.033997	718.878845	25274.591797	14751.838867	57.147434
560.378723	717.764343	25235.656250	14738.093750	57.184071
560.723389	721.256531	25217.375000	14712.905273	57.117817
561.067932	726.977783	25282.166016	14723.530273	57.000389
561.412476	726.309082	25308.250000	14713.795898	56.901470
561.757019	720.290527	25333.437500	14732.742188	56.930759
562.101501	721.479309	25311.369141	14763.207031	57.103661
562.445862	719.473206	25288.859375	14740.843750	57.068459
562.790222	725.937561	25265.599609	14723.902344	57.042206
563.134644	718.581604	25224.658203	14664.606445	56.908436
563.478943	718.953125	25214.328125	14676.346680	56.979710
563.823181	718.581604	25212.177734	14660.819336	56.921970
564.167358	721.851013	25260.546875	14692.916992	56.934837
564.511536	719.844788	25373.857422	14728.879883	56.822536
564.855774	716.649719	25425.945313	14754.440430	56.811783
565.199768	717.244141	25544.234375	14821.090820	56.808525
565.543823	718.061523	25647.367188	14883.355469	56.821857
565.887817	716.129639	25920.726563	15050.610352	56.872482
566.231812	712.563049	26152.404297	15164.887695	56.809803
566.575745	710.333984	26363.869141	15296.850586	56.859676
566.919617	712.117249	26558.912109	15386.979492	56.776333
567.263428	714.569336	26700.460938	15450.061523	56.705742
567.607239	714.792175	26813.103516	15499.473633	56.649956
567.950989	719.993347	26784.052734	15504.601563	56.724121
568.294678	724.080017	26765.921875	15550.742188	56.933998
568.638367	727.572266	26640.646484	15496.204102	56.992973
568.981995	719.027344	26514.554688	15384.006836	56.850861
569.325623	711.894287	26298.630859	15240.750977	56.782764
569.669128	711.076965	26139.994141	15128.628906	56.697464
570.012573	709.070801	26005.431641	15078.920898	56.805996
570.356140	713.974792	26009.890625	15026.909180	56.581997
570.699524	714.643555	25979.873047	15003.874023	56.556896
571.042908	720.216309	26053.359375	15032.480469	56.496204
571.386230	714.197754	26162.583984	15105.448242	56.550735
571.729492	711.671448	26396.931641	15225.296875	56.505657
572.072815	711.671448	26572.361328	15319.066406	56.484940
572.416016	719.547546	26711.603516	15380.886719	56.406998
572.759094	722.965515	26827.515625	15432.303711	56.347790
573.102234	720.067688	26917.943359	15450.433594	56.227333
573.445374	711.820007	26942.912109	15431.262695	56.114487
573.788391	709.442322	26909.919922	15447.981445	56.252937
574.131409	710.556946	26871.132813	15429.778320	56.264900
574.474365	715.460938	26788.804688	15466.706055	56.575962
574.817261	717.987122	26673.193359	15355.920898	56.396904
575.160156	729.801270	26481.119141	15246.026367	56.370800
575.502930	735.299744	26263.263672	15086.276367	56.216690
575.845703	730.172852	26047.115234	14981.434570	56.291405
576.188477	728.538269	25803.998047	14832.679688	56.246792
576.531250	730.395752	25528.111328	14677.609375	56.243950
576.873901	737.974609	25208.240234	14476.621094	56.144249
577.216431	730.767273	24893.791016	14326.231445	56.265575
577.559082	720.439148	24575.998047	14140.699219	56.256321
577.901611	713.974792	24189.103516	13965.717773	56.450142
578.244080	708.030579	23841.218750	13759.081055	56.417000
578.586487	717.169861	23502.992188	13539.961914	56.275311
578.928955	723.411316	23186.240234	13326.415039	56.106041
579.271301	730.098572	22817.843750	13118.813477	56.088634
579.613647	722.742493	22393.726563	12921.836914	56.292297
579.955872	720.216309	22030.234375	12723.820313	56.328453
580.298157	724.005676	21720.466797	12538.807617	56.270443
580.640320	727.349304	21478.984375	12372.518555	56.116875
580.982483	724.228577	21207.632813	12247.987305	56.259003
581.324524	719.547546	20990.890625	12138.687500	56.331440
581.666626	715.832336	20819.029297	12056.062500	56.410084
582.008728	714.940735	20737.591797	11975.293945	56.238075
582.350647	716.055359	20621.308594	11896.979492	56.170715
582.692566	721.182190	20539.054688	11829.883789	56.053951
583.034424	723.114075	20423.589844	11779.285156	56.121338
583.376343	721.107910	20302.029297	11726.752930	56.205956
583.718201	720.439209	20229.658203	11674.444336	56.147839
584.059937	728.835388	20148.521484	11600.140625	55.980854
584.401611	731.064453	20070.427734	11531.410156	55.846439
584.743347	732.699158	19971.902344	11473.007813	55.825123
585.085022	724.080078	19851.085938	11406.953125	55.852303
585.426514	725.491699	19758.876953	11386.520508	56.012260
585.768127	720.587708	19669.341797	11340.602539	56.045979
586.109619	720.141907	19609.974609	11331.684570	56.175953
586.451172	719.101746	19580.921875	11272.911133	55.953293
586.792542	715.163757	19535.300781	11238.583008	55.915741
587.133850	716.649719	19515.164063	11177.729492	55.648441
587.475220	715.906738	19488.861328	11143.921875	55.548077
587.816589	723.782898	19438.185547	11125.198242	55.579735
588.157776	730.172852	19500.005859	11172.973633	55.636089
588.498962	733.293640	19574.009766	11226.323242	55.693367
588.840210	730.247131	19696.017578	11261.096680	55.525558
589.181335	724.005798	19722.841797	11278.186523	55.551723
589.522400	722.148193	19751.150391	11305.752930	55.618286
589.863403	726.903564	19799.669922	11329.678711	55.591179
590.204407	729.281250	19784.064453	11292.601563	55.436581
590.545410	729.355469	19869.810547	11276.625977	55.104595
590.886353	727.349365	19853.908203	11289.183594	55.220776
591.227112	723.336975	19857.996094	11321.653320	55.388062
591.567932	719.398926	19725.662109	11296.911133	55.652767
591.908752	717.764343	19618.666016	11233.679688	55.637104
592.249512	720.513489	19575.421875	11195.190430	55.554111
592.590149	718.804504	19486.927734	11121.781250	55.428967
592.930786	715.089355	19427.189453	11066.053711	55.316959
593.271423	711.894348	19328.144531	11018.500000	55.363487
593.612000	716.129639	19269.964844	10982.016602	55.330265
593.952576	720.587830	19285.123047	10968.122070	55.199520
594.292969	722.073914	19323.390625	10943.676758	54.950962
594.633484	730.247253	19415.748047	11008.839844	55.008389
594.973877	725.863281	19510.482422	11059.811523	55.012817
595.314209	726.086182	19645.861328	11145.629883	55.072239
595.654480	710.705566	19848.560547	11242.893555	55.033268
595.994812	718.135925	20040.484375	11369.653320	55.125381
596.335022	717.912903	20308.494141	11499.312500	55.033585
596.675171	722.296692	20473.076172	11588.028320	55.014191
597.015320	715.535156	20658.978516	11659.434570	54.874672
597.355408	719.844727	20747.029297	11717.316406	54.912724
597.695496	716.575500	20830.990234	11744.808594	54.827515
598.035461	719.919128	20797.851563	11749.489258	54.933796
598.375366	716.352539	20758.248047	11731.731445	54.961765
598.715271	718.432922	20657.267578	11680.609375	54.979027
599.055176	722.148132	20452.341797	11589.737305	55.081005
599.395081	727.349365	20159.814453	11414.754883	54.997681
599.734802	727.126465	19815.271484	11237.247070	55.060989
600.074524	723.114075	19472.439453	11035.291992	55.000259
600.414246	717.764343	19068.603516	10830.958984	55.110252
600.753906	715.832458	18687.357422	10631.457031	55.174088
601.093506	713.900574	18361.912109	10425.934570	55.031887
601.433044	715.312317	18170.656250	10290.332031	54.854374
601.772583	723.559875	18061.283203	10165.503906	54.458965
602.112122	727.720886	18019.226563	10149.602539	54.488499
602.451538	727.497986	18022.494141	10160.079102	54.539364
602.790894	724.748779	18116.267578	10240.846680	54.716885
603.130310	719.844727	18325.429688	10333.651367	54.606571
603.469604	725.194580	18598.865234	10442.950195	54.369114
603.808838	723.336975	18903.949219	10605.895508	54.357681
604.148010	727.423645	19224.566406	10739.492188	54.127647
604.487305	722.073914	19531.287109	10907.713867	54.152397
604.826416	725.120300	19806.728516	11029.867188	54.003559
605.165527	719.993347	20005.783203	11168.144531	54.175388
605.504456	721.405090	20164.568359	11247.500000	54.137768
605.843445	716.946960	20204.544922	11274.249023	54.174465
606.182434	714.940735	20145.845703	11267.710938	54.309208
606.521423	715.089355	19978.515625	11193.184570	54.393730
606.860229	715.980957	19749.439453	11098.078125	54.546562
607.199036	721.925232	19504.167969	10938.325195	54.393932
607.537903	715.312317	19256.443359	10786.971680	54.320629
607.876648	711.374268	18940.656250	10606.267578	54.280216
608.215271	707.361877	18650.353516	10455.729492	54.329662
608.553955	709.219482	18351.804688	10306.752930	54.399811
608.892578	719.473328	18196.437500	10196.265625	54.224472
609.231140	721.776672	18100.291016	10110.593750	54.025433
609.569641	724.080078	18041.962891	10068.390625	53.957581
609.908081	725.789063	18037.060547	10057.393555	53.904789
610.246521	722.816895	17995.451172	10048.848633	53.993103
610.584961	730.767273	18020.935547	10059.622070	53.954678
610.923340	724.823059	17966.099609	10040.972656	54.033985
611.261597	727.126465	17905.023438	9972.688477	53.822437
611.599854	719.027344	17755.453125	9906.410156	53.927876
611.938110	719.993347	17623.044922	9823.860352	53.859314
612.276245	725.714661	17394.490234	9706.016602	53.874992
612.614319	723.336975	17088.957031	9524.940430	53.781055
612.952393	721.702332	16708.677734	9324.026367	53.808327
613.290466	713.454773	16369.036133	9159.147461	53.946846
613.628479	719.919128	16038.539063	8992.560547	54.003830
613.966370	722.296692	15777.661133	8805.020508	53.686668
614.304260	722.891113	15532.834961	8660.353516	53.595493
614.642151	720.662109	15339.573242	8540.800781	53.493305
614.979980	724.228516	15142.968750	8481.061523	53.796883
615.317749	723.114075	14995.477539	8396.951172	53.767109
615.655396	721.330811	14879.789063	8337.954102	53.795570
615.993164	722.519714	14831.714844	8286.536133	53.610546
616.330811	724.971680	14781.487305	8263.799805	53.632267
616.668396	730.024231	14779.406250	8238.387695	53.442661
617.005859	723.634094	14754.960938	8191.949219	53.226006
617.343445	720.290588	14722.936523	8169.658203	53.199715
617.680908	720.587830	14700.792969	8160.964844	53.220798
618.018311	723.485596	14719.815430	8178.648438	53.265129
618.355652	728.315247	14749.386719	8173.373535	53.099068
618.692993	725.343201	14743.739258	8164.754395	53.068916
619.030273	723.559875	14730.069336	8159.106934	53.086365
619.367554	732.773438	14690.168945	8153.683594	53.168301
619.704712	734.556702	14662.082031	8131.689941	53.111614
620.041870	740.798157	14606.281250	8096.099121	53.047562
620.379028	732.253357	14552.485352	8048.322266	52.937378
620.716064	733.367859	14501.809570	7990.588379	52.709095
621.053040	731.658875	14426.319336	7955.369141	52.748375
621.389954	730.618652	14382.851563	7939.171875	52.801277
621.726929	727.943787	14294.729492	7931.072266	53.093845
622.063843	728.686829	14243.460938	7886.713379	52.964455
622.400635	725.863281	14202.221680	7848.818848	52.855194
622.737427	725.417480	14174.432617	7807.507324	52.658798
623.074219	716.798340	14113.132813	7787.147949	52.778244
623.410889	715.460876	14041.950195	7759.135254	52.854687
623.747559	713.380371	14027.460938	7763.445313	52.951950
624.084167	720.290527	13994.545898	7732.089844	52.822540
624.420715	723.411316	13991.573242	7716.932129	52.709042
624.757324	721.999512	14008.812500	7685.056152	52.405773
625.093750	719.398926	14079.102539	7707.123535	52.304489
625.430176	725.045959	14141.293945	7724.064453	52.168224
625.766602	729.726990	14200.958008	7759.432129	52.183090
626.102905	726.680664	14281.949219	7813.079590	52.277821
626.439209	718.953125	14409.156250	7855.580566	52.129448
626.775452	711.597168	14528.856445	7915.395020	52.136227
627.111694	717.690002	14629.239258	7937.760254	51.899830
627.447876	720.885010	14709.784180	7991.109375	51.971382
627.783997	729.875671	14753.918945	7992.000488	51.783390
628.120056	732.476257	14819.752930	8023.504395	51.756126
628.456055	734.110840	14800.804688	7982.043457	51.525490
628.792053	729.281250	14751.468750	7965.697266	51.606899
629.128052	718.953125	14658.664063	7900.979980	51.522064
629.463928	712.414551	14564.226563	7872.373047	51.689686
629.799744	711.151367	14459.606445	7804.460449	51.593498
630.135559	715.609436	14319.768555	7725.328125	51.526291
630.471375	716.055359	14150.877930	7630.963379	51.470039
630.807068	720.662048	13967.796875	7533.924316	51.431969
631.142700	723.188293	13815.476563	7455.015137	51.418259
631.478333	728.538147	13659.292969	7365.628906	51.327946
631.813965	721.033630	13539.887695	7291.697266	51.257805
632.149475	716.426758	13392.916992	7202.533691	51.166424
632.484924	719.473145	13288.594727	7142.423340	51.101028
632.820435	734.853821	13197.945313	7081.792480	50.925873
633.155884	736.042725	13142.367188	7049.916504	50.892384
633.491150	732.847717	13098.752930	7021.681641	50.856236
633.826477	721.702332	13039.979492	6992.852051	50.909309
634.161804	721.182190	12967.458008	6964.245605	50.979282
634.497009	713.008972	12905.862305	6924.196777	50.941216
634.832153	710.333984	12842.112305	6870.995605	50.781193
635.167297	709.293762	12765.504883	6811.107422	50.611370
635.502380	715.980957	12673.445313	6747.652832	50.442730
635.837463	719.324707	12558.200195	6712.210938	50.620403
636.172424	722.593994	12468.071289	6673.275879	50.663597
636.507324	724.897278	12360.628906	6630.031250	50.750000
636.842224	725.640381	12260.246094	6575.642090	50.716965
637.177124	727.200684	12133.708008	6498.886719	50.599941
637.511963	719.176025	12011.481445	6424.212891	50.521454
637.846741	723.782898	11887.468750	6348.795410	50.386700
638.181396	724.823059	11747.112305	6284.672363	50.441875
638.516113	733.367859	11646.504883	6224.338379	50.315239
638.850769	724.451477	11541.515625	6162.890625	50.276478
639.185303	719.398926	11474.569336	6101.888184	50.045601
639.519836	716.649719	11373.739258	6039.622559	49.947712
639.854370	718.581604	11273.133789	5986.347656	49.909901
640.188843	721.256531	11142.807617	5931.289063	49.992874
640.523254	720.141907	11046.585938	5890.273926	50.066914
640.857605	724.823059	10928.592773	5814.931152	49.884583
641.191895	724.897400	10863.875000	5787.364746	49.930748
641.526184	725.343079	10792.767578	5749.618652	49.906261
641.860413	721.702332	10773.895508	5720.714844	49.730568
642.194580	715.609558	10711.628906	5671.749512	49.581139
642.528748	715.683838	10630.043945	5628.654297	49.554085
642.862793	716.203918	10571.270508	5598.189941	49.537827
643.196838	721.182312	10515.247070	5568.617676	49.493607
643.530823	725.491760	10486.566406	5521.955566	49.138687
643.864746	726.532043	10414.937500	5512.593750	49.399891
644.198669	725.789001	10371.396484	5480.939941	49.298615
644.532532	722.445374	10303.334961	5453.521973	49.380348
644.866333	722.519714	10261.577148	5413.919434	49.180958
645.200073	714.940735	10243.000977	5399.875488	49.169865
645.533813	710.185364	10241.664063	5400.693359	49.210705
645.867554	709.665283	10223.534180	5379.145508	49.080772
646.201172	716.575439	10196.338867	5350.761719	48.885044
646.534729	728.761047	10189.652344	5331.071777	48.645634
646.868225	723.114075	10214.766602	5336.198730	48.601490
647.201782	726.086182	10219.967773	5338.130371	48.579117
647.535217	720.141907	10237.131836	5328.842285	48.426025
647.868591	728.612488	10228.883789	5314.502441	48.271149
648.201965	727.869446	10232.598633	5313.685059	48.247723
648.535278	732.550476	10206.666992	5309.969727	48.315002
648.868591	729.949890	10224.500000	5307.740723	48.214935
649.201782	721.850891	10188.760742	5282.700684	48.176750
649.534912	716.872742	10162.532227	5260.781250	48.105785
649.868103	712.563171	10093.653320	5239.456543	48.255520
650.201172	717.541321	10045.429688	5220.212402	48.271061
650.534180	714.494934	9985.022461	5201.562012	48.401421
650.867188	716.055359	9937.468750	5172.955566	48.332077
651.200134	713.008850	9940.812500	5162.552734	48.218884
651.533020	716.352539	9918.521484	5124.064453	47.898621
651.865845	723.337097	9881.815430	5092.560059	47.706867
652.198608	727.052185	9822.670898	5042.479980	47.445122
652.531433	718.953125	9778.833008	5025.687012	47.536324
652.864136	714.420715	9750.597656	5002.728027	47.457096
653.196777	853.886902	9845.779297	5129.637207	47.551174
653.529358	864.066406	9821.258789	5103.854004	47.333889
653.861938	864.289246	9768.429688	5059.792480	47.118565
654.194519	721.702332	9564.096680	4879.385254	47.019878
654.526978	710.556946	9479.837891	4844.685547	47.143299
654.859375	707.436218	9414.971680	4829.230957	47.335957
655.191833	715.163757	9380.346680	4808.797363	47.242321
655.524170	720.810730	9337.102539	4778.036621	47.087841
655.856445	719.696106	9293.487305	4736.500977	46.849812
656.188660	718.804504	9264.211914	4702.470703	46.617630
656.520874	720.364929	9240.509766	4661.157715	46.252651
656.853088	717.244141	9240.211914	4661.455566	46.277443
657.185181	717.838562	9227.877930	4643.623047	46.131214
657.517212	718.953125	9247.419922	4660.341309	46.214500
657.849243	729.801270	9286.800781	4665.170410	45.990055
658.181274	728.315247	9350.997070	4686.569824	45.905148
658.513123	728.463867	9421.360352	4699.572754	45.682228
658.844971	728.686768	9511.194336	4738.953125	45.661972
659.176819	728.018066	9601.620117	4781.899902	45.684742
659.508667	725.937683	9709.135742	4815.931152	45.529369
659.840393	721.702332	9784.256836	4830.197266	45.334846
660.172058	720.513489	9832.256836	4851.967285	45.342075
660.503662	723.336975	9860.416992	4874.109863	45.427784
660.835266	723.411316	9870.374023	4876.339355	45.402264
661.166931	721.033630	9848.529297	4835.472168	45.077408
661.498413	722.519714	9799.266602	4803.447754	44.960247
661.829773	722.816895	9693.161133	4748.835449	44.881432
662.161194	725.194580	9556.964844	4696.972168	44.971478
662.492615	721.776672	9412.743164	4636.415527	45.042618
662.823975	726.532043	9236.274414	4560.552734	45.054489
663.155212	735.448425	9067.830078	4497.989258	45.155643
663.486450	732.922058	8905.775391	4408.900391	44.977905
663.817627	727.795166	8776.265625	4344.033691	44.930752
664.148743	717.987244	8649.729492	4275.750488	44.854752
664.479858	724.823059	8524.083008	4216.679199	44.771637
664.810913	729.132629	8419.984375	4164.815918	44.672340
665.141907	728.761047	8353.111328	4130.488281	44.616619
665.472778	722.519714	8273.161133	4087.094971	44.560123
665.803711	717.318420	8225.534180	4061.089600	44.534832
666.134583	718.655945	8185.558594	4028.173096	44.322487
666.465454	722.891113	8176.419434	4006.031250	44.048134
666.796143	719.547546	8136.890625	3969.697266	43.818245
667.126831	715.609558	8108.804688	3942.130859	43.641769
667.457458	713.751953	8066.526855	3917.313721	43.569424
667.788147	721.702332	8050.402832	3907.654297	43.472260
668.118774	729.801331	8019.344238	3882.465576	43.249134
668.449219	723.411316	7986.205078	3876.298828	43.411495
668.779663	718.581604	7977.288574	3866.267822	43.364285
669.110107	707.956360	7953.214844	3850.218750	43.369915
669.440552	712.563171	7948.533203	3835.878174	43.163734
669.770874	713.380432	7927.357422	3819.085938	43.051228
670.101135	718.581604	7917.846191	3814.850342	43.008125
670.431396	719.473328	7898.378906	3805.859619	42.992432
670.761597	717.987122	7851.197266	3766.925049	42.742859
671.091797	712.563049	7794.727051	3742.108154	42.777111
671.421875	713.603333	7732.461426	3710.157959	42.692909
671.751892	710.333984	7684.907715	3701.538818	42.887280
672.081909	718.655945	7653.923340	3671.594727	42.578583
672.411865	719.101746	7615.286621	3646.331787	42.447090
672.741821	722.891113	7549.230957	3596.548828	42.096611
673.071716	719.250305	7498.482422	3566.159180	41.994564
673.401550	724.005676	7457.393066	3536.215088	41.765152
673.731262	723.708557	7455.238281	3530.345459	41.693893
674.060974	722.816895	7411.845215	3515.335938	41.747753
674.390625	714.866516	7356.638184	3497.280518	41.892651
674.720276	712.637451	7284.860840	3473.354736	42.005833
675.049927	716.129639	7245.777832	3441.701904	41.741486
675.379395	718.284424	7224.378906	3424.389404	41.593384
675.708923	719.770508	7189.308594	3391.844727	41.302395
676.038330	715.683777	7143.166504	3363.758545	41.199249
676.367737	719.250305	7109.804688	3326.086914	40.792027
676.697083	719.919006	7082.089844	3305.059326	40.632992
677.026428	715.832336	7075.179688	3300.006836	40.635845
677.355652	717.467041	7043.824219	3297.406250	40.780800
677.684875	715.981018	7038.771484	3305.430908	40.954227
678.013977	725.566101	7023.910645	3288.415771	40.690845
678.343079	725.863281	7037.359375	3277.418701	40.427109
678.672180	721.405090	7055.265625	3258.768799	40.060307
679.001221	712.860291	7096.206543	3270.583008	40.068680
679.330139	708.327881	7133.357910	3276.453125	39.970634
679.659058	714.866516	7176.082520	3302.087158	40.042320
679.987976	718.730225	7230.769531	3309.219971	39.780010
680.316772	720.141907	7300.019531	3331.510986	39.687199
680.645630	715.832458	7344.972656	3324.526611	39.351921
680.974304	713.528992	7392.229004	3342.433594	39.362518
681.302979	716.278259	7417.640625	3348.971924	39.285946
681.631653	730.841553	7449.293457	3365.764648	39.219200
681.960266	731.510254	7447.732910	3366.878906	39.238853
682.288757	725.714661	7449.367188	3355.956299	39.119240
682.617249	713.157532	7444.464355	3344.811279	39.095734
682.945679	715.609558	7423.436035	3329.876221	38.973377
683.274109	721.628113	7374.322266	3307.510986	38.869709
683.602478	721.182190	7296.675781	3276.601563	38.862778
683.930725	723.559875	7181.061035	3228.899170	38.797352
684.259033	712.934570	7091.674316	3175.772705	38.610104
684.587280	715.015137	7011.725098	3128.218994	38.324837
684.915344	711.894348	6970.486816	3087.278076	37.953964
685.243469	725.714661	6903.094238	3056.219482	37.726433
685.571533	726.977844	6831.020996	3025.978516	37.663574
685.899536	729.652649	6754.711426	3011.043701	37.865044
686.227539	719.770447	6679.814453	2988.232422	38.061161
686.555420	717.541321	6644.298340	2974.412354	38.079361
686.883301	717.318542	6625.871094	2950.412842	37.794270
687.211121	716.055359	6619.628906	2947.291748	37.794670
687.538940	711.745789	6627.876465	2941.198975	37.684311
687.866638	710.705566	6623.195313	2939.489990	37.696209
688.194336	711.522888	6646.526855	2933.694336	37.441784
688.521973	715.758057	6625.127441	2927.007080	37.419376
688.849609	710.185364	6595.853027	2903.081787	37.258247
689.177063	711.968689	6555.580566	2882.202881	37.138573
689.504578	709.813904	6505.574219	2852.481689	36.969570
689.832031	718.210144	6454.454590	2823.652100	36.704185
690.159485	720.364929	6370.121094	2789.546875	36.624268
690.486816	724.228577	6276.351074	2745.336914	36.402447
690.814087	723.708496	6181.243652	2719.851318	36.575905
691.141296	722.816833	6079.076660	2686.266357	36.657101
691.468506	724.451477	6006.483887	2653.052979	36.512493
691.795715	718.953125	5937.010254	2613.821045	36.313667
692.122803	720.067688	5877.345215	2572.360107	35.916092
692.449829	722.445313	5799.327637	2552.967041	36.056019
692.776855	726.606262	5729.705566	2524.806396	35.941727
693.103821	730.172852	5671.154785	2501.177979	35.843182
693.430664	725.045898	5628.060059	2462.912109	35.444855
693.757568	724.080017	5587.267578	2432.299561	35.125511
694.084351	716.501160	5534.215332	2396.931396	34.880238
694.411133	719.993347	5493.720215	2388.015137	34.941708
694.737854	716.946960	5432.420410	2371.371338	35.085007
695.064575	718.655945	5399.578613	2362.455078	35.116985
695.391174	714.792175	5373.795410	2335.706055	34.791000
695.717773	715.535156	5367.925293	2322.108643	34.532219
696.044250	717.169922	5354.997559	2323.669189	34.639046
696.370789	720.141907	5346.526855	2330.133545	34.800213
696.697205	717.615723	5382.043457	2334.294189	34.659740
697.023621	711.968689	5443.565918	2347.371338	34.563438
697.349915	712.414551	5513.187988	2359.557129	34.309940
697.676208	713.008972	5573.149902	2383.111084	34.363243
698.002380	719.176025	5661.347656	2405.327637	34.117622
698.328674	718.284363	5790.708496	2429.550293	33.736649
698.654724	717.541321	5899.859375	2445.228271	33.338112
698.980896	718.804504	6012.427734	2478.664307	33.244904
699.306946	721.702332	6087.770020	2503.778809	33.210098
699.632935	727.943787	6173.069824	2526.886963	33.037678
699.958862	720.587830	6183.695313	2514.180908	32.831005
700.284729	725.491760	6175.299316	2501.698242	32.592094
700.610596	718.581726	6130.866699	2493.599121	32.796078
700.936340	728.761047	6060.501465	2464.918457	32.562679
701.262146	719.696228	5939.165527	2425.909424	32.689400
701.587830	724.748718	5789.964844	2372.857422	32.537773
701.913513	717.318420	5641.359375	2328.275635	32.716164
702.239075	719.176086	5491.564941	2277.303955	32.648808
702.564697	721.999512	5359.009277	2227.967041	32.477127
702.890137	718.432922	5217.833984	2167.113037	32.197178
703.215698	718.358704	5097.092285	2124.835205	32.120625
703.541016	719.919128	4988.535645	2065.690186	31.527098
703.866455	721.850891	4919.285645	2038.866821	31.376686
704.191711	713.380432	4836.289551	2003.126953	31.282440
704.517029	707.584778	4768.525879	1993.467651	31.664650
704.842163	720.959290	4698.309082	1979.127319	31.633324
705.167419	729.058289	4653.133301	1960.477417	31.381134
705.492493	734.631042	4616.056641	1938.780884	31.023394
705.817566	726.977844	4565.159668	1910.025757	30.823132
706.142578	726.383362	4536.478516	1896.354126	30.707125
706.467590	725.566101	4513.444824	1897.394409	30.936270
706.792480	721.479492	4520.429199	1893.159058	30.842197
707.117371	717.541321	4518.497070	1894.347656	30.960802
707.442200	717.021301	4524.589844	1886.323120	30.709932
707.766907	717.169861	4514.112793	1894.644897	31.011135
708.091675	716.872620	4523.771973	1882.756470	30.625547
708.416321	717.615662	4517.531250	1875.474976	30.470661
708.741028	714.866455	4545.766113	1864.032227	29.997282
709.065552	723.559875	4564.268066	1871.165405	29.880049
709.390137	717.764343	4594.434570	1868.713379	29.689114
709.714600	723.336975	4609.072266	1873.022949	29.587347
710.039063	721.925232	4633.740723	1871.536987	29.388191
710.363403	730.470032	4649.789551	1881.865112	29.377420
710.687744	727.646545	4711.312500	1890.781372	29.197598
711.012085	724.377258	4747.646973	1907.573730	29.408829
711.336304	725.045959	4799.212891	1911.363159	29.118029
711.660461	725.491882	4805.305664	1919.165039	29.258030
711.984619	727.646545	4836.363770	1924.960571	29.140821
712.308716	724.080017	4845.875000	1927.264038	29.190781
712.632751	726.234863	4835.397949	1922.211426	29.105114
712.956726	727.126465	4798.246582	1899.177368	28.789396
713.280701	724.748779	4756.042969	1880.527466	28.670164
713.604553	727.869446	4716.142090	1851.252319	28.167150
713.928467	726.160461	4671.337891	1828.515625	27.941841
714.252258	727.869446	4610.409668	1807.042114	27.795528
714.575989	727.423645	4547.177734	1786.608887	27.729149
714.899719	728.909668	4485.877930	1769.965210	27.709990
715.223267	733.442139	4448.949707	1749.308960	27.341267
715.546936	730.692932	4409.123047	1743.736328	27.540102
715.870422	724.748779	4380.739746	1734.374146	27.615643
716.193970	716.872742	4352.058594	1734.819946	28.002619
716.517395	716.575439	4327.836426	1724.566284	27.912434
716.840820	721.182190	4296.331543	1713.495117	27.755844
717.164124	720.513489	4257.471191	1688.603516	27.370697
717.487488	723.411316	4211.255371	1663.860718	26.963631
717.810730	719.398926	4181.683105	1644.765015	26.727041
718.133972	724.451477	4131.603027	1626.263550	26.468210
718.457092	720.885010	4088.209717	1614.523804	26.538540
718.780212	723.262695	4033.151367	1592.009888	26.247021
719.103210	722.148132	3975.715820	1579.081421	26.338266
719.426208	721.033508	3938.712891	1553.669800	25.876919
719.749207	717.244141	3888.484375	1545.645142	26.122303
720.072083	715.758118	3844.943115	1533.385254	26.129076
720.394958	708.550720	3795.382813	1532.122070	26.680147
720.717773	708.847961	3720.634033	1510.871582	26.629501
721.040527	705.875793	3677.315674	1493.038940	26.490967
721.363281	717.615723	3645.217041	1473.200073	25.808990
721.685913	720.290527	3634.666016	1472.605591	25.813938
722.008545	722.519714	3607.842773	1463.986694	25.697886
722.331055	715.609558	3560.809326	1456.481934	26.039381
722.653503	719.250305	3532.425781	1432.853638	25.366470
722.976013	720.290527	3512.512451	1430.104492	25.421116
723.298401	727.943665	3510.283447	1411.157227	24.555361
723.620789	724.302917	3502.333008	1407.665161	24.598806
723.943115	726.977844	3481.305420	1394.885132	24.249376
724.265381	719.770508	3463.398438	1401.646484	24.853077
724.587585	716.575439	3466.742188	1400.680542	24.875040
724.909790	714.569336	3486.135010	1398.897339	24.691027
725.231873	719.398987	3483.460205	1398.971680	24.586021
725.553894	721.925232	3492.302490	1400.383423	24.489740
725.875916	768.884583	3534.505859	1446.079468	24.486176
726.197937	766.804138	3540.747314	1441.324219	24.316292
726.519775	768.513000	3531.756836	1436.568726	24.176502
726.841675	727.200745	3505.305420	1382.401978	23.584469
727.163513	726.383484	3525.069580	1379.875854	23.349970
727.485291	724.302917	3558.208740	1380.024414	23.138437
727.806946	720.067688	3598.480469	1385.299927	23.111078
728.128662	716.575439	3617.873779	1385.076782	23.041454
728.450256	714.866516	3632.139893	1385.671387	22.994240
728.771790	711.077087	3609.848877	1399.863281	23.761312
729.093323	712.637390	3610.220703	1405.138794	23.899275
729.414795	717.318542	3597.737549	1408.185181	23.984936
729.736145	714.123474	3587.409424	1400.531860	23.889317
730.057495	717.095642	3591.867920	1389.758179	23.398811
730.378845	715.832458	3612.524170	1384.036743	23.067842
730.700134	715.981018	3631.396729	1371.108032	22.471134
731.021301	707.733398	3632.511475	1367.615845	22.561796
731.342468	708.847961	3622.034424	1374.600464	22.853067
731.663574	714.123535	3612.152344	1371.999878	22.700821
731.984680	720.067688	3626.418701	1375.194946	22.541229
732.305664	718.953125	3636.375244	1362.489014	22.058374
732.626648	719.696106	3673.080811	1363.900757	21.812418
732.947571	725.045898	3674.343750	1357.064819	21.429470
733.268433	728.389648	3680.362549	1361.002930	21.430185
733.589233	728.166687	3649.675781	1354.835815	21.450186
733.909973	723.559875	3629.167969	1353.201172	21.669863
734.230713	725.120300	3577.676025	1344.061890	21.697792
734.551331	722.519714	3541.416260	1340.941284	21.938427
734.871948	726.532043	3497.949463	1327.418091	21.681541
735.192505	720.810730	3462.506836	1305.275879	21.317650
735.513062	726.086182	3423.944092	1287.220337	20.799248
735.833435	719.324646	3373.714844	1281.350464	21.173445
736.153931	718.730225	3324.600830	1275.926270	21.382338
736.474304	719.250305	3269.988281	1269.387695	21.567774
736.794617	727.572266	3228.378906	1253.932739	21.047628
737.114807	725.788879	3205.567627	1249.102905	21.103254
737.434998	717.541321	3210.992188	1242.490112	21.053102
737.755188	716.501160	3209.729248	1242.935913	21.114586
738.075256	720.810730	3219.091064	1237.660522	20.688223
738.395325	719.919128	3215.970459	1230.155762	20.441753
738.715271	713.083191	3238.558350	1223.839966	20.224186
739.035278	713.380432	3259.139893	1226.143433	20.141848
739.355164	715.312317	3270.211182	1235.134155	20.346083
739.675049	718.433044	3278.012939	1234.762573	20.172434
739.994873	720.810730	3266.644775	1237.809082	20.307623
740.314636	719.101746	3259.957764	1232.607788	20.209963
740.634277	715.683838	3235.660889	1227.183838	20.297804
740.953979	711.448547	3209.283203	1219.307739	20.331978
741.273499	717.467041	3187.438232	1202.069458	19.619761
741.593140	723.708496	3148.429443	1202.366699	19.740755
741.912598	724.822998	3111.054932	1186.391602	19.342991
742.232117	723.931396	3048.120361	1184.905518	19.833763
742.551453	725.491760	3017.879150	1164.620972	19.155977
742.870850	726.532043	2986.523438	1155.481567	18.980139
743.190063	727.869446	2953.830322	1144.633423	18.722879
743.509338	722.965515	2912.072266	1143.296021	19.201006
743.828552	724.748718	2879.676514	1134.751221	19.026276
744.147705	724.005676	2861.100586	1123.754395	18.705238
744.466797	731.881836	2846.760010	1116.175415	18.170956
744.785828	728.389587	2811.169189	1111.494507	18.393925
745.104858	723.634216	2785.609131	1118.404541	19.145254
745.423706	721.999512	2757.671143	1121.599609	19.629890
745.742615	719.696106	2747.343018	1116.844116	19.586645
746.061401	723.039795	2734.934570	1111.865845	19.326361
746.380249	717.912903	2735.231689	1104.732788	19.174950
746.698975	718.210144	2725.869873	1094.999146	18.767574
747.017639	710.185364	2724.458008	1085.785645	18.646942
747.336304	712.711731	2705.362305	1076.497925	18.256395
747.654907	708.104980	2697.263428	1083.779419	18.886099
747.973389	716.724060	2685.523438	1087.346069	18.824774
748.291931	715.758118	2689.981689	1085.339844	18.720358
748.610352	722.222473	2694.737061	1078.801147	18.077366
748.928711	719.844788	2706.476807	1068.175903	17.533751
749.247070	715.237976	2704.322021	1069.736328	17.822191
749.565308	717.838562	2700.012207	1068.696045	17.700644
749.883545	712.563049	2682.327881	1072.782715	18.287445
750.201782	715.015076	2676.086670	1072.634155	18.235901
750.519836	715.460876	2668.879395	1070.256348	18.162800
750.837952	719.027405	2664.718506	1061.042847	17.578094
751.155884	715.386536	2648.371826	1053.612671	17.497604
751.473877	711.671387	2632.619873	1060.745728	18.171978
751.791809	713.306152	2616.570313	1058.962402	18.161234
752.109619	711.151367	2616.198975	1051.829224	17.882906
752.427490	711.448547	2610.180420	1036.894409	17.140169
752.745300	709.516663	2609.362793	1041.724121	17.486019
753.062988	717.169861	2605.052979	1049.228638	17.588949
753.380615	717.244141	2600.298096	1053.092407	17.835297
753.698303	717.244141	2591.084473	1043.730347	17.423374
754.015808	722.668274	2575.926758	1031.024536	16.638599
754.333374	725.417480	2579.567383	1027.012207	16.265930
754.650757	729.652649	2570.279785	1028.126831	16.215895
754.968262	729.058289	2568.273682	1033.476440	16.551523
755.285583	728.909668	2548.137695	1029.464233	16.520994
755.602905	722.073914	2544.199463	1026.492065	16.706760
755.920105	713.974854	2532.013916	1018.021484	16.723877
756.237305	710.111145	2528.001465	1019.656250	17.027710
756.554443	718.655945	2523.692139	1007.767822	16.016958
756.871582	725.714661	2517.227539	1009.848328	15.859984
757.188599	721.776672	2519.902588	1003.458191	15.665283
757.505615	716.724060	2524.880859	1007.916321	16.104370
757.822510	712.414490	2541.524658	1008.064941	16.163622
758.139465	721.925293	2562.478027	1006.950500	15.485848
758.456238	724.302917	2582.688477	1011.557312	15.457202
758.773010	724.302917	2598.069092	1010.071228	15.251013
759.089783	724.600159	2612.483643	1012.523193	15.251101
759.406433	726.234802	2626.378174	1011.705811	15.023657
759.723145	723.336975	2637.077881	1022.851257	15.650723
760.039673	723.485596	2639.975830	1018.987549	15.418913
760.356201	730.767273	2643.988037	1011.260071	14.660766
760.672668	734.556641	2653.498779	988.969238	13.257961
760.989136	736.117004	2638.192627	988.077637	13.246614
761.305481	733.367859	2628.607422	995.582214	13.835421
761.621826	735.225403	2612.334961	1007.322021	14.495510
761.938049	730.395752	2636.112061	1012.746094	14.815969
762.254333	730.247253	2664.421387	1011.631531	14.548033
762.570496	723.262695	2724.235107	1021.885315	14.923875
762.886597	721.107910	2802.475830	1033.104980	14.990001
763.202637	716.872742	2913.558350	1053.018188	15.302393
763.518677	718.730225	3063.352783	1065.575317	14.793217
763.834656	718.953125	3222.137451	1089.575073	14.806019
764.150574	719.027527	3374.086670	1107.110474	14.616735
764.466370	725.194580	3460.128906	1117.364380	14.339276
764.782288	727.943787	3487.992920	1114.912231	14.020347
765.097961	726.977844	3466.816406	1105.327271	13.809187
765.413696	720.810730	3407.522705	1095.890747	13.960560
765.729309	713.900574	3308.105713	1078.355347	14.048803
766.044861	716.501160	3176.069580	1058.070801	13.887382
766.360474	723.411316	3034.077393	1040.238037	13.711489
766.675903	725.120300	2905.756592	1018.541687	13.455770
766.991394	720.810730	2789.769775	1002.566711	13.618249
767.306763	715.386658	2685.671631	986.294373	13.749672
767.622131	719.993347	2607.951172	981.390381	13.845491
767.937378	720.736389	2533.945557	965.861023	13.518827
768.252625	718.284424	2479.704834	955.904480	13.490252
768.567810	720.364929	2417.959229	938.294678	12.837564
768.882996	718.358704	2382.442139	946.690918	13.721199
769.197998	720.513489	2340.461182	939.409363	13.512527
769.513062	716.501160	2304.944580	944.759033	14.369909
769.828064	714.049133	2266.084229	935.248352	14.252204
770.142944	711.077087	2240.078369	929.378418	14.277381
770.457825	711.076965	2227.595459	921.428040	13.870656
770.772705	716.575439	2198.171631	919.421875	13.691074
771.087402	719.398926	2165.329834	920.016296	13.874617
771.402100	724.600159	2127.138184	913.774902	13.488029
771.716736	721.850891	2106.482178	903.966980	13.152677
772.031372	726.086182	2103.138672	903.149597	12.858146
772.345947	720.513489	2079.212891	905.973145	13.649793
772.660461	731.807434	2067.176025	901.886414	12.736482
772.974854	727.869446	2039.609741	895.793640	12.801635
773.289246	734.705261	2024.377563	888.883484	11.954837
773.603638	725.045898	2005.578979	879.892822	12.092380
773.917908	728.240967	1992.947388	877.217957	11.779571
774.232178	722.816833	1988.638062	872.759766	11.845506
774.546265	725.194519	1981.802246	883.830872	12.624175
774.860474	727.869385	1957.133789	883.979492	12.699473
775.174561	727.572266	1937.517700	888.066101	13.264551
775.488586	723.559875	1912.923462	879.818542	13.138007
775.802551	717.467041	1908.316772	872.536804	13.021774
776.116516	720.736328	1898.806030	862.357361	12.021448
776.430359	727.943787	1893.307617	867.335632	11.961230
776.744202	731.733215	1881.419312	868.598816	11.904607
777.057922	724.600098	1875.623657	869.118958	12.555682
777.371704	718.432922	1870.496704	862.654541	12.518545
777.685303	720.067627	1867.004395	858.642273	12.082152
777.998962	724.674377	1862.100586	857.750549	11.699762
778.312500	730.172852	1845.902710	857.156189	11.381190
778.626038	726.309082	1840.849976	858.642273	11.873337
778.939453	726.383362	1832.305176	862.134460	12.274926
779.252869	722.593994	1841.741577	863.397644	12.581330
779.566223	722.965515	1839.215210	860.722656	12.341068
779.879578	723.262695	1839.438110	859.310974	12.188790
780.192749	718.433044	1836.094727	854.184082	12.145988
780.505920	712.711670	1845.011108	855.967285	12.651743
780.819031	708.773621	1845.902466	849.651611	12.388920
781.132141	713.231750	1843.079102	851.806396	12.264899
781.445190	718.730164	1834.162720	847.496826	11.544101
781.758118	721.776611	1820.639648	850.097412	11.677597
782.071045	726.086182	1805.036133	842.592834	10.798152
782.383911	723.485596	1777.543945	836.500000	10.721836
782.696838	723.559875	1755.178833	831.596008	10.472485
783.009583	723.485596	1743.958984	830.332825	10.470359
783.322266	727.349365	1733.705444	831.447449	10.344061
783.634888	725.045959	1727.909790	830.704407	10.535672
783.947510	720.885010	1709.036987	833.304993	11.376791
784.260132	719.176025	1696.033813	836.500000	12.010344
784.572571	724.897278	1693.136108	831.001648	10.958491
784.885010	727.720886	1695.067993	826.171936	10.177427
785.197449	726.532043	1693.061890	820.079102	9.678652
785.509766	725.268860	1684.219727	824.685974	10.367279
785.822083	723.262695	1676.640991	824.314453	10.599335
786.134277	724.302917	1673.223022	817.850037	9.858272
786.446533	725.343079	1663.192017	810.791321	9.111088
786.758606	723.411194	1653.384155	815.472412	9.899343
787.070740	722.222412	1655.984741	827.583679	11.283521
787.382690	723.039795	1671.439819	828.549622	11.125034
787.694641	722.148132	1684.888550	826.246277	10.812691
788.006653	720.141907	1704.058594	818.890320	10.036258
788.318481	711.299988	1726.200806	820.376282	10.747483
788.630310	707.658997	1755.921875	822.679749	10.972509
788.942017	712.637390	1779.327271	831.150208	11.110334
789.253784	714.420654	1801.246460	837.466003	11.321533
789.565430	721.628113	1799.537598	834.939636	10.512156
789.877014	716.649719	1792.478882	834.196594	10.926167
790.188538	720.364807	1784.082642	834.865417	10.764191
790.500061	715.981018	1781.036255	835.236877	11.197153
790.811462	718.432922	1755.996216	825.874695	10.355203
791.122925	716.426758	1723.228882	819.261719	10.214019
791.434204	715.906738	1680.950562	815.249451	10.294114
791.745483	718.210144	1655.315918	819.781921	10.838881
792.056702	716.946960	1628.715698	822.159607	11.539400
792.367920	719.844727	1615.192383	820.450684	11.236525
792.678955	720.439209	1604.046997	816.809814	10.906491
792.990112	722.371094	1586.437378	813.094666	10.499608
793.301086	718.284424	1575.960571	814.506409	11.218918
793.612122	715.906738	1567.564453	813.466125	11.455235
793.922974	716.946960	1570.462280	807.224792	10.577178
794.233826	720.885010	1569.719238	799.720215	9.287468
794.544556	724.748779	1565.855469	789.614990	7.712008
794.855286	721.851013	1556.939087	790.952454	8.274749
795.166016	719.547607	1552.406616	794.593323	9.010614
795.476624	715.906738	1565.186646	802.320801	10.174980
795.787292	725.937561	1581.533569	803.361023	9.049067
796.097778	727.943665	1603.304077	800.537537	8.293027
796.408264	724.302917	1614.895386	803.881104	8.935421
796.718689	713.454773	1619.873535	797.342468	9.254849
797.029053	711.299988	1624.851929	796.227844	9.296445
797.339355	719.101746	1620.988159	794.964844	8.411602
797.649658	720.216309	1621.508301	800.537537	8.911788
797.959839	719.027405	1616.158569	809.528137	10.087792
798.270020	710.556946	1594.685059	812.203125	11.496771
798.580078	711.894348	1586.140259	813.689148	11.643726
798.890137	721.850891	1571.725586	805.515808	9.844382
799.200195	722.965515	1572.097046	794.593323	8.435420
799.510071	727.423645	1559.837036	788.277588	7.310544
799.820007	721.256531	1553.149780	787.608887	7.976066
800.129883	723.931396	1542.524536	789.243469	7.978576
800.439575	716.129639	1531.156250	798.159851	10.064728
800.749329	714.272034	1515.403931	804.401306	11.250241
801.058960	713.380432	1502.698242	809.379578	12.162293
801.368591	723.559875	1491.998657	802.320801	10.249473
801.678162	723.634216	1485.311401	794.370361	9.286893
801.987671	728.240967	1482.190552	784.190918	7.420914
802.297119	726.531982	1478.772827	777.577942	6.785853
802.606506	729.058289	1467.553101	776.166260	6.378917
802.915894	725.491760	1467.478882	776.686340	6.899659
803.225159	723.485596	1465.323853	782.927734	8.012816
803.534424	722.148132	1464.803711	784.636719	8.414208
803.843628	721.256531	1459.528320	788.649109	9.128424
804.152771	722.891174	1455.887329	787.088684	8.758233
804.461792	728.092285	1461.088501	781.515930	7.288393
804.770874	731.361633	1463.317749	785.602600	7.410412
805.079773	731.435852	1462.723267	785.008240	7.325764
805.388733	727.572205	1467.627319	788.797668	8.273095
805.697571	726.977783	1472.382813	786.865784	8.034289
806.006470	721.107910	1484.791382	786.345703	8.542518
806.315125	722.296814	1484.122559	783.447937	8.026917
806.623901	718.433044	1489.323730	784.711121	8.597597
806.932495	718.284424	1495.639526	789.689270	9.185615
807.241150	717.467041	1497.571289	794.221741	9.839031
807.549622	722.593994	1483.453735	792.215637	9.150392
807.858154	724.525879	1465.026733	782.704895	7.856711
808.166565	722.073792	1461.534546	781.441711	8.028543
808.474915	719.027405	1463.094727	781.887512	8.448174
808.783264	717.541321	1456.333374	790.060852	9.815960
809.091492	716.426758	1436.791870	781.367432	9.014967
809.399719	710.036804	1420.370728	774.382996	9.058583
809.707825	710.259766	1408.854004	771.039368	8.700273
810.015930	709.962585	1403.058472	778.841125	9.937808
810.323975	714.569275	1394.067749	778.098145	9.349377
810.632080	717.169922	1385.894409	768.736023	7.711113
810.939880	715.906738	1380.247437	759.968262	6.632369
811.247864	719.176086	1376.458008	756.476074	5.674884
811.555664	715.312317	1370.067871	762.048767	7.138000
811.863464	718.655945	1365.535522	766.804138	7.443146
812.171143	717.987122	1360.185669	774.680176	8.827964
812.478882	721.702393	1355.207397	777.355042	8.784879
812.786438	729.132629	1343.244629	783.447815	8.844508
813.094055	728.686768	1335.740112	781.887512	8.763767
813.401489	724.971680	1330.687500	775.274597	8.304706
813.708984	712.934570	1336.928955	772.228210	9.502272
814.016357	711.002747	1340.421143	769.776184	9.337737
814.323730	712.934631	1339.009399	773.342712	9.648701
814.630981	717.690002	1333.362305	764.797852	7.651449
814.938232	723.188477	1335.517212	770.519226	7.729630
815.245361	725.566101	1328.607056	767.324219	6.924591
815.552490	727.126465	1329.721558	773.862854	7.755853
815.859619	731.881836	1317.907349	769.701843	6.453645
816.166565	734.259521	1333.436646	780.772949	7.762885
816.473572	735.894226	1332.099243	779.212646	7.265692
816.780457	731.807556	1338.340576	772.525391	6.713210
817.087341	723.188477	1339.083618	765.466553	6.864492
817.394043	718.135925	1345.622192	771.039307	8.431003
817.700806	712.488831	1350.823608	779.064026	10.429511
818.007507	715.238037	1354.984497	771.708069	8.826940
818.314209	721.330872	1368.136108	764.277771	6.639850
818.620667	720.736389	1375.640625	760.711243	6.103923
818.927246	723.188416	1398.377075	771.930969	7.219101
819.233704	718.433044	1421.188110	774.457214	7.972076
819.540161	717.095642	1462.128906	781.515930	8.646632
819.846497	724.154297	1503.366821	779.881348	7.151714
820.152832	730.618652	1562.363281	780.995850	6.056811
820.458984	732.773438	1626.932251	774.085754	4.620244
820.765259	725.640442	1703.018433	777.503662	5.306363
821.071350	722.668274	1804.218628	781.664612	5.454794
821.377502	723.039734	1981.504883	792.661438	5.532271
821.683472	729.132568	2318.021973	808.933777	5.022452
821.989441	729.058289	2887.626709	840.215149	5.149564
822.295349	730.024231	3683.111572	881.230286	5.120270
822.601196	717.689941	4560.180176	930.567200	5.540086
822.907043	718.953125	5306.031250	971.656677	5.509031
823.212769	721.107910	5732.157715	1001.674988	5.598968
823.518494	730.024231	5798.807129	1010.814209	5.539594
823.824097	724.525879	5548.406738	1000.783386	5.726872
824.129700	719.250305	5146.726563	974.182922	5.757967
824.435242	716.203918	4710.049316	946.765320	5.772917
824.740723	712.860352	4339.501953	919.273254	5.691572
825.046082	714.792175	3989.610352	902.480774	5.731268
825.351501	710.556885	3629.390625	882.567688	5.893135
825.656799	717.169922	3272.514893	868.153015	5.908521
825.962036	715.089355	2960.294922	851.286316	6.066124
826.267212	717.912903	2731.962158	837.763184	5.950712
826.572449	723.634216	2600.075195	826.617676	5.488234
826.877502	723.411316	2598.143311	828.921082	5.627992
827.182495	723.114075	2704.693359	837.168701	5.755744
827.487488	715.758118	2865.707275	844.153137	5.972003
827.792419	722.668274	2992.839111	855.893066	5.868492
828.097290	721.627991	3029.247803	847.794128	5.467371
828.402100	726.383362	2953.310303	851.063416	5.598749
828.706848	726.754944	2802.401611	835.162598	5.222837
829.011597	720.067688	2617.833740	827.880859	5.681057
829.316223	712.414551	2437.797852	807.001892	5.482106
829.620789	713.900574	2280.647705	797.119629	5.311582
829.925354	725.194580	2131.596436	794.816223	4.950338
830.229797	724.377258	2002.755493	793.850342	5.434470
830.534302	713.677551	1866.038696	789.243469	6.557486
830.838562	707.287598	1746.634155	782.556335	7.241929
831.142944	715.163757	1625.372070	782.259094	7.371427
831.447144	717.987244	1534.499878	780.104309	7.607606
831.751404	727.126465	1480.704590	778.098145	6.763954
832.055542	720.959290	1444.593384	775.571777	7.546976
832.359619	727.497986	1436.123047	774.011414	6.563898
832.663635	726.977783	1435.751343	774.977356	6.772202
832.967651	732.922058	1466.438477	778.841125	6.260128
833.271545	729.875671	1530.933228	778.395325	6.056950
833.575439	729.801270	1645.731079	777.503662	5.208084
833.879211	726.457703	1798.125854	785.602722	5.518968
834.183044	727.795166	1952.972656	797.565369	5.694702
834.486694	726.309082	2052.538330	804.847107	5.921904
834.790344	730.172852	2090.507080	796.153625	4.850336
835.093933	725.194580	2058.779541	783.819397	4.396032
835.397522	721.628113	2002.384155	786.122803	5.035673
835.700928	709.962585	1930.756226	783.002136	5.982956
836.004395	713.157532	1857.270874	788.946289	6.624236
836.307739	710.705566	1778.361328	778.618164	6.360908
836.611023	717.689941	1702.795410	776.463379	5.966208
836.914307	718.210144	1628.195679	766.804016	5.340071
837.217529	726.234802	1551.589478	762.643127	4.411234
837.520691	729.058289	1462.872070	763.237610	4.657765
837.823730	726.234680	1389.386597	762.271667	5.434198
838.126831	724.674500	1326.006470	764.575012	6.635355
838.429749	727.869446	1286.328735	751.572021	4.244280
838.732727	729.429871	1258.465210	743.250183	2.612361
839.035522	721.999573	1240.335327	737.231628	2.938647
839.338379	717.467102	1228.001099	748.748535	6.127199
839.641113	720.142090	1223.988647	753.429626	6.606681
839.943848	723.262695	1249.994629	753.503906	5.741291
840.246460	725.194580	1278.972778	747.782532	4.078881
840.549072	722.519714	1313.597778	755.584290	5.593944
840.851563	725.045959	1318.427490	754.618408	4.983716
841.154053	726.160461	1320.730835	752.463684	4.423904
841.456482	728.315247	1298.514282	746.222229	3.140479
841.758850	735.522644	1278.006836	750.308899	2.725656
842.061157	737.008728	1251.257813	753.801086	3.265413
842.363403	739.906494	1226.886597	755.435791	3.188898
842.665588	727.869446	1210.762939	758.407898	6.324055
842.967712	721.033630	1190.032471	759.819580	8.269946
843.269775	717.021301	1166.329834	756.327393	8.748129
843.571777	721.182312	1141.587036	745.330566	5.744049
843.873840	723.782898	1119.964844	743.398743	4.951221
844.175659	721.182312	1104.584351	744.736145	6.143377
844.477600	722.816895	1086.380005	749.491516	7.336999
844.779297	730.024231	1070.776489	747.633972	5.167902
845.081116	735.076843	1061.117188	743.770325	2.666382
845.382751	735.448303	1045.290527	742.804382	2.374137
845.684387	730.767273	1037.191650	740.946777	3.322028
845.985962	722.073914	1027.829590	740.352295	5.978100
846.287537	722.371033	1026.863525	741.764099	6.368980
846.588989	714.197754	1014.455078	745.627747	10.467686
846.890381	716.649719	999.817444	752.686523	12.726311
847.191711	713.380432	996.325195	749.342957	12.710087
847.493042	717.912903	994.467590	747.559753	10.720068
847.794250	723.931458	1001.377747	744.067383	7.257594
848.095459	724.080017	994.467712	737.157227	4.836466
848.396606	725.640320	989.489319	737.231628	4.393160
848.697693	722.445313	982.207703	734.259460	4.548059
848.998657	726.532043	979.384216	744.587585	7.140750
849.299622	722.371094	988.746338	734.928223	4.714075
849.600464	726.160583	991.049744	739.089172	4.880754
849.901367	724.525879	993.353027	733.070618	3.178525
850.202087	729.058350	982.059021	740.500793	4.522693
850.502808	732.476257	978.715393	732.550537	0.030166
850.803467	731.213074	970.987976	732.996338	0.743724
851.104065	722.742615	967.049988	726.457703	1.520661
851.404663	716.947021	966.455566	726.383362	3.781971
851.705139	720.216309	966.604187	727.349304	2.895027
852.005615	728.315247	972.474060	729.801331	0.608655
852.306030	727.497864	975.148926	734.928223	3.000334
852.606384	728.166687	977.006531	738.123230	4.001185
852.906616	730.470032	975.966248	745.033386	5.932211
853.206909	731.584656	967.867188	741.169617	4.056568
853.506958	728.835449	962.888977	728.315247	-0.222258
853.807129	720.587830	964.597900	724.674500	1.674796
854.107178	713.231873	967.644348	728.018066	5.811898
854.407166	714.717834	971.582336	737.157227	8.735887
854.707092	717.095520	975.446106	735.894104	7.276385
855.007019	725.863281	980.201477	734.779602	3.505695
855.306763	727.200745	978.492493	737.900330	4.257834
855.606567	727.349365	967.346985	740.203796	5.356066
855.906250	724.600159	956.573181	743.398743	8.103780
856.205933	721.553711	951.149109	741.392578	8.640795
856.505493	721.999512	950.257507	745.702148	10.384143
856.805054	716.872742	950.183289	749.342957	13.917166
857.104492	711.002747	955.310059	751.200500	16.453766
857.403931	708.253601	953.675476	747.856934	16.136839
857.703308	706.544617	951.223389	743.770203	15.214065
858.002563	707.659180	948.845703	741.764099	14.140474
858.301819	706.916199	954.864258	739.832214	13.275368
858.601013	711.299988	954.715637	735.002502	9.737466
858.900208	714.272034	947.434021	740.723816	11.344809
859.199219	722.742493	942.009949	742.729980	9.115574
859.498291	728.240967	942.158508	749.565918	9.968772
859.797302	731.733215	947.954102	748.302734	7.663237
860.096191	726.829163	947.285339	744.216064	7.886784
860.395020	728.389587	945.799316	734.333801	2.734107
860.693787	728.240967	935.694153	728.761047	0.250698
860.992554	727.795166	939.780823	735.522644	3.645283
861.291260	724.748718	946.690918	743.993164	8.670927
861.589844	722.222412	951.372070	737.528809	6.679651
861.888428	718.730164	949.588684	727.720886	3.894473
862.186890	722.222412	949.068604	722.742493	0.229266
862.485413	718.953125	957.687744	727.572205	3.610318
862.783813	719.621887	951.669250	726.234802	2.849813
863.082153	707.807800	948.994385	729.801331	9.118886
863.380371	711.299988	941.341125	724.228699	5.620173
863.678589	713.826233	955.310059	731.956055	7.507675
863.976746	721.033508	951.966492	728.315247	3.153183
864.274902	724.005676	961.031433	738.940613	6.300976
864.572937	727.869446	954.046936	736.191406	3.679394
864.870911	731.138733	961.774414	738.791992	3.318333
865.168884	726.903503	953.080994	731.138855	1.872579
865.466736	722.148132	950.406067	732.327637	4.459650
865.764587	715.832336	939.632141	726.011902	4.548514
866.062317	715.609436	942.752930	728.389648	5.626493
866.360107	717.169922	946.542419	728.909729	5.118228
866.657715	717.987244	950.628967	730.172852	5.237929
866.955322	719.398926	946.690918	732.624817	5.818899
867.252808	726.903503	955.532959	726.754883	-0.065005
867.550293	726.903503	956.498840	722.891113	-1.747592
867.847717	728.315247	965.043762	718.730225	-4.048951
868.145081	726.606262	957.241943	719.473328	-3.092728
868.442383	728.909668	960.362732	732.773438	1.669353
868.739624	724.080017	955.830139	734.482422	4.488630
869.036804	728.315247	949.440186	740.129395	5.342748
869.333984	732.996399	951.223450	731.584656	-0.646915
869.631042	739.089172	951.892273	730.098572	-4.224845
869.928101	734.333801	956.350342	725.863281	-3.815265
870.224976	728.240967	953.155273	726.829285	-0.627653
870.521851	728.686768	955.458679	735.076843	2.817843
870.818726	725.640381	963.260498	734.482422	3.721083
871.115479	735.522644	960.659912	738.569031	1.353124
871.412231	731.287354	960.362732	730.692932	-0.259487
871.708862	730.395752	949.811707	738.271790	3.589546
872.005493	723.262695	951.297668	733.590759	4.529158
872.302063	727.572266	944.239014	739.089111	5.315465
872.598572	726.234802	944.090332	736.488586	4.706690
872.895020	725.566101	945.725098	740.129395	6.614898
873.191406	725.937561	958.059265	731.658875	2.464790
873.487671	731.064453	969.353271	726.977844	-1.714981
873.783997	727.423584	976.114746	724.451477	-1.195100
874.080200	721.182190	979.681335	732.922058	4.541550
874.376343	716.649719	975.074646	729.801453	5.089189
874.672424	717.541321	980.870178	724.525879	2.652409
874.968445	721.330811	975.817566	723.188416	0.729942
875.264465	721.776611	974.628723	732.847717	4.378490
875.560364	720.439148	966.083984	744.810547	9.921397
875.856201	718.878845	966.232605	746.519531	11.174557
876.152039	723.559875	977.823792	745.850769	8.766833
876.447754	725.491760	980.647278	738.717712	5.183486
876.743469	724.897400	984.808167	736.860046	4.602598
877.039063	724.823059	979.161194	735.002502	4.002327
877.334595	725.937561	977.229309	731.807556	2.335928
877.630127	723.708496	974.257324	722.965515	-0.296541
877.925537	717.912903	976.932190	722.816895	1.893292
878.221008	722.965515	988.523438	723.708496	0.279781
878.516296	727.275085	994.021790	731.213074	1.476303
878.811646	730.395752	1004.201233	734.110840	1.356835
879.106812	732.996338	1007.470520	738.494690	2.003231
879.401978	731.436035	1029.464233	736.711487	1.770118
879.697083	738.940613	1037.265991	733.219238	-1.917830
879.992126	738.346130	1066.987183	734.185242	-1.266089
880.287109	740.872375	1101.166382	739.906494	-0.268081
880.582031	739.014893	1181.413208	739.460693	0.100769
880.876892	732.179016	1319.393433	735.448303	0.556745
881.171753	729.429871	1551.217773	737.231628	0.949364
881.466492	727.572266	1895.610962	747.188171	1.679388
881.761230	731.287415	2294.765381	761.379944	1.924717
882.055786	728.761169	2692.136230	768.513000	2.024668
882.350403	720.587830	2960.591797	777.429382	2.537565
882.644958	710.854187	3076.058350	785.379700	3.150913
882.939453	710.482666	3036.306641	790.580872	3.443864
883.233826	714.940735	2931.762695	788.203308	3.304847
883.528137	715.386536	2791.033203	780.624329	3.143010
883.822449	722.742493	2661.671875	781.590332	3.035069
884.116577	722.073792	2520.794189	782.333313	3.350133
884.410828	724.525818	2387.346436	778.841125	3.266456
884.704956	723.411316	2223.063232	770.890808	3.166034
884.999023	726.977844	2021.925659	762.494446	2.742705
885.292969	726.234680	1813.432251	762.494446	3.335159
885.586914	712.042969	1617.198608	755.881531	4.843207
885.880798	708.773621	1472.457031	757.293274	6.353373
886.174622	709.145203	1361.448730	751.274841	6.458594
886.468384	717.838623	1289.003540	753.132324	6.179249
886.762085	718.358704	1242.192871	742.729980	4.652480
887.055664	718.655945	1201.772095	738.271790	4.060275
887.349304	715.089355	1164.323608	734.333801	4.283833
887.642822	704.984192	1129.029907	740.055115	8.270553
887.936340	705.058533	1114.838013	736.042786	7.561202
888.229736	705.504333	1097.079590	734.482422	7.400388
888.523071	716.055359	1079.395630	728.686829	3.476485
888.816284	719.993347	1046.925293	729.652771	2.954567
889.109619	725.640381	1033.402222	731.361633	1.858987
889.402710	727.943665	1024.040161	732.624817	1.580955
889.695862	732.847717	1015.123779	738.048889	1.842583
889.988892	732.401855	1005.613098	735.374023	1.087864
890.281921	722.668274	1003.755493	734.036621	4.044420
>>>>>End Processed Spectral Data<<<<<
