Jaz Data File
++++++++++++++++++++++++++++++++++++
Date: Fri Jun 04 17:02:08 2021
User: jaz
Dark Spectrum Present: Yes
Reference Spectrum Present: Yes
Processed Spectrum Present: Yes
Spectrometers: JAZA3586
Integration Time (usec): 121000 (JAZA3586)
Spectra Averaged: 10 (JAZA3586)
Boxcar Smoothing: 1 (JAZA3586)
Correct for Electrical Dark: No (JAZA3586)
Strobe/Lamp Enabled: Yes (JAZA3586)
Correct for Detector Non-linearity: No (JAZA3586)
Correct for Stray Light: No (JAZA3586)
Number of Pixels in Processed Spectrum: 2048
>>>>>Begin Processed Spectral Data<<<<<
W	D	R	S	P
191.335022	0.000000	0.000000	0.000000	0.000000
191.713211	225.805969	227.812134	225.285843	-25.926405
192.091385	456.738800	461.791412	460.008148	64.706093
192.469528	686.482849	693.913086	692.352722	78.999809
192.847641	699.188538	708.030579	704.909912	64.706490
193.225739	716.501160	719.696106	713.231750	-102.330643
193.603790	733.145020	731.584656	733.665039	-33.326813
193.981842	736.117004	733.962341	743.918945	-362.095642
194.359863	734.779602	737.157227	746.445129	490.637909
194.737854	737.380188	747.931152	742.507141	48.592270
195.115829	753.281067	748.154114	745.404968	153.621429
195.493774	759.596680	749.268616	746.816589	123.741394
195.871704	762.791748	744.810547	742.581360	112.397316
196.249603	761.082825	753.726807	737.157227	325.252045
196.627457	756.178772	751.051941	741.615479	284.060333
197.005310	760.191162	749.640137	741.912659	173.239120
197.383133	755.361511	742.358459	748.897156	49.714142
197.760910	755.955872	743.918762	749.045715	57.407108
198.138687	748.376953	747.188171	749.120117	-62.514763
198.516449	743.324402	750.383240	745.181946	26.315153
198.894180	742.729980	741.764099	737.231628	569.257507
199.271866	743.101563	731.138855	742.284180	6.832757
199.649536	742.878601	726.606262	744.884827	-12.329055
200.027191	743.324402	733.293518	745.404968	-20.741606
200.404816	737.603088	736.191406	736.934387	47.369102
200.782410	740.649597	748.525635	735.374023	-66.982590
201.159988	736.934387	759.225281	746.147949	41.333302
201.537537	738.197571	773.937195	752.983826	41.372162
201.915070	729.058289	768.513000	749.788757	52.542442
202.292557	726.606262	768.587341	742.061279	36.814243
202.670029	726.531982	763.609070	743.324402	45.290558
203.047485	732.104675	771.187988	741.689758	24.524746
203.424911	730.692932	768.215820	746.147949	41.188240
203.802292	724.600098	763.386169	748.525635	61.685898
204.179688	724.377197	762.420227	753.281006	75.976624
204.557037	733.219238	762.568848	744.438965	38.227856
204.934357	733.070618	769.404602	738.048889	13.701419
205.311661	728.612488	767.175598	733.813660	13.487429
205.688934	716.575439	765.540833	739.312073	46.434086
206.066177	720.216309	764.575012	734.185242	31.490850
206.443390	713.900574	759.225281	731.213074	38.196606
206.820587	721.850891	755.435730	724.971680	9.292254
207.197769	727.646667	755.732910	725.566101	-7.407778
207.574921	733.962341	758.482117	731.138855	-11.515140
207.952042	727.646545	761.900085	732.476257	14.099892
208.329147	724.897400	759.522461	736.934387	34.763802
208.706223	763.757629	806.853210	780.104309	37.931221
209.083267	769.627625	809.156555	784.265320	37.030334
209.460297	771.039368	811.014160	787.608887	41.449921
209.837280	735.076843	764.946533	739.386414	14.427904
210.214264	730.247131	769.107422	738.643311	21.606064
210.591217	728.538147	770.444885	727.052063	-3.546170
210.968124	728.983948	771.559509	732.550476	8.376938
211.345016	731.733215	767.472839	735.819824	11.434393
211.721893	731.361633	758.853699	736.637207	19.189442
212.098724	732.773438	756.030273	732.476257	-1.277819
212.475555	732.847717	755.510071	733.813660	4.262321
212.852356	728.686768	758.779358	741.243896	41.728310
213.229126	726.829285	765.912415	737.677429	27.756592
213.605865	724.154297	762.643066	726.160461	5.212337
213.982590	721.776672	765.020813	721.850891	0.171627
214.359283	715.237976	762.494446	725.045898	20.754665
214.735931	709.591003	762.791748	728.092346	34.776474
215.112579	714.346375	757.367676	735.745544	49.740871
215.489197	719.250305	755.732910	735.225403	43.788258
215.865799	725.120300	759.819641	731.733215	19.057755
216.242355	716.575439	762.197266	725.194580	18.892582
216.618896	717.764221	760.785583	725.789001	18.653013
216.995407	718.135742	763.163269	729.355530	24.917620
217.371902	723.411316	764.129150	732.030457	21.167974
217.748367	732.922058	762.791687	734.631042	5.721478
218.124802	731.138855	753.503906	739.460632	37.208847
218.501236	730.024231	756.327393	736.637207	25.141373
218.877609	718.878845	755.881592	730.990173	32.730888
219.253983	718.433044	758.705078	727.646545	22.878162
219.630295	725.491760	755.361511	724.600098	-2.985169
220.006592	728.835449	750.903320	726.457764	-10.774422
220.382889	730.024231	746.073669	724.748779	-32.870007
220.759140	717.541321	745.107727	733.442200	57.682087
221.135391	716.426819	742.952942	737.380188	78.991447
221.511581	715.535156	752.760925	741.838379	70.658638
221.887772	723.485596	756.253113	742.507141	58.050007
222.263931	724.080078	772.079590	743.770264	41.021637
222.640060	724.005676	766.581238	744.513245	48.167465
223.016159	717.095520	767.621399	743.027161	51.323483
223.392212	719.919006	757.813477	737.008606	45.097874
223.768265	726.011902	767.398438	733.516418	18.132750
224.144302	732.773376	768.958801	730.470032	-6.365394
224.520294	721.182129	773.788574	738.717590	33.333294
224.896286	716.055237	773.565613	739.460632	40.697693
225.272217	717.467102	775.868958	735.968445	31.679375
225.648148	727.052185	778.766785	732.550537	10.632108
226.024048	724.971619	770.890686	735.002502	21.844704
226.399902	719.621826	769.256104	741.243958	43.562901
226.775772	711.225586	763.237549	743.695984	62.428711
227.151581	718.433044	765.318054	741.541199	49.286873
227.527374	715.015137	761.825867	733.070740	38.571507
227.903137	718.730164	761.454346	725.640442	16.174162
228.278870	716.798340	758.184875	723.857178	17.055880
228.654572	717.392761	757.887695	732.104736	36.330410
229.030273	717.764343	762.271667	737.380188	44.073296
229.405930	715.683777	765.838135	736.117004	40.740681
229.781555	728.166687	768.736023	730.618652	6.043888
230.157181	736.562927	762.568848	728.761047	-30.000399
230.532761	736.934387	764.723633	735.002502	-6.951915
230.908325	730.767273	770.221985	738.717712	20.150799
231.283859	726.383484	775.348877	735.819885	19.271572
231.659332	727.572266	772.674011	730.841614	7.248828
232.034821	728.612488	765.838135	726.531982	-5.588903
232.410263	719.696228	766.432556	722.593994	6.200243
232.785690	721.033630	767.844238	713.454651	-16.190731
233.161087	721.925293	768.067200	712.488770	-20.451092
233.536469	724.377197	763.980652	715.312256	-22.889269
233.911804	722.816895	763.757629	721.182129	-3.993005
234.287140	721.776611	764.277832	722.148132	0.874142
234.662430	727.646484	768.661621	724.228577	-8.333283
235.037704	723.782898	774.234375	730.470032	13.254584
235.412933	725.268860	773.937073	731.510254	12.824375
235.788162	720.067688	769.479004	736.042725	32.330727
236.163345	718.730286	764.649231	732.550537	30.097057
236.538513	716.724060	769.776123	745.181946	53.641430
236.913635	716.575439	768.290100	744.661865	54.310375
237.288742	720.884949	764.500671	749.045715	64.565628
237.663834	718.655945	757.070496	740.426575	56.672874
238.038879	724.302917	762.717468	736.785828	32.495266
238.413910	719.547546	763.906311	728.241028	19.598114
238.788910	719.324646	766.135437	728.538147	19.682430
239.163879	718.432922	767.175598	733.962219	31.859755
239.538834	713.751953	763.311829	746.519348	66.116783
239.913757	718.655945	764.575012	746.965149	61.650215
240.288651	715.015076	763.757629	737.825989	46.798763
240.663528	723.782776	773.268372	727.646484	7.807744
241.038361	720.513489	777.355042	724.600098	7.189475
241.413177	722.593994	773.417053	726.160461	7.017419
241.787979	725.640320	766.061035	726.383484	1.838572
242.162735	728.092346	765.466614	722.148132	-15.904563
242.537476	725.937500	770.444885	720.067688	-13.188400
242.912170	720.884949	777.949463	726.680664	10.156426
243.286865	718.135742	779.212646	732.847717	24.087624
243.661514	713.157532	780.104309	743.547363	45.394016
244.036148	719.176025	779.212646	736.562805	28.960291
244.410751	725.417480	776.389160	732.996277	14.868642
244.785339	735.076843	776.166260	731.138733	-9.584245
245.159882	736.711487	776.983582	731.807434	-12.177298
245.534378	732.476135	785.231140	740.352295	14.929692
245.908890	726.160461	784.859619	736.637207	17.848204
246.283356	726.457703	777.652283	737.305908	21.190145
246.657791	725.343201	766.878418	734.631042	22.361366
247.032196	731.510254	772.228210	735.819824	10.583955
247.406586	725.640320	783.522217	739.757813	24.390169
247.780960	728.463867	787.311707	738.494812	17.045563
248.155289	727.795166	783.002136	733.144958	9.690430
248.529602	722.965515	777.726563	732.253235	16.960449
248.903870	724.674500	784.339539	730.767273	10.211631
249.278122	717.095520	784.265320	729.132568	17.920328
249.652344	720.513489	784.116638	727.497864	10.981178
250.026550	713.751892	774.085754	725.566101	19.581390
250.400711	712.785950	780.178528	739.014832	38.919540
250.774857	713.900452	777.726563	732.253235	28.754351
251.148987	719.027405	783.968018	734.853821	24.370598
251.523071	724.674377	777.726563	728.389587	7.002935
251.897125	728.686829	783.447937	741.689758	23.744825
252.271164	723.559875	778.766785	741.689758	32.839882
252.645187	725.120300	776.389160	742.432800	33.768063
253.019165	726.234863	769.924805	741.243958	34.353661
253.393112	733.888000	777.132141	743.621582	22.508440
253.767044	729.652771	771.930969	752.537903	54.129864
254.140930	727.349304	781.293152	753.429626	48.347168
254.514801	722.148132	776.537781	754.915588	60.245758
254.888657	725.045898	782.110413	740.278015	26.692801
255.262466	731.287354	775.051697	736.785828	12.563822
255.636276	731.064453	781.441711	741.541199	20.796577
256.010010	732.922058	781.738953	748.525635	31.963476
256.383759	724.080017	780.847351	747.782532	41.753792
256.757446	730.098450	773.194092	744.810547	34.138248
257.131134	724.451477	775.646057	739.163391	28.737249
257.504791	724.228577	776.983459	737.825989	25.774698
257.878418	715.460938	775.720398	732.401855	28.113293
258.252014	723.782776	780.550049	735.448303	20.549740
258.625580	720.885010	788.797668	736.191406	22.538355
258.999115	729.875671	794.073242	730.024231	0.231410
259.372650	726.680603	793.701660	720.216309	-9.645169
259.746124	727.274963	791.546875	716.352539	-16.994087
260.119598	728.463867	791.398254	723.336914	-8.146505
260.493042	729.281250	796.822449	739.832214	15.621524
260.866425	728.166687	803.806824	745.553528	22.986263
261.239838	717.318420	810.048340	743.770264	28.525684
261.613159	708.922302	806.556152	734.110901	25.799042
261.986511	712.340149	801.800720	729.652649	19.352100
262.359802	720.513489	792.067078	730.395813	13.811081
262.733063	728.761169	789.020569	734.259521	9.124472
263.106293	725.937683	777.726563	732.327637	12.338467
263.479523	719.398926	785.008240	729.355530	15.175595
263.852692	719.696106	791.026855	737.825989	25.416645
264.225861	719.844788	802.172180	740.278015	24.819475
264.598969	730.990173	798.085632	739.014832	11.960062
264.972076	724.674500	792.587158	730.321472	8.315052
265.345154	726.531982	796.896729	734.408142	11.193332
265.718201	715.906738	803.509583	739.534973	26.971994
266.091217	729.801331	809.676758	748.897156	23.907009
266.464203	733.590820	815.323730	749.788757	19.818132
266.837158	739.014893	813.391846	750.531799	15.484510
267.210114	724.748718	820.673523	739.386414	15.259552
267.583038	719.770508	827.360779	739.460632	18.301027
267.955902	717.689941	834.419617	735.745544	15.467877
268.328766	722.965515	824.463074	737.380188	14.201990
268.701569	727.052063	813.168945	732.550537	6.384897
269.074371	719.473206	808.710754	732.401917	14.487972
269.447144	712.488770	815.992493	737.603088	24.264170
269.819885	709.591003	820.896484	741.021057	28.237652
270.192596	716.129700	825.577454	745.702148	27.019695
270.565277	730.767334	831.670349	745.553528	14.653867
270.937927	739.609375	831.150208	749.342957	10.633049
271.310577	735.671326	834.419617	755.510071	20.090216
271.683136	726.011902	824.165771	752.017822	26.495054
272.055725	717.690002	829.812805	745.107666	24.453245
272.428284	717.764343	830.555847	733.219238	13.702180
272.800812	720.364929	841.849854	735.002625	12.048981
273.173279	726.977783	836.351379	731.733215	4.347879
273.545776	735.522644	833.527893	737.008728	1.516331
273.918152	729.281250	831.075989	737.751709	8.321116
274.290558	719.621887	832.339111	740.055115	18.127867
274.662964	713.528992	837.094482	738.569031	20.264589
275.035278	720.439148	836.648621	739.089172	16.048626
275.407593	725.045898	836.500000	741.318359	14.600145
275.779907	724.822998	845.787842	741.689758	13.943522
276.152161	716.278259	852.846497	735.151184	13.819410
276.524384	712.934570	862.654541	738.494812	17.072033
276.896606	713.157410	861.242859	730.990234	12.042253
277.268799	719.027344	865.775391	732.401917	9.113970
277.640930	724.525818	863.026123	731.436035	4.989316
278.013031	731.138733	860.351257	736.637207	4.255373
278.385162	730.321472	854.704285	739.534973	7.407375
278.757233	722.296692	855.372864	735.968445	10.273629
279.129272	719.844727	859.608154	741.243958	15.311038
279.501282	718.953125	863.026062	738.048889	13.254234
279.873230	723.559875	869.861877	736.339905	8.735375
280.245178	724.971680	875.806152	734.705322	6.453195
280.617126	721.182312	877.589355	738.717590	11.211309
280.988983	715.015137	878.258118	743.175781	17.250753
281.360870	716.724060	885.465515	748.748535	18.978428
281.732697	721.702332	894.679016	744.364685	13.101392
282.104492	731.138733	902.778015	738.940613	4.545509
282.476288	730.544373	901.960754	724.451477	-3.554442
282.848053	732.253357	908.945129	722.593994	-5.466787
283.219757	730.321472	915.409485	734.333801	2.167795
283.591461	725.194519	924.474426	744.216003	9.545109
283.963135	726.086121	923.954285	749.714417	11.941434
284.334747	736.637146	924.845947	743.398682	3.592571
284.706360	734.779602	925.291809	749.268555	7.605262
285.077942	734.333801	936.362976	747.039551	6.289067
285.449524	715.460876	947.359680	746.742371	13.489286
285.821014	713.157532	955.235779	738.866272	10.620012
286.192535	711.225647	957.687805	741.763977	12.390677
286.563995	715.609436	967.198547	744.884766	11.636168
286.935425	715.832458	964.300781	751.274719	14.264297
287.306824	719.027527	964.597961	754.915588	14.614162
287.678223	713.751953	954.418457	754.098328	16.764433
288.049561	726.011963	955.235779	754.024109	12.220434
288.420898	724.154358	952.783752	748.079773	10.464715
288.792145	732.327637	952.486572	746.519470	6.446177
289.163452	729.504150	958.876526	740.203613	4.664670
289.534668	737.454529	966.975586	740.649475	1.392006
289.905914	737.380188	972.548340	735.894104	-0.631924
290.277039	735.745544	985.105469	737.083008	0.536359
290.648193	735.299744	1001.229187	738.420410	1.173494
291.019318	731.881836	1010.591248	741.541199	3.465747
291.390381	724.451599	1006.727539	737.305908	4.553810
291.761475	708.996582	995.582214	730.544373	7.518796
292.132507	712.042969	994.616211	734.854004	8.072610
292.503510	715.758118	1004.126953	737.305969	7.472323
292.874481	729.727051	1021.439453	750.085999	6.979116
293.245422	727.572266	1028.126709	742.358582	4.919680
293.616364	724.600159	1034.442383	743.918884	6.235020
293.987213	717.912903	1029.464233	735.151123	5.533027
294.358093	718.061523	1047.073975	736.042725	5.465204
294.728943	714.940857	1060.448364	732.253235	5.010710
295.099731	711.745789	1076.720825	726.383362	4.010568
295.470490	717.467041	1094.776245	729.652649	3.229608
295.841248	720.736328	1105.773193	734.556641	3.589348
296.211975	722.073792	1118.999146	738.717590	4.193181
296.582642	719.547546	1123.902954	739.237793	4.869540
296.953308	719.770508	1133.116577	737.677429	4.332186
297.323883	724.005676	1144.410400	740.723877	3.976692
297.694519	720.364929	1144.113281	743.250183	5.400671
298.065063	719.993408	1146.565308	744.736145	5.800367
298.435608	721.107910	1139.952271	742.358398	5.073600
298.806122	729.429871	1132.447754	738.271790	2.193927
299.176575	731.584534	1129.252808	738.717590	1.793720
299.547028	728.761047	1123.680054	744.067444	3.875832
299.917450	722.148132	1121.525269	741.466858	4.837214
300.287872	721.702332	1114.317993	737.900330	4.125663
300.658234	725.937561	1115.952515	727.200684	0.323865
301.028564	727.795166	1120.782227	728.166687	0.094538
301.398865	726.977844	1122.714111	734.259521	1.840033
301.769135	722.891113	1129.995728	749.417236	6.515800
302.139374	716.575439	1132.893555	754.246887	9.048717
302.509583	716.129639	1126.354980	746.816589	7.480511
302.879791	713.454773	1118.850464	749.045715	8.779309
303.249939	715.832458	1116.026855	746.816650	7.742285
303.620087	718.804504	1127.172241	752.017822	8.133188
303.990173	720.810730	1130.367310	744.884766	5.878073
304.360260	721.182190	1138.837891	747.856873	6.386764
304.730286	724.600159	1140.472412	744.958984	4.895452
305.100281	722.891174	1142.552856	739.014832	3.842061
305.470276	728.166687	1135.345581	738.271790	2.481735
305.840179	722.668274	1137.203125	740.278015	4.248073
306.210144	719.621887	1140.249634	745.627869	6.182660
306.579987	719.473328	1152.658081	748.079773	6.603752
306.949890	714.049133	1159.345337	742.061279	6.290677
307.319702	718.878845	1177.846680	746.965271	6.119476
307.689484	714.494934	1184.905396	740.352295	5.496766
308.059265	725.789001	1204.298462	745.181946	4.052782
308.429016	727.497986	1212.174683	731.510315	0.827836
308.798737	726.531982	1233.722412	736.340027	1.933799
309.168396	725.863281	1243.456055	740.278015	2.784956
309.538055	714.346375	1256.533325	744.736145	5.605035
309.907684	719.324646	1268.793213	744.587585	4.597704
310.277313	714.569336	1281.796143	743.175781	5.043211
310.646851	723.559875	1294.353394	737.231628	2.395219
311.016388	717.764343	1306.241821	732.996338	2.588373
311.385895	724.525818	1312.483276	737.603088	2.224186
311.755371	723.931396	1314.415039	743.472961	3.309417
312.124817	722.148132	1313.300537	742.581360	3.456507
312.494232	719.993347	1310.254272	734.853821	2.517611
312.863617	721.330811	1307.876343	741.615417	3.458318
313.232971	724.377258	1304.978638	748.228333	4.107995
313.602295	719.473328	1306.910522	750.977539	5.362992
313.971619	717.095520	1316.049805	738.420410	3.560354
314.340820	721.702332	1320.359253	734.259460	2.097550
314.710083	729.058350	1331.430542	738.569092	1.578881
315.079285	730.618652	1344.433472	749.788757	3.123109
315.448486	729.652649	1366.204102	749.491516	3.116616
315.817596	717.838562	1358.328003	743.027283	3.932730
316.186707	719.621765	1352.532349	746.147949	4.191143
316.555786	717.169739	1331.950684	745.702087	4.641059
316.924866	724.080017	1334.551147	746.445129	3.663582
317.293884	713.083191	1332.322144	741.541199	4.595643
317.662872	709.293762	1336.557251	749.491516	6.408432
318.031830	709.739563	1343.393066	742.804382	5.218123
318.400757	724.154297	1354.538574	745.107666	3.323904
318.769684	724.897278	1368.730469	740.426697	2.412025
319.138550	717.244141	1373.188599	742.209900	3.806078
319.507416	713.306152	1378.092407	744.959167	4.761382
319.876190	713.603333	1378.909790	740.946777	4.109902
320.244995	717.541321	1387.157593	751.794983	5.115417
320.613770	719.547546	1381.064819	742.878662	3.526910
320.982483	724.228699	1377.869629	744.364685	3.080588
321.351166	727.572266	1367.690063	737.825989	1.601849
321.719818	725.120178	1363.826294	745.627869	3.210818
322.088440	727.646545	1368.730347	745.999329	2.862774
322.457062	730.395752	1385.225586	745.776367	2.348796
322.825623	721.925232	1408.705200	747.931152	3.786645
323.194183	717.021179	1418.884766	743.695984	3.800568
323.562653	710.408264	1439.912476	743.473083	4.532506
323.931183	719.621826	1457.596558	734.185242	1.973430
324.299591	719.398926	1492.741821	739.163513	2.555734
324.668060	724.228699	1513.100586	747.559753	2.957521
325.036407	724.302917	1536.654663	749.120056	3.054975
325.404755	725.937683	1552.555298	747.485352	2.606727
325.773102	721.702332	1549.954712	739.163513	2.108196
326.141388	728.463867	1556.864868	738.866211	1.255714
326.509674	732.401917	1556.270508	743.472961	1.343788
326.877899	739.683594	1577.744141	747.262512	0.904340
327.246124	736.117126	1581.087769	744.661926	1.011254
327.614288	734.556641	1586.511719	738.494812	0.462251
327.982422	733.962219	1578.561401	731.733215	-0.263913
328.350525	738.643311	1576.406616	739.683594	0.124174
328.718628	739.460632	1575.589233	748.154053	1.039723
329.086700	739.089172	1588.963745	749.565857	1.232733
329.454712	735.225403	1590.895508	745.999268	1.259114
329.822693	736.934387	1598.177246	743.250061	0.733321
330.190674	735.968445	1604.047241	746.147949	1.172647
330.558563	732.253235	1618.461792	751.869324	2.213485
330.926483	724.079895	1628.418457	747.113831	2.547048
331.294312	719.175964	1638.672241	747.485352	3.078793
331.662231	718.135742	1660.145630	749.045715	3.281279
332.029999	713.751953	1687.860718	751.423401	3.867273
332.397766	713.603333	1714.906860	749.565857	3.591571
332.765503	713.008972	1738.906616	745.850769	3.201274
333.133240	720.513489	1757.779419	748.822754	2.729220
333.500916	720.959290	1788.169312	757.739075	3.446349
333.868561	720.067627	1800.131958	751.794922	2.937537
334.236176	710.854065	1804.144409	747.188171	3.323372
334.603790	711.745789	1798.720337	734.779602	2.119076
334.971344	712.117249	1805.927612	732.996338	1.908840
335.338867	719.993347	1810.608765	733.219238	1.212700
335.706360	715.089417	1810.757202	734.333801	1.756407
336.073853	719.696228	1814.843872	739.014832	1.764018
336.441284	716.426819	1826.806641	733.293518	1.519003
336.808655	718.581604	1826.509399	742.804382	2.186314
337.176086	719.993408	1801.246582	741.392578	1.979108
337.543396	730.247131	1762.460571	749.268616	1.842786
337.910706	730.544373	1733.928223	741.318176	1.073747
338.277954	733.219238	1758.373657	747.708313	1.413355
338.645264	727.869446	1824.354614	741.020996	1.199428
339.012421	725.714661	1905.716187	741.615417	1.347520
339.379669	721.999512	1972.217163	743.175781	1.693807
339.746796	726.086182	2016.798706	754.098328	2.170285
340.113953	735.225403	2035.820313	759.596680	1.873856
340.481018	733.219238	2043.919067	759.522461	2.006808
340.848114	728.612488	2029.578735	758.705078	2.313095
341.215118	721.850891	2030.618774	747.188171	1.935964
341.582153	725.640320	2033.219604	742.507141	1.289927
341.949066	724.971680	2051.498047	742.878601	1.349911
342.316010	725.120300	2061.454834	753.206726	2.101751
342.682922	724.228699	2072.971680	753.503906	2.170555
343.049835	726.680664	2091.993408	742.061279	1.126527
343.416656	733.590820	2141.924561	746.445068	0.912727
343.783478	736.117004	2193.416260	737.305847	0.081578
344.150269	746.222229	2248.846191	748.897156	0.178017
344.516998	748.005432	2288.895264	741.541199	-0.419513
344.883728	740.798096	2322.628662	747.931152	0.450937
345.250427	725.268860	2357.848145	745.181946	1.219732
345.617065	719.696106	2377.835693	738.940613	1.160608
345.983704	721.107910	2385.414307	741.987000	1.254522
346.350281	722.668213	2383.928467	737.231628	0.876649
346.716827	717.838562	2357.996826	740.426575	1.377185
347.083405	716.278259	2350.046631	731.658875	0.941420
347.449860	733.145020	2346.108398	741.466858	0.515935
347.816376	738.123230	2348.040283	746.073669	0.493842
348.182770	742.209900	2340.312744	751.423401	0.576527
348.549194	731.658875	2322.851563	746.296570	0.919920
348.915558	732.624817	2330.281982	745.925049	0.832483
349.281921	727.423645	2331.396240	746.965332	1.218330
349.648193	721.999512	2351.086670	747.336731	1.555302
350.014526	722.965515	2371.074219	747.113831	1.465214
350.380737	725.194519	2401.017822	745.553528	1.214866
350.746948	730.841553	2438.986572	751.794922	1.226674
351.113159	726.457703	2464.026611	750.829041	1.402611
351.479309	723.708496	2482.528076	748.005554	1.381441
351.845428	722.816895	2496.943115	741.466858	1.051220
352.211517	730.841553	2537.289063	737.528809	0.370188
352.577576	727.200745	2572.508789	737.380188	0.551639
352.943604	727.869446	2598.886475	733.813660	0.317700
353.309601	723.782898	2627.121582	738.940613	0.796375
353.675537	730.470032	2678.241699	736.042725	0.286106
354.041473	727.423645	2737.832275	741.466858	0.698525
354.407379	730.990173	2779.664795	739.089172	0.395329
354.773254	733.813660	2830.339111	743.844482	0.478450
355.139038	725.491760	2874.177734	739.906433	0.670860
355.504913	725.268860	2949.074951	745.107666	0.892110
355.870636	720.142029	3007.997070	750.011719	1.305576
356.236389	725.566101	3068.776611	747.856934	0.951295
356.602081	718.432922	3120.714111	747.336731	1.203182
356.967804	720.587708	3175.401123	745.776367	1.026093
357.333405	720.959290	3246.285889	745.256287	0.962133
357.699036	715.906738	3330.545166	741.838318	0.991785
358.064606	716.203918	3415.398682	745.627747	1.090096
358.430176	717.615723	3485.391846	751.051941	1.208054
358.795654	727.275085	3517.193604	754.618408	0.980076
359.161163	727.052063	3540.153320	754.618469	0.979929
359.526581	727.497864	3544.239502	756.550293	1.031420
359.892029	732.179016	3581.837158	757.962097	0.904778
360.257416	729.875671	3638.306885	753.578308	0.814963
360.622772	731.510254	3736.163818	742.135559	0.353628
360.988098	723.411316	3836.992188	737.677429	0.458190
361.353394	722.816895	3967.913330	737.008728	0.437332
361.718658	721.850891	4110.352051	748.971436	0.800370
362.083893	720.364929	4258.511719	748.674133	0.800114
362.449097	719.844727	4351.093262	744.216003	0.671154
362.814209	714.272034	4358.969238	733.293640	0.521898
363.179382	721.776672	4269.285645	734.631042	0.362349
363.544434	723.857117	4122.834961	740.500793	0.489667
363.909546	731.881836	3960.409180	745.330566	0.416559
364.274536	726.680664	3817.302002	748.154053	0.694792
364.639587	728.835388	3710.157959	749.565857	0.695345
365.004517	726.829163	3639.421143	750.383240	0.808698
365.369507	730.841553	3597.589111	743.324463	0.435438
365.734344	726.011902	3582.951416	742.432800	0.574772
366.099274	726.754883	3580.128174	757.367676	1.072863
366.464081	724.005676	3585.923828	767.695740	1.526601
366.828918	731.584534	3583.322998	770.890808	1.378327
367.193665	730.841553	3585.329102	762.940369	1.124504
367.558411	728.761047	3586.072266	756.698914	0.977768
367.923126	728.909668	3585.106201	755.807312	0.941729
368.287781	737.008728	3590.233154	756.773254	0.692708
368.652435	735.968445	3580.945313	754.618469	0.655542
369.017059	736.711487	3578.790771	758.333496	0.760781
369.381653	728.835388	3566.159180	757.813477	1.021318
369.746185	731.064514	3574.629639	762.345947	1.100078
370.110687	724.451599	3585.923584	758.705139	1.197060
370.475220	725.491760	3618.022461	755.658691	1.042925
370.839661	720.141907	3652.573242	755.138489	1.193432
371.204041	723.039795	3705.253906	755.435730	1.086305
371.568451	716.724060	3745.600342	752.017822	1.165243
371.932770	722.073792	3782.157471	748.971436	0.878984
372.297150	719.324646	3791.519531	748.079834	0.935982
372.661377	720.662109	3808.608643	759.150879	1.246420
373.025696	714.420654	3827.258789	765.020813	1.625531
373.389862	720.736389	3841.748047	761.974426	1.321303
373.754059	721.702332	3844.719971	753.726746	1.025432
374.118225	731.807434	3860.917969	751.423401	0.626886
374.482361	727.423645	3887.221436	757.664856	0.957062
374.846436	727.497986	3932.174561	754.544128	0.843959
375.210510	720.587830	3974.155518	751.423523	0.947750
375.574524	722.222473	4056.705811	748.822815	0.797735
375.938538	721.330811	4155.156738	748.822937	0.800627
376.302460	727.720886	4245.806152	759.745361	0.910281
376.666412	727.943665	4338.164551	759.448181	0.872648
377.030304	728.686768	4413.582031	763.609070	0.947715
377.394196	721.776672	4515.970703	749.120056	0.720664
377.757996	723.039795	4579.351074	753.058105	0.778420
378.121796	722.965515	4624.898926	761.454285	0.986403
378.485565	729.875671	4628.911133	770.370605	1.038589
378.849304	719.324646	4609.072266	762.345886	1.106016
379.212982	717.912842	4559.883789	754.098328	0.941847
379.576630	714.272034	4475.624512	754.692688	1.074631
379.940277	717.764343	4411.204102	765.318054	1.287518
380.303864	726.086182	4368.183105	770.593567	1.222026
380.667450	725.640320	4379.327637	779.584167	1.476422
381.030945	725.714661	4390.547363	783.002014	1.563164
381.394501	724.228699	4421.532227	782.853455	1.585608
381.757935	730.767273	4436.021484	784.190918	1.441835
382.121399	733.962219	4445.977539	790.580994	1.525284
382.484741	733.293640	4468.640137	799.125732	1.762409
382.848145	723.782776	4501.779297	799.943054	2.015891
383.211487	724.451477	4539.673340	793.701660	1.815102
383.574768	716.649719	4596.218262	792.512878	1.955454
383.938019	719.324646	4655.065430	794.667664	1.914329
384.301270	718.507324	4729.442871	805.144226	2.160017
384.664459	722.742615	4785.541016	806.481689	2.061118
385.027649	721.107910	4818.085449	815.249451	2.297829
385.390778	725.045898	4877.750488	819.410461	2.272364
385.753876	725.194580	4892.091309	833.676575	2.603424
386.116943	732.104736	4928.722168	833.750793	2.422095
386.479980	727.869446	4926.716309	842.964355	2.741108
386.842987	733.665039	4987.719238	847.719727	2.681082
387.205994	730.767273	5037.278809	866.146790	3.143600
387.568909	725.045959	5100.139160	868.078674	3.269249
387.931793	718.804504	5130.454590	880.041504	3.654800
388.294678	718.135742	5167.902832	885.242676	3.755409
388.657471	720.513489	5171.766113	902.109375	4.079658
389.020294	726.309082	5179.939453	920.610779	4.362771
389.383057	727.646484	5178.825195	940.449524	4.780825
389.745819	730.767273	5207.951660	954.567078	4.998673
390.108521	727.423645	5228.607910	967.792969	5.340136
390.471191	726.011902	5286.415527	971.656677	5.386470
390.833801	721.925232	5363.987793	983.842285	5.642256
391.196442	716.798340	5472.395020	1001.526367	5.987220
391.558960	708.625000	5561.484375	1026.046265	6.540912
391.921509	708.625000	5656.665527	1053.612671	6.972208
392.284027	706.544617	5756.826172	1084.002319	7.473993
392.646484	713.306152	5859.884277	1115.729614	7.819243
393.008911	719.101746	5897.704590	1143.593140	8.197025
393.371307	722.816895	5889.084473	1166.626953	8.590536
393.733673	734.408142	5845.543457	1189.660889	8.907077
394.096008	736.117004	5824.812988	1211.208618	9.336216
394.458344	736.414246	5844.726563	1230.750366	9.677093
394.820587	726.457703	5876.007813	1257.499390	10.312389
395.182831	726.234802	5914.273438	1288.409302	10.835974
395.545013	729.281189	5898.075684	1319.319092	11.415387
395.907196	732.550476	5876.750488	1345.770874	11.920617
396.269287	735.374023	5824.144531	1369.547852	12.462221
396.631409	735.002502	5767.154297	1398.080078	13.176820
396.993469	731.138733	5708.009277	1427.429565	13.990535
397.355530	725.566101	5642.103027	1461.460327	14.967734
397.717499	720.364929	5626.499512	1495.490845	15.799116
398.079468	719.324646	5612.232910	1530.636108	16.581375
398.441376	720.290527	5618.845703	1561.323120	17.168993
398.803284	726.011902	5621.595215	1599.886108	17.850256
399.165131	727.572205	5639.279785	1629.830200	18.369539
399.526978	727.126404	5651.093750	1667.724609	19.102446
399.888763	723.262695	5661.941406	1699.303223	19.763191
400.250519	724.302917	5684.455078	1731.996460	20.315779
400.612244	729.652771	5726.807129	1779.996094	21.018827
400.973938	726.086182	5731.117188	1812.243530	21.701309
401.335602	724.823059	5727.699219	1855.413208	22.598803
401.697205	725.343079	5768.417480	1885.654419	23.008015
402.058807	731.361633	5843.166016	1929.790161	23.444334
402.420349	728.983948	5940.725098	1984.105469	24.082577
402.781860	724.302917	6006.037109	2041.764282	24.943727
403.143341	719.250305	6070.309082	2096.525391	25.738367
403.504822	717.987244	6137.479004	2150.320557	26.429291
403.866241	711.151367	6247.669434	2217.564697	27.208677
404.227631	712.488770	6360.460938	2288.003662	27.895231
404.588959	715.312317	6501.933594	2364.238281	28.495489
404.950287	715.683838	6629.585938	2422.343018	28.858427
405.311554	717.987244	6712.582031	2469.079346	29.211184
405.672821	719.844727	6754.265625	2514.849854	29.746103
406.034027	719.696106	6745.126465	2544.719727	30.288687
406.395203	720.959290	6715.257324	2567.530518	30.805464
406.756348	718.953125	6665.919922	2565.078613	31.043144
407.117493	724.600098	6634.044434	2585.883545	31.496759
407.478516	723.262695	6638.725098	2613.301025	31.950813
407.839600	725.045898	6689.994141	2649.560547	32.263729
408.200592	726.234802	6708.049316	2679.578857	32.654709
408.561554	725.046082	6693.560547	2713.015381	33.307606
408.922485	721.553772	6674.539063	2748.383057	34.047276
409.283417	718.953125	6681.671875	2789.546875	34.725666
409.644257	717.169922	6756.644043	2835.911865	35.081562
410.005096	720.959290	6853.162598	2885.174561	35.292622
410.365906	722.148132	6922.339355	2926.115479	35.546761
410.726715	727.795166	7015.217285	2960.071533	35.503841
411.087433	725.120178	7061.804688	3000.640869	35.910275
411.448120	725.714661	7138.782715	3034.968750	36.008572
411.808807	721.553711	7166.052246	3066.324951	36.384075
412.169434	717.615723	7154.162598	3078.658936	36.681831
412.530029	719.621887	7150.670410	3091.067383	36.874947
412.890564	732.104675	7135.142090	3116.107422	37.232372
413.251099	735.448303	7156.540527	3142.930664	37.493347
413.611572	730.767273	7194.880859	3176.515625	37.835785
413.972076	724.971680	7225.568359	3215.598877	38.313824
414.332489	722.965515	7262.645996	3249.703857	38.637028
414.692871	722.296814	7324.391113	3301.269531	39.062950
415.053223	719.473328	7422.099121	3331.362305	38.968143
415.413574	725.343201	7568.921387	3400.538330	39.090591
415.773834	728.018066	7688.027832	3454.482422	39.173283
416.134094	727.052185	7808.026855	3526.258789	39.531372
416.494263	724.525879	7887.382324	3587.781250	39.973652
416.854462	724.080078	8059.838379	3690.170654	40.433319
417.214630	726.903503	8273.162109	3785.574951	40.532288
417.574738	722.445374	8500.305664	3885.586670	40.668530
417.934784	725.863281	8692.898438	3963.752930	40.641087
418.294861	732.996399	8928.438477	4066.439453	40.674351
418.654846	737.900330	9249.500000	4193.868652	40.603043
419.014832	739.832214	9575.762695	4330.733887	40.639767
419.374756	730.098450	9917.407227	4493.233887	40.960152
419.734680	726.160461	10268.117188	4657.071777	41.196072
420.094543	717.318542	10637.030273	4818.754395	41.346321
420.454376	716.203918	10928.147461	4969.663086	41.651806
420.814148	721.479431	11216.813477	5115.593750	41.867313
421.173920	720.216309	11521.602539	5257.660156	42.007977
421.533691	719.101746	11896.459961	5385.684082	41.750317
421.893341	717.541443	12194.785156	5492.605469	41.604622
422.253021	724.971680	12432.034180	5579.985840	41.470814
422.612640	728.315247	12524.614258	5644.554688	41.676117
422.972260	726.903503	12556.269531	5665.136719	41.745544
423.331757	725.417480	12493.260742	5685.421387	42.148792
423.691315	729.801270	12497.940430	5699.241699	42.227921
424.050781	732.178955	12553.148438	5752.367676	42.468498
424.410248	730.618652	12631.760742	5781.494141	42.440258
424.769653	720.736328	12724.563477	5818.200684	42.465324
425.128998	717.095520	12766.842773	5839.822266	42.513145
425.488373	717.987122	12744.997070	5847.326660	42.648502
425.847656	722.222473	12655.315430	5796.058105	42.519032
426.206940	724.302917	12541.407227	5740.851074	42.451588
426.566193	719.176086	12383.218750	5662.759277	42.383099
426.925385	716.426941	12157.784180	5623.378418	42.887844
427.284576	712.265930	11863.840820	5509.992676	43.022861
427.643677	717.021301	11630.456055	5413.324219	43.032307
428.002777	720.439148	11410.891602	5303.133301	42.867172
428.361847	726.680603	11180.479492	5229.871094	43.077072
428.720856	727.200684	10941.670898	5138.404785	43.185833
429.079865	726.903503	10762.675781	5077.550781	43.351395
429.438812	725.268860	10633.313477	5047.606934	43.624527
429.797760	728.092468	10543.779297	5045.451660	43.984283
430.156616	725.789063	10446.590820	5008.300293	44.055122
430.515503	728.984070	10378.975586	4966.468262	43.911797
430.874268	732.699219	10349.476563	4949.973145	43.853298
431.233093	735.745605	10364.932617	4956.734863	43.835361
431.591827	729.206848	10415.458008	4989.725098	43.985214
431.950562	726.903503	10448.894531	5021.823730	44.177376
432.309204	721.405090	10492.287109	5069.377441	44.499283
432.667877	724.154297	10552.546875	5110.244141	44.626728
433.026459	721.702332	10658.131836	5155.866211	44.625324
433.385010	725.194580	10750.042969	5199.184082	44.628994
433.743561	726.383484	10903.626953	5261.375488	44.560123
434.102051	722.445374	11035.291992	5325.424805	44.633453
434.460510	730.247253	11185.606445	5409.906738	44.758476
434.818939	722.816895	11271.203125	5439.479492	44.714539
435.177338	718.433044	11331.387695	5478.488281	44.851364
435.535675	712.265930	11346.247070	5474.476074	44.782944
435.894012	714.643616	11312.218750	5476.854004	44.936794
436.252289	710.928467	11329.233398	5485.695313	44.967316
436.610535	706.841797	11311.846680	5484.580566	45.051735
436.968719	712.860352	11409.331055	5535.701172	45.088150
437.326935	718.284363	11488.538086	5577.013672	45.112488
437.685028	722.371094	11608.387695	5638.981934	45.164463
438.043152	715.980957	11684.176758	5690.250488	45.351761
438.401215	717.987122	11849.500000	5760.393066	45.298477
438.759277	713.529053	12044.842773	5841.679688	45.256451
439.117249	721.107910	12344.430664	5978.619629	45.232437
439.475250	724.600098	12549.804688	6091.634277	45.386395
439.833130	730.767273	12814.024414	6231.769043	45.525822
440.191071	734.779602	12992.648438	6331.186035	45.655621
440.548889	730.915833	13226.924805	6438.850098	45.678059
440.906708	730.321472	13462.539063	6539.382324	45.624897
441.264496	720.662109	13657.657227	6626.911621	45.653954
441.622223	728.538147	13836.058594	6698.093262	45.542976
441.979950	724.897278	13927.301758	6768.012207	45.772835
442.337616	730.321472	13985.778320	6794.463379	45.748268
442.695251	723.411316	13912.144531	6783.020996	45.945351
443.052887	725.789063	13795.859375	6722.390625	45.880409
443.410461	719.324646	13699.563477	6685.610840	45.964378
443.768005	718.210144	13602.301758	6644.298340	45.995392
444.125458	717.764343	13520.643555	6612.941895	46.045719
444.482941	726.383484	13514.178711	6630.179688	46.167431
444.840393	738.049011	13601.039063	6680.631348	46.199074
445.197754	740.203796	13754.696289	6793.943848	46.515377
445.555084	736.117126	13909.246094	6896.035156	46.761238
445.912415	726.011902	14179.411133	7029.631348	46.855217
446.269714	724.451477	14453.661133	7124.218750	46.614243
446.626953	723.262695	14740.991211	7233.592285	46.443542
446.984161	716.426819	14963.230469	7347.944824	46.547409
447.341309	709.293762	15168.676758	7453.825684	46.644672
447.698456	711.820007	15332.664063	7536.822266	46.679951
448.055542	715.832458	15455.559570	7599.311035	46.700176
448.412598	723.411316	15442.557617	7607.632813	46.770523
448.769653	724.451477	15393.666992	7588.313965	46.790928
449.126617	733.293640	15197.284180	7516.240234	46.895405
449.483582	733.219238	15048.604492	7472.327637	47.075985
449.840515	726.457764	14786.687500	7354.260254	47.138653
450.197388	719.176025	14614.007813	7279.957520	47.217419
450.554230	722.668274	14483.235352	7215.685547	47.185680
450.911041	725.491760	14394.815430	7190.273926	47.294090
451.267822	725.937683	14322.293945	7155.723145	47.290504
451.624573	724.674500	14185.801758	7119.018066	47.502293
451.981262	716.575439	14086.012695	7082.833496	47.617992
452.337921	717.615662	13967.351563	7029.260254	47.636002
452.694580	714.123474	13902.187500	6988.021973	47.572548
453.051147	716.649719	13931.536133	6995.527344	47.513668
453.407715	716.501160	13896.762695	6996.047363	47.643562
453.764221	719.696106	13948.179688	7050.064941	47.854076
454.120728	723.411316	13827.364258	7009.199219	47.968639
454.477142	721.627991	13806.784180	7006.746094	48.032429
454.833557	722.816895	13694.808594	6938.017090	47.912457
455.189911	723.857178	13571.093750	6892.914551	48.018559
455.546265	727.497986	13421.523438	6838.079590	48.137463
455.902557	727.646545	13309.549805	6802.636719	48.283554
456.258820	720.959290	13323.964844	6818.760254	48.383701
456.615051	718.061462	13378.429688	6860.369629	48.516029
456.971252	722.965515	13363.493164	6876.568848	48.681541
457.327393	730.990234	13458.601563	6950.425293	48.865688
457.683502	733.962341	13635.291992	7031.712402	48.814735
458.039612	729.429871	13994.174805	7210.558594	48.859806
458.395630	728.983948	14305.651367	7392.600098	49.081387
458.751648	728.538086	14641.424805	7577.243652	49.225624
459.107605	721.256531	15080.406250	7797.773438	49.282288
459.463562	720.662109	15574.221680	8025.214355	49.177116
459.819458	717.392822	16056.594727	8261.868164	49.184277
460.175323	716.798340	16471.501953	8460.553711	49.152023
460.531158	718.432922	16925.490234	8667.041992	49.044121
460.886932	719.919006	17259.408203	8787.783203	48.779408
461.242676	719.547546	17508.248047	8901.836914	48.736881
461.598419	716.501160	17497.845703	8892.921875	48.723278
461.954102	716.724060	17263.123047	8832.809570	49.050465
462.309723	729.949951	16859.138672	8630.335938	48.981918
462.665344	733.888000	16372.602539	8375.774414	48.865181
463.020905	737.380188	15941.277344	8173.521973	48.909443
463.376373	730.841614	15580.389648	8029.820313	49.152866
463.731873	726.829285	15266.014648	7919.555176	49.471313
464.087341	726.011902	15035.081055	7812.113770	49.521755
464.442749	726.160583	14889.745117	7753.488770	49.615463
464.798126	726.234863	14784.085938	7724.733887	49.783562
465.153503	723.336914	14841.372070	7758.021973	49.827648
465.508820	716.426819	14851.776367	7741.898438	49.701435
465.864105	712.117249	14946.734375	7785.438965	49.690987
466.219330	714.494934	15146.238281	7881.289551	49.659935
466.574524	718.581543	15344.477539	7998.167969	49.771900
466.929657	722.891113	15539.226563	8100.557129	49.794132
467.284790	725.640381	15693.403320	8186.153809	49.843880
467.639893	724.154297	15821.204102	8243.739258	49.808308
467.994934	724.897278	16082.971680	8343.750000	49.608124
468.349945	723.411316	16210.698242	8401.409180	49.576134
468.704926	720.736328	16287.899414	8457.358398	49.698341
469.059875	719.176025	16139.516602	8401.038086	49.816425
469.414764	715.089355	15990.243164	8341.520508	49.927032
469.769653	719.547546	15840.820313	8290.102539	50.065598
470.124451	720.067627	15734.937500	8277.323242	50.331810
470.479248	717.541321	15620.437500	8209.039063	50.268734
470.834015	717.169922	15533.429688	8142.687012	50.117352
471.188721	722.371094	15553.342773	8156.135254	50.123245
471.543365	726.234863	15604.834961	8197.298828	50.213490
471.898010	729.058350	15686.195313	8275.762695	50.455540
472.252625	724.080078	15822.838867	8327.329102	50.356781
472.607178	726.903503	15983.183594	8438.411133	50.546448
472.961700	726.011902	16173.622070	8513.012695	50.409096
473.316193	728.166687	16413.619141	8622.831055	50.331123
473.670654	727.572266	16589.494141	8700.402344	50.263962
474.025055	728.389465	16808.685547	8807.547852	50.242596
474.379456	726.457581	17004.919922	8903.546875	50.232567
474.733795	718.878845	17188.669922	9026.071289	50.438965
475.088104	713.306091	17378.886719	9123.854492	50.466583
475.442383	713.826233	17377.845703	9162.713867	50.701378
475.796570	721.776672	17457.572266	9203.358398	50.679291
476.150787	725.566101	17524.371094	9245.487305	50.717422
476.504944	723.114075	17705.447266	9337.399414	50.724979
476.859070	719.473206	17901.310547	9428.643555	50.688232
477.213135	726.606262	18121.320313	9569.225586	50.835091
477.567200	729.875549	18423.955078	9767.761719	51.078587
477.921173	728.315247	18732.904297	9938.286133	51.153461
478.275146	721.256531	19141.123047	10144.252930	51.156700
478.629089	722.371094	19444.353516	10282.828125	51.065411
478.983002	723.262695	19814.753906	10485.227539	51.132542
479.336823	722.816895	20138.861328	10659.542969	51.177914
479.690643	721.925232	20502.349609	10858.450195	51.245239
480.044403	724.823059	20908.710938	11060.331055	51.206722
480.398163	723.559875	21426.675781	11348.105469	51.318584
480.751862	720.587708	22152.166016	11738.864258	51.411411
481.105499	722.742493	23046.326172	12225.992188	51.529583
481.459137	727.200684	24208.419922	12872.948242	51.725372
481.812744	728.018066	25597.287109	13665.905273	52.023590
482.166290	723.782898	27302.978516	14622.256836	52.290798
482.519806	724.005676	29321.337891	15773.129883	52.624226
482.873291	727.869446	31688.771484	17048.388672	52.713322
483.226715	729.206970	34352.972656	18489.861328	52.821728
483.580139	718.878723	37052.539063	19916.771484	52.837761
483.933502	721.999512	39992.996094	21444.435547	52.767788
484.286804	731.435974	42836.859375	22864.955078	52.566910
484.640106	737.305847	45566.074219	24209.982422	52.360741
484.993347	730.693054	47640.675781	25242.343750	52.252522
485.346558	721.033630	48884.656250	25867.228516	52.209934
485.699738	721.479492	49043.066406	25957.208984	52.224548
486.052887	718.804504	48244.457031	25561.398438	52.271969
486.405975	719.473206	46833.300781	24878.187500	52.389305
486.759064	719.993347	45016.156250	23926.515625	52.389462
487.112061	732.699158	43216.621094	22965.187500	52.331535
487.464996	729.652649	41803.679688	22183.298828	52.231659
487.817963	725.789001	41069.566406	21804.580078	52.247936
488.170868	712.934570	40851.710938	21624.990234	52.099380
488.523743	718.210144	40998.085938	21670.388672	52.016491
488.876587	710.408386	41222.480469	21666.375000	51.727711
489.229401	716.426758	41287.644531	21659.986328	51.621716
489.582153	705.058411	40882.699219	21450.228516	51.633617
489.934845	710.631165	40110.468750	21107.693359	51.769409
490.287537	706.990417	39139.625000	20673.767578	51.952667
490.640198	718.061523	38262.410156	20262.947266	52.058132
490.992798	718.953125	37500.656250	19903.025391	52.156563
491.345337	727.497986	37025.417969	19659.310547	52.156738
491.697876	732.253357	36762.089844	19489.677734	52.060810
492.050354	746.222229	36981.800781	19558.185547	51.915726
492.402832	745.033386	37332.363281	19687.767578	51.774029
492.755219	742.878601	37589.671875	19756.203125	51.601028
493.107605	729.504150	37402.425781	19618.222656	51.505901
493.459930	722.222473	36855.933594	19331.414063	51.500916
493.812225	718.655945	35841.402344	18807.505859	51.501808
494.164490	717.838562	34416.058594	18097.837891	51.575428
494.516724	723.857117	32655.154297	17209.177734	51.627468
494.868896	720.513489	30925.312500	16355.143555	51.762074
495.221039	725.714661	29468.830078	15618.803711	51.814457
495.573120	717.244141	28261.708984	14992.581055	51.826519
495.925201	732.401855	27520.837891	14639.718750	51.915375
496.277222	737.305847	27037.943359	14374.531250	51.851315
496.629211	739.757874	26861.177734	14299.781250	51.911510
496.981140	722.816895	26752.470703	14225.776367	51.875290
497.333069	722.371094	26822.835938	14256.239258	51.852978
497.684967	727.646545	26881.833984	14308.920898	51.927723
498.036804	726.754883	26952.867188	14339.534180	51.905437
498.388580	722.891174	26927.009766	14319.620117	51.887753
498.740326	713.529053	26929.833984	14279.347656	51.745731
499.092072	712.117249	26795.937500	14211.807617	51.755035
499.443756	715.015076	26567.607422	14148.799805	51.963013
499.795410	721.999512	26296.103516	14012.156250	51.967243
500.147003	733.665100	25981.208984	13847.055664	51.939274
500.498566	728.538147	25673.001953	13671.032227	51.885239
500.850098	731.956116	25353.275391	13509.202148	51.895054
501.201599	732.773438	25087.794922	13363.567383	51.861149
501.553009	739.980774	24815.921875	13218.082031	51.828094
501.904449	736.265625	24599.701172	13128.696289	51.930622
502.255859	736.191345	24443.812500	13052.981445	51.952873
502.607178	730.470032	24357.546875	13028.165039	52.049164
502.958405	734.110840	24267.865234	12985.737305	52.059807
503.309692	722.816895	24186.353516	12958.617188	52.148151
503.660919	719.324707	24213.025391	12953.342773	52.073608
504.012115	717.021301	24239.330078	12987.448242	52.165062
504.363251	728.761047	24314.080078	13039.163086	52.195194
504.714294	727.646545	24314.822266	13060.413086	52.285896
505.065369	728.835388	24387.119141	13081.069336	52.211033
505.416443	726.160461	24451.390625	13082.183594	52.079678
505.767395	736.117126	24518.783203	13113.390625	52.043255
506.118317	733.813660	24511.947266	13118.370117	52.083805
506.469238	727.423584	24516.259766	13124.387695	52.112530
506.820160	718.433044	24515.068359	13123.941406	52.131359
507.170929	726.606262	24578.896484	13149.129883	52.081051
507.521729	727.497864	24640.044922	13218.304688	52.235367
507.872498	722.891113	24748.677734	13276.039063	52.248646
508.223236	715.832336	24864.439453	13358.440430	52.353363
508.573883	715.015137	25005.763672	13430.737305	52.348007
508.924500	725.268860	25156.968750	13527.034180	52.398178
509.275116	728.761047	25318.650391	13585.434570	52.284393
509.625702	729.429871	25512.138672	13693.916992	52.312634
509.976196	729.949890	25750.203125	13805.817383	52.261127
510.326660	728.983948	26007.291016	13952.565430	52.311974
510.677124	732.624756	26257.837891	14065.059570	52.232414
511.027557	736.860046	26456.822266	14206.753906	52.371357
511.377869	733.888000	26658.257813	14334.554688	52.462864
511.728180	736.265625	26780.853516	14434.269531	52.594437
512.078430	728.909668	26911.775391	14474.913086	52.500000
512.428650	722.891174	26987.416016	14505.153320	52.474819
512.778931	715.535217	27081.853516	14544.757813	52.450336
513.129028	716.724060	27152.072266	14567.418945	52.394604
513.479126	718.581604	27236.554688	14587.926758	52.301678
513.829285	726.160461	27317.244141	14587.704102	52.128540
514.179382	727.943665	27342.880859	14593.500000	52.096897
514.529297	729.206848	27331.810547	14610.515625	52.180264
514.879272	721.256409	27344.068359	14637.488281	52.271832
515.229187	715.683777	27276.826172	14633.252930	52.398232
515.579163	719.324646	27295.400391	14664.682617	52.473354
515.928955	715.535156	27295.548828	14695.963867	52.597523
516.278748	718.210144	27469.937500	14792.929688	52.612377
516.628540	715.238037	27678.281250	14901.856445	52.615047
516.978333	720.959290	27983.740234	15099.129883	52.739193
517.327942	725.194519	28340.468750	15307.399414	52.804855
517.677612	726.309082	28801.218750	15576.895508	52.896290
518.027222	724.971680	29323.939453	15816.374023	52.769043
518.376831	725.640381	29946.375000	16137.807617	52.743942
518.726379	724.748718	30522.517578	16447.576172	52.765114
519.075867	724.302917	31028.445313	16720.044922	52.784012
519.425293	727.052063	31512.078125	16968.511719	52.757664
519.774658	724.600159	31866.724609	17098.097656	52.576687
520.124084	730.247131	32076.781250	17184.957031	52.492916
520.473389	725.640381	32032.201172	17114.814453	52.350605
520.822693	727.869446	31863.531250	17038.876953	52.386898
521.171997	730.395691	31540.763672	16896.736328	52.470459
521.521240	731.733154	31202.312500	16739.066406	52.533733
521.870361	732.550476	30808.734375	16534.064453	52.538292
522.219482	729.058289	30542.802734	16368.887695	52.458454
522.568604	725.566101	30234.447266	16199.776367	52.439163
522.917664	715.832336	30026.994141	16103.851563	52.498837
523.266724	715.237976	29900.751953	16089.437500	52.677502
523.615662	715.683777	30034.718750	16210.846680	52.850182
523.964600	728.315247	30330.443359	16402.919922	52.950935
524.313538	726.309082	30793.351563	16630.955078	52.897274
524.662354	732.773438	31304.033203	16923.855469	52.961777
525.011169	737.008728	32028.562500	17317.660156	52.987629
525.359985	741.020996	32827.984375	17792.082031	53.140152
525.708740	736.414246	33832.332031	18365.105469	53.265457
526.057434	738.643311	34949.773438	18977.433594	53.312450
526.406067	730.692932	36279.269531	19702.033203	53.367367
526.754700	724.748779	37780.261719	20503.615234	53.376316
527.103333	720.067688	39501.332031	21479.580078	53.529743
527.451782	721.182190	41415.371094	22594.046875	53.749359
527.800293	732.773438	43362.917969	23730.728516	53.947636
528.148743	722.148132	45291.449219	24865.181641	54.169647
528.497131	720.736328	47091.136719	25883.873047	54.265518
528.845642	714.940735	48792.449219	26865.560547	54.392628
529.193909	716.946960	50341.136719	27729.849609	54.434948
529.542175	711.597168	51640.390625	28477.037109	54.518158
529.890503	707.733398	52523.328125	29019.150391	54.638798
530.238770	714.197754	52831.531250	29253.427734	54.759579
530.586914	727.200684	52720.824219	29104.599609	54.578609
530.934998	722.593933	51970.144531	28556.617188	54.312885
531.283142	722.445313	50811.105469	27741.664063	53.942787
531.631226	722.222412	49007.175781	26728.992188	53.861023
531.979248	732.847717	47010.144531	25608.953125	53.754448
532.327148	732.401917	44964.074219	24454.212891	53.630825
532.675110	730.915833	43314.472656	23487.015625	53.438698
533.023071	730.544250	42253.281250	22850.093750	53.270931
533.370850	731.213074	41752.777344	22563.062500	53.220425
533.718689	723.114075	41808.730469	22546.937500	53.117916
534.066467	718.135925	42037.582031	22645.240234	53.067276
534.414246	719.176086	42262.347656	22744.287109	53.017403
534.761963	724.600098	42373.429688	22799.791016	53.003151
535.109619	731.881836	42431.609375	22774.898438	52.861294
535.457153	734.110840	42218.363281	22623.171875	52.764744
535.804749	739.534973	41639.246094	22340.078125	52.813438
536.152344	733.813660	40845.320313	21952.443359	52.899105
536.499817	728.686829	39882.875000	21438.935547	52.894081
536.847229	724.451477	38920.878906	20901.208984	52.823681
537.194641	722.148132	37995.363281	20368.753906	52.709717
537.542114	720.662109	37349.750000	19941.958984	52.475502
537.889404	720.513489	36892.714844	19645.937500	52.320351
538.236694	722.371094	36538.363281	19449.330078	52.286583
538.583984	725.566101	36284.691406	19361.505859	52.408318
538.931213	726.086182	36114.761719	19318.261719	52.537075
539.278381	722.891113	36002.714844	19274.572266	52.584393
539.625488	718.210144	35900.921875	19301.617188	52.819710
539.972595	717.467102	35950.035156	19379.634766	52.968517
540.319641	709.888184	36259.953125	19617.849609	53.186852
540.666687	710.556946	36799.242188	19928.435547	53.251816
541.013611	710.408386	37688.347656	20405.681641	53.262230
541.360596	717.095520	38732.746094	20968.970703	53.272465
541.707458	715.981018	40031.851563	21619.492188	53.168125
542.054260	718.210144	41243.730469	22244.453125	53.117744
542.401062	724.451599	42419.644531	22804.250000	52.955265
542.747864	726.160461	43312.097656	23240.703125	52.868492
543.094666	726.309082	43824.343750	23412.638672	52.638897
543.441284	728.092346	43770.027344	23359.513672	52.579937
543.787903	727.572266	43307.937500	23094.474609	52.528675
544.134460	728.389587	42395.277344	22620.943359	52.541855
544.481079	722.668274	41192.460938	21974.734375	52.513405
544.827637	726.829285	39689.691406	21156.212891	52.432961
545.174072	723.857117	38105.480469	20305.298828	52.382530
545.520508	723.485596	36716.839844	19549.343750	52.303703
545.866943	718.730225	35478.957031	18874.302734	52.230881
546.213318	722.296692	34539.097656	18371.718750	52.191280
546.559631	723.262695	33726.527344	17931.103516	52.139809
546.905823	723.337097	33061.441406	17592.582031	52.165222
547.252136	720.736389	32523.861328	17314.464844	52.176411
547.598389	718.507324	32056.275391	17052.250000	52.121590
547.944458	716.575500	31740.859375	16857.056641	52.025314
548.290588	715.089355	31368.306641	16609.181641	51.851303
548.636658	719.473328	30905.771484	16377.656250	51.871819
548.982727	726.680664	30299.685547	16112.098633	52.025211
549.328735	730.841614	29731.789063	15828.709961	52.059914
549.674622	726.903503	29099.916016	15488.921875	52.028381
550.020569	726.531982	28502.748047	15140.590820	51.893528
550.366455	729.578430	27778.072266	14776.135742	51.931015
550.712280	728.538147	27131.341797	14403.062500	51.791943
551.058044	726.903503	26562.703125	14111.422852	51.806099
551.403748	721.405090	26057.443359	13877.666992	51.927067
551.749512	723.782776	25730.140625	13755.141602	52.112183
552.095154	722.371094	25497.275391	13596.877930	51.965919
552.440735	732.699158	25416.880859	13529.262695	51.841148
552.786316	733.219238	25338.492188	13526.512695	51.994110
553.131897	732.624817	25334.330078	13548.877930	52.094978
553.477417	717.318420	25356.396484	13555.639648	52.105526
553.822815	716.575439	25389.833984	13505.187500	51.831875
554.168213	718.061523	25414.650391	13485.647461	51.697769
554.513672	721.330872	25383.517578	13445.002930	51.591824
554.859009	719.324646	25273.177734	13389.870117	51.603085
555.204285	719.621887	25099.906250	13330.055664	51.723896
555.549500	715.758118	24898.544922	13238.664063	51.784378
555.894714	724.302917	24720.218750	13126.319336	51.683865
556.239990	722.816895	24462.685547	12977.194336	51.619396
556.585022	730.395752	24209.015625	12865.516602	51.685837
556.930115	724.525879	23925.552734	12751.460938	51.837944
557.275146	728.538269	23680.203125	12637.183594	51.885761
557.620178	724.377258	23486.125000	12520.750977	51.825432
557.965149	723.039734	23303.193359	12438.127930	51.882233
558.310059	720.439148	23138.312500	12323.476563	51.757977
558.654968	723.039795	22969.201172	12237.510742	51.759357
558.999756	718.210144	22886.130859	12145.151367	51.547195
559.344604	722.222473	22848.013672	12132.965820	51.572136
559.689331	724.971680	22796.890625	12111.640625	51.588943
560.033997	729.578430	22684.916016	12082.440430	51.708893
560.378723	725.789001	22645.015625	12069.288086	51.751366
560.723389	720.736389	22634.687500	12048.631836	51.692619
561.067932	718.433044	22713.896484	12070.476563	51.610844
561.412476	721.627991	22689.599609	12073.225586	51.673401
561.757019	726.011902	22717.460938	12093.288086	51.689529
562.101501	731.956055	22710.179688	12083.554688	51.649303
562.445862	730.098450	22733.437500	12075.752930	51.563328
562.790222	728.389465	22733.958984	12074.934570	51.562149
563.134644	728.463806	22720.955078	12086.750000	51.646198
563.478943	734.036438	22735.146484	12085.040039	51.592869
563.823181	727.200684	22770.664063	12062.155273	51.420937
564.167358	727.349304	22807.740234	12054.129883	51.297916
564.511536	721.999512	22849.796875	12086.081055	51.356590
564.855774	731.956055	22830.476563	12101.088867	51.447487
565.199768	729.132568	22896.531250	12134.526367	51.451206
565.543823	721.850891	22951.960938	12167.218750	51.485882
565.887817	717.912903	23140.244141	12260.394531	51.477615
566.231812	719.919128	23267.525391	12361.967773	51.633194
566.575745	728.315247	23499.646484	12434.338867	51.406845
566.919617	724.154297	23689.787109	12513.024414	51.332661
567.263428	725.714661	23885.351563	12571.648438	51.149048
567.607239	721.702332	24058.404297	12641.790039	51.078720
567.950989	724.525818	24132.408203	12678.495117	51.068138
568.294678	719.844727	24209.757813	12721.070313	51.090973
568.638367	717.689941	24096.521484	12724.489258	51.357563
568.981995	716.129639	24022.218750	12696.032227	51.402454
569.325623	726.234802	23867.000000	12629.902344	51.440250
569.669128	733.813660	23757.923828	12517.110352	51.178078
570.012573	734.482422	23614.000000	12446.894531	51.191692
570.356140	727.200745	23580.562500	12396.963867	51.063660
570.699524	717.987122	23511.906250	12397.186523	51.238220
571.042908	723.782776	23520.677734	12386.114258	51.157543
571.386230	718.358704	23580.640625	12392.801758	51.064209
571.729492	727.275085	23690.310547	12436.789063	50.992882
572.072815	721.850891	23848.646484	12516.515625	51.000000
572.416016	726.086243	23908.978516	12602.929688	51.231068
572.759094	723.336975	24048.671875	12684.440430	51.279453
573.102234	722.816895	24117.548828	12705.839844	51.221031
573.445374	718.878906	24194.376953	12713.938477	51.096081
573.788391	715.906738	24226.177734	12686.668945	50.917156
574.131409	717.169861	24279.083984	12702.198242	50.866108
574.474365	719.250305	24297.138672	12698.557617	50.807381
574.817261	721.256531	24192.890625	12675.226563	50.929428
575.160156	721.330811	24023.630859	12557.902344	50.795719
575.502930	718.433044	23805.775391	12428.764648	50.721874
575.845703	720.810730	23636.734375	12307.725586	50.562721
576.188477	735.002502	23419.177734	12216.778320	50.615791
576.531250	734.036621	23223.242188	12112.532227	50.595367
576.873901	728.389587	22974.548828	11987.257813	50.610390
577.216431	715.609558	22722.439453	11867.333008	50.673920
577.559082	716.649719	22459.705078	11742.875977	50.711487
577.901611	717.541321	22224.017578	11613.366211	50.662994
578.244080	718.061523	22005.345703	11489.652344	50.601055
578.586487	726.977844	21728.271484	11322.247070	50.450558
578.928955	767.472839	21454.093750	11211.463867	50.486694
579.271301	763.460449	21100.857422	11031.055664	50.486282
579.613647	755.658691	20740.341797	10880.666992	50.663837
579.955872	716.278259	20392.455078	10692.681641	50.702953
580.298157	717.912903	20104.978516	10553.883789	50.734703
580.640320	721.033508	19884.968750	10442.875977	50.729885
580.982483	723.559875	19662.728516	10317.377930	50.655964
581.324524	723.336975	19465.677734	10211.050781	50.621822
581.666626	729.058289	19282.892578	10128.352539	50.659576
582.008728	727.646484	19133.544922	10055.164063	50.676785
582.350647	730.470032	19011.169922	9986.657227	50.633663
582.692566	727.423645	18953.435547	9916.143555	50.415417
583.034424	723.782776	18910.042969	9873.791016	50.312752
583.376343	720.959290	18843.023438	9834.559570	50.290081
583.718201	719.027527	18774.662109	9829.284180	50.456585
584.059937	719.993347	18675.466797	9806.696289	50.606873
584.401611	715.015137	18606.218750	9767.984375	50.600113
584.743347	712.191589	18529.685547	9687.514648	50.373657
585.085022	707.882019	18476.189453	9629.707031	50.212017
585.426514	715.015137	18363.916016	9586.389648	50.265881
585.768127	714.643555	18261.898438	9560.829102	50.413506
586.109619	714.420654	18156.537109	9514.910156	50.455395
586.451172	708.625061	18144.873047	9480.432617	50.307884
586.792542	711.448547	18121.466797	9433.250977	50.096462
587.133850	721.999573	18121.914063	9414.229492	49.955589
587.475220	725.045959	18100.216797	9409.919922	49.984398
587.816589	725.491760	18054.966797	9421.362305	50.179653
588.157776	722.668274	18072.353516	9454.872070	50.330620
588.498962	729.132629	18123.400391	9485.039063	50.337883
588.840210	720.142029	18153.492188	9502.649414	50.377628
589.181335	726.754883	18217.320313	9497.224609	50.144001
589.522400	724.377197	18224.525391	9499.602539	50.143723
589.863403	729.875671	18306.408203	9527.836914	50.055157
590.204407	726.754883	18288.576172	9534.897461	50.155067
590.545410	729.132568	18367.039063	9562.462891	50.081512
590.886353	741.987000	18389.849609	9568.110352	50.012417
591.227112	737.825989	18399.210938	9556.667969	49.932899
591.567932	732.179016	18358.269531	9519.070313	49.851620
591.908752	728.240967	18278.171875	9456.581055	49.734325
592.249512	730.470032	18282.705078	9445.659180	49.652878
592.590149	731.436035	18207.064453	9396.842773	49.585663
592.930786	729.504150	18162.111328	9374.477539	49.590824
593.271423	723.559875	18046.568359	9326.477539	49.661804
593.612000	723.411316	17934.818359	9289.547852	49.770115
593.952576	718.804504	17897.814453	9267.628906	49.763195
594.292969	719.250305	17882.732422	9273.500000	49.839828
594.633484	717.541321	17962.904297	9301.661133	49.776394
594.973877	718.358704	18033.791016	9333.610352	49.754765
595.314209	728.761169	18145.615234	9379.307617	49.667679
595.654480	729.652771	18286.642578	9461.931641	49.736767
595.994812	731.361755	18443.496094	9525.534180	49.650555
596.335022	725.566101	18642.626953	9601.471680	49.538849
596.675171	727.275085	18764.037109	9651.329102	49.477028
597.015320	722.519714	18923.044922	9737.297852	49.530319
597.355408	728.315247	19015.031250	9798.745117	49.601192
597.695496	722.073914	19173.148438	9859.227539	49.520985
598.035461	720.142029	19187.044922	9867.772461	49.535275
598.375366	711.299988	19227.539063	9859.749023	49.407711
598.715271	720.810730	19185.484375	9833.519531	49.352127
599.055176	730.841492	19076.556641	9757.657227	49.203945
599.395081	730.098450	18905.212891	9667.453125	49.173576
599.734802	731.956055	18651.990234	9538.538086	49.143776
600.074524	726.680603	18374.691406	9405.684570	49.178368
600.414246	730.395691	18018.560547	9231.147461	49.170937
600.753906	728.166687	17672.457031	9059.285156	49.167702
601.093506	726.531982	17320.412109	8894.036133	49.219975
601.433044	728.761047	17075.287109	8758.359375	49.121128
601.772583	732.996399	16888.710938	8660.577148	49.069820
602.112122	739.014893	16850.072266	8616.217773	48.893147
602.451538	730.395813	16836.402344	8615.252930	48.956001
602.790894	728.315369	16900.005859	8628.477539	48.851803
603.130310	728.315247	16994.962891	8692.229492	48.958546
603.469604	732.104736	17149.812500	8746.024414	48.812664
603.808838	720.513489	17357.933594	8857.924805	48.910294
604.148010	723.708496	17604.693359	8981.119141	48.915455
604.487305	727.943787	17835.626953	9120.510742	49.057297
604.826416	734.110840	18046.349609	9211.605469	48.968216
605.165527	725.789001	18246.296875	9280.335938	48.825909
605.504456	723.485596	18442.380859	9359.915039	48.741356
605.843445	726.309082	18580.064453	9437.784180	48.793514
606.182434	729.504150	18687.208984	9459.628906	48.614925
606.521423	732.104736	18645.228516	9419.207031	48.495747
606.860229	729.578430	18548.337891	9351.591797	48.387283
607.199036	730.024231	18376.994141	9287.022461	48.489899
607.537903	728.761047	18198.966797	9233.598633	48.681957
607.876648	727.572266	17945.294922	9097.105469	48.609989
608.215271	720.885010	17642.212891	8955.781250	48.665779
608.553955	717.615723	17330.960938	8784.439453	48.556286
608.892578	725.937683	17085.689453	8683.758789	48.642677
609.231140	726.234863	16892.947266	8582.781250	48.597054
609.569641	725.491699	16780.304688	8526.534180	48.590057
609.908081	716.352539	16749.988281	8488.342773	48.473038
610.246521	724.525818	16790.185547	8492.503906	48.351440
610.584961	728.463867	16829.123047	8501.791992	48.279564
610.923340	726.754883	16829.492188	8494.880859	48.241028
611.261597	723.559875	16762.546875	8473.854492	48.321594
611.599854	718.135742	16723.091797	8432.764648	48.201500
611.938110	721.627991	16651.166016	8395.761719	48.175495
612.276245	720.364807	16511.031250	8312.096680	48.077339
612.614319	723.782776	16244.061523	8199.083008	48.164730
612.952393	723.782898	15944.843750	8050.923340	48.138176
613.290466	728.612488	15622.742188	7901.500000	48.159161
613.628479	722.891174	15321.518555	7743.011719	48.087540
613.966370	727.795105	15020.666992	7599.162598	48.075485
614.304260	720.959290	14788.543945	7493.206543	48.140793
614.642151	722.073914	14581.686523	7397.281738	48.163021
614.979980	715.015137	14417.699219	7320.378418	48.204887
615.317749	714.420654	14259.210938	7217.766113	48.013634
615.655396	723.114075	14167.968750	7159.216309	47.870373
615.993164	718.953125	14052.575195	7103.414063	47.882420
616.330811	724.823059	14006.879883	7077.110840	47.826084
616.668396	711.820129	13922.916992	7049.247559	47.970486
617.005859	723.559875	13938.745117	7028.814941	47.712193
617.343445	720.662109	13938.000977	7038.399902	47.798862
617.680908	730.990173	13984.515625	7019.006348	47.444103
618.018311	726.531982	13994.843750	7024.281738	47.464592
618.355652	724.005676	14019.140625	7021.607422	47.367714
618.692993	725.789001	14038.980469	7039.736816	47.426250
619.030273	727.497864	14045.370117	7056.083984	47.519497
619.367554	733.665039	14033.182617	7054.746094	47.528648
619.704712	729.875671	13996.625977	7061.582031	47.726131
620.041870	733.144958	13989.566406	7048.876465	47.642807
620.379028	727.572266	13983.920898	7043.601563	47.645317
620.716064	730.544373	13966.534180	7018.857910	47.509205
621.053040	720.662109	13905.233398	6973.682129	47.426800
621.389954	718.284363	13814.137695	6926.425293	47.405396
621.726929	714.494934	13728.765625	6886.078125	47.421658
622.063843	719.176025	13662.188477	6896.480469	47.726948
622.400635	723.782776	13623.254883	6863.268066	47.594860
622.737427	727.275085	13600.444336	6853.608887	47.589943
623.074219	724.600159	13540.928711	6787.331543	47.304745
623.410889	728.092346	13486.539063	6742.749512	47.142551
623.747559	722.891174	13466.328125	6722.984863	47.083797
624.084167	734.333801	13464.768555	6705.375000	46.903671
624.420715	725.343201	13444.112305	6728.556641	47.199638
624.757324	727.646545	13421.151367	6717.708984	47.189980
625.093750	723.039734	13433.411133	6754.935059	47.456486
625.430176	728.686768	13456.073242	6752.334473	47.328236
625.766602	736.340027	13462.463867	6748.247559	47.240681
626.102905	729.652649	13516.036133	6754.710938	47.120892
626.439209	724.377197	13601.929688	6783.838379	47.054443
626.775452	716.055359	13714.276367	6835.404785	47.078365
627.111694	715.237976	13789.171875	6863.788574	47.029079
627.447876	718.581604	13858.424805	6885.187500	46.930592
627.783997	716.203918	13925.445313	6907.700684	46.872463
628.120056	719.324646	14022.112305	6935.936035	46.731644
628.456055	721.627991	14068.625977	6952.580078	46.684296
628.792053	721.182190	14053.022461	6937.868652	46.630371
629.128052	719.398926	13962.596680	6895.441406	46.635586
629.463928	718.730225	13858.200195	6874.189941	46.847095
629.799744	726.011902	13752.690430	6825.894043	46.826077
630.135559	722.891113	13635.812500	6767.640625	46.811634
630.471375	718.433044	13492.706055	6679.146484	46.661858
630.807068	721.256531	13346.477539	6602.167969	46.580666
631.142700	724.080078	13236.731445	6544.286621	46.514576
631.478333	729.652771	13102.838867	6475.853516	46.440750
631.813965	719.993408	12986.109375	6394.492188	46.261578
632.149475	715.683838	12792.997070	6337.428223	46.547970
632.484924	717.615723	12713.641602	6294.926270	46.492989
632.820435	723.485596	12605.828125	6277.465332	46.741451
633.155884	732.699158	12558.942383	6230.803223	46.490707
633.491150	742.284180	12498.534180	6198.556152	46.411671
633.826477	745.776428	12454.027344	6154.494629	46.195782
634.161804	736.265686	12386.040039	6118.234375	46.198051
634.497009	722.593994	12286.252930	6069.046387	46.234951
634.832153	708.253601	12186.834961	6038.284668	46.434582
635.167297	707.882080	12130.586914	6007.300781	46.393730
635.502380	711.597168	12080.136719	5974.161621	46.290596
635.837463	718.878845	12008.359375	5931.585938	46.173134
636.172424	725.343079	11925.289063	5891.313965	46.124958
636.507324	726.309082	11832.485352	5849.185059	46.126373
636.842224	727.720886	11761.229492	5788.850098	45.870533
637.177124	730.470032	11660.401367	5722.869629	45.676399
637.511963	726.309082	11538.840820	5665.730957	45.682381
637.846741	721.330811	11405.020508	5614.462402	45.800018
638.181396	709.813904	11251.808594	5557.174316	45.981434
638.516113	707.882019	11151.278320	5516.308594	46.042747
638.850769	717.689941	11029.421875	5471.355469	46.099583
639.185303	726.532043	10980.827148	5432.643066	45.894047
639.519836	725.566101	10914.475586	5381.671387	45.697781
639.854370	715.683838	10826.872070	5350.018555	45.833733
640.188843	717.764343	10715.715820	5300.310059	45.834850
640.523254	720.067688	10588.954102	5250.230469	45.903481
640.857605	723.931396	10525.575195	5184.249512	45.505821
641.191895	716.055359	10454.319336	5149.029785	45.521202
641.526184	716.352539	10411.965820	5106.603027	45.280792
641.860413	712.340149	10340.040039	5105.934082	45.634926
642.194580	713.454773	10264.995117	5087.804199	45.797321
642.528748	715.312317	10165.206055	5066.405273	46.043827
642.862793	720.662109	10119.956055	5017.960449	45.719376
643.196838	723.039795	10083.547852	4968.326172	45.353161
643.530823	730.544373	10049.815430	4959.187012	45.375248
643.864746	730.247131	9970.831055	4926.864746	45.415070
644.198669	736.117004	9907.896484	4922.184082	45.640728
644.532532	728.983948	9873.642578	4891.125488	45.514458
644.866333	732.327637	9840.354492	4883.174805	45.573505
645.200073	732.179016	9838.794922	4867.794434	45.413303
645.533813	729.058289	9816.503906	4846.915039	45.313690
645.867554	723.411316	9814.051758	4833.317871	45.210308
646.201172	721.033508	9775.636719	4816.599609	45.231865
646.534729	724.080017	9797.333008	4832.574707	45.281384
646.868225	721.627991	9813.011719	4823.881348	45.122433
647.201782	712.265930	9816.950195	4809.020996	44.996120
647.535217	713.008972	9790.944336	4795.274902	44.969101
647.868591	718.953125	9795.253906	4807.980469	45.051697
648.201965	729.281189	9812.268555	4831.163086	45.160053
648.535278	728.612488	9807.364258	4825.738770	45.128742
648.868591	728.761047	9783.736328	4808.426270	45.054405
649.201782	720.662109	9746.734375	4779.150879	44.964062
649.534912	722.742493	9721.992188	4761.392578	44.877632
649.868103	717.392761	9695.390625	4750.841309	44.925922
650.201172	719.993408	9674.437500	4746.234863	44.963612
650.534180	718.953125	9636.541992	4728.253418	44.959465
650.867188	720.959290	9607.563477	4702.099121	44.799335
651.200134	724.080017	9568.407227	4677.430176	44.699276
651.533020	721.107910	9532.816406	4660.266113	44.703682
651.865845	730.544434	9493.659180	4636.192383	44.569172
652.198608	735.225403	9461.411133	4620.440430	44.523636
652.531433	735.968445	9429.015625	4589.382324	44.327541
652.864136	729.058289	9357.833008	4564.267578	44.446743
653.196777	1342.947388	9988.440430	5176.968262	44.347050
653.529358	1369.473511	9957.307617	5183.952637	44.417240
653.861938	1370.216431	9914.658203	5168.273926	44.450626
654.194519	754.246887	9174.602539	4497.320313	44.452679
654.526978	740.872375	9110.851563	4440.776367	44.204456
654.859375	737.083008	9049.774414	4414.398926	44.237370
655.191833	733.665100	9017.675781	4406.522461	44.336704
655.524170	725.863281	8954.145508	4381.408203	44.426586
655.856445	730.395752	8930.963867	4348.491699	44.120064
656.188660	751.646301	8909.194336	4339.724121	43.984760
656.520874	750.606140	8872.414063	4328.579102	44.053898
656.853088	748.897156	8860.154297	4332.591309	44.181732
657.185181	726.532043	8800.860352	4308.666016	44.364483
657.517212	720.513489	8821.665039	4325.755371	44.502834
657.849243	719.176025	8854.358398	4332.665527	44.418049
658.181274	719.919128	8941.738281	4354.733887	44.209373
658.513123	716.278259	8977.032227	4355.402832	44.053177
658.844971	712.265869	9031.049805	4378.511230	44.071888
659.176819	717.764343	9081.055664	4407.711426	44.120754
659.508667	724.525879	9172.299805	4419.823242	43.742855
659.840393	726.977844	9257.227539	4464.181641	43.811188
660.172058	729.206848	9327.741211	4472.354980	43.532398
660.503662	725.417480	9383.914063	4511.363770	43.725220
660.835266	728.835449	9434.290039	4499.327148	43.311829
661.166931	719.844727	9412.593750	4484.614746	43.309315
661.498413	721.850891	9368.829102	4462.695801	43.261875
661.829773	721.405090	9270.081055	4433.123535	43.418636
662.161194	728.092346	9165.314453	4397.383789	43.489334
662.492615	728.389465	9041.452148	4342.399902	43.473877
662.823975	741.020996	8878.803711	4271.217285	43.380322
663.155212	738.940613	8737.405273	4205.385742	43.338879
663.486450	740.575256	8580.032227	4129.597168	43.230316
663.817627	731.287415	8454.385742	4066.588135	43.186047
664.148743	729.727051	8314.176758	3984.706299	42.916485
664.479858	724.005676	8211.862305	3936.037842	42.896553
664.810913	712.191589	8110.513184	3893.982422	43.006927
665.141907	713.751953	8045.275391	3875.629883	43.127163
665.472778	717.467102	7966.291504	3830.379639	42.943691
665.803711	732.104736	7904.769531	3798.281006	42.748077
666.134583	730.544434	7853.722656	3768.857178	42.653893
666.465454	729.950012	7811.667480	3760.089111	42.788197
666.796143	719.101746	7779.865723	3743.593994	42.835197
667.126831	722.891174	7754.157715	3745.600342	42.989540
667.457458	729.132629	7736.324707	3729.996826	42.825489
667.788147	735.522644	7713.885254	3729.104736	42.898056
668.118774	731.584656	7681.711426	3708.597412	42.833931
668.449219	720.290588	7685.576172	3695.891602	42.720448
668.779663	720.736328	7691.074219	3677.538818	42.419788
669.110107	723.262695	7668.932129	3659.483154	42.274117
669.440552	732.624817	7618.480469	3650.269775	42.371571
669.770874	729.504150	7577.911621	3645.217529	42.575058
670.101135	724.823059	7561.268066	3624.635498	42.416965
670.431396	727.497864	7528.723145	3622.480469	42.565605
670.761597	729.058350	7469.875488	3581.539795	42.316551
671.091797	731.584656	7443.869629	3568.313721	42.261749
671.421875	720.067688	7411.845215	3538.592773	42.119232
671.751892	717.764343	7412.364746	3535.026367	42.082600
672.081909	717.764343	7369.863770	3528.561768	42.254288
672.411865	720.141907	7311.907715	3513.255615	42.372772
672.741821	716.352539	7256.329590	3496.388672	42.508347
673.071716	714.272156	7203.871582	3465.627686	42.396381
673.401550	717.169922	7182.250000	3434.048828	42.023903
673.731262	723.485596	7141.902832	3421.863281	42.041172
674.060974	727.052063	7130.460449	3411.981201	41.929691
674.390625	722.445313	7098.063965	3402.767334	42.040188
674.720276	716.798340	7061.656250	3378.767578	41.954750
675.049927	719.250305	7015.811035	3353.950439	41.843483
675.379395	726.383362	6991.886230	3328.985107	41.538593
675.708923	732.550537	6940.468750	3297.778076	41.321865
676.038330	733.219238	6901.459473	3285.294922	41.374454
676.367737	735.002502	6844.321777	3270.954346	41.509567
676.697083	741.095398	6801.151855	3262.781006	41.611584
677.026428	740.649597	6753.077637	3235.214600	41.490139
677.355652	731.287354	6733.238281	3227.338623	41.587330
677.684875	728.909668	6762.216309	3225.704102	41.383514
678.013977	718.655945	6739.554688	3219.016846	41.528030
678.343079	719.844727	6741.560547	3208.688721	41.331142
678.672180	708.179199	6725.808594	3208.242920	41.545658
679.001221	704.166809	6773.807129	3219.536865	41.441833
679.330139	709.145203	6781.683594	3239.524414	41.669216
679.659058	711.522766	6800.927734	3244.948486	41.603832
679.987976	720.216248	6823.887207	3251.487061	41.471287
680.316772	714.494934	6881.546387	3246.434570	41.055920
680.645630	711.820068	6925.087891	3254.607666	40.925125
680.974304	717.467102	6970.189941	3270.954346	40.838005
681.302979	722.519714	6996.493652	3297.406250	41.040756
681.631653	728.240967	7036.468262	3308.625977	40.905071
681.960266	721.553711	7078.820313	3327.127197	40.985752
682.288757	720.290588	7098.658691	3329.802002	40.911900
682.617249	717.244141	7088.107910	3315.833008	40.788643
682.945679	721.925293	7060.467285	3300.898438	40.687168
683.274109	733.070618	7037.656250	3291.982178	40.588104
683.602478	745.033386	7001.173340	3275.263916	40.443954
683.930725	733.516418	6926.500000	3246.805908	40.582855
684.259033	726.531982	6839.416504	3215.524414	40.717148
684.587280	721.033630	6775.665527	3190.113037	40.780006
684.915344	731.436035	6718.674316	3162.249268	40.599907
685.243469	733.962341	6664.359375	3123.166260	40.287418
685.571533	735.076843	6584.186035	3095.451172	40.354424
685.899536	733.590820	6517.611328	3067.513672	40.351219
686.227539	732.178955	6444.869629	3038.015381	40.363407
686.555420	733.442200	6408.609863	3011.117920	40.134071
686.883301	730.395752	6394.120605	3001.384033	40.097080
687.211121	725.937683	6400.957031	3002.201172	40.110229
687.538940	713.751953	6396.869629	2999.377686	40.217815
687.866638	718.061523	6373.539063	2983.179932	40.051762
688.194336	717.615662	6363.804688	2972.406006	39.934731
688.521973	725.268860	6344.783691	2975.749756	40.047604
688.849609	718.210144	6331.854980	2977.012939	40.237720
689.177063	716.798340	6328.363281	2974.560791	40.234097
689.504578	717.541321	6313.799316	2949.075195	39.875465
689.832031	715.981018	6279.769043	2918.685547	39.590015
690.159485	715.386658	6201.676270	2880.493896	39.463963
690.486816	706.024475	6115.410645	2844.903076	39.540134
690.814087	719.919128	6041.925293	2832.940186	39.703465
691.141296	721.330811	5934.261230	2798.388916	39.844345
691.468506	722.073914	5831.648926	2754.030273	39.767616
691.795715	716.872620	5719.451660	2700.160889	39.645317
692.122803	720.959290	5645.595215	2676.978271	39.719059
692.449829	730.990173	5592.691406	2666.427490	39.809875
692.776855	730.767273	5552.122559	2640.124268	39.602077
693.103821	723.336914	5502.116699	2602.006836	39.312752
693.430664	715.460876	5428.036621	2575.480713	39.469280
693.757568	710.482666	5344.892090	2548.657471	39.663628
694.084351	715.906738	5282.552246	2522.057373	39.550926
694.411133	722.891174	5256.843262	2508.311279	39.378895
694.737854	726.234863	5214.342285	2488.769531	39.271221
695.064575	722.519714	5198.292969	2469.302002	39.027493
695.391174	720.142029	5153.190918	2449.240479	39.004723
695.717773	729.132629	5136.621582	2442.330322	38.870155
696.044250	721.776611	5112.770020	2448.274658	39.319080
696.370789	720.959290	5115.519531	2440.472900	39.128231
696.697205	701.417725	5115.593262	2445.005127	39.499729
697.023621	708.699280	5146.726074	2451.172363	39.262341
697.349915	717.467041	5194.726074	2464.472656	39.019535
697.676208	728.761047	5280.174316	2484.311523	38.571548
698.002380	729.429871	5363.616211	2514.404053	38.517529
698.328674	724.451477	5459.317871	2547.840332	38.509830
698.654724	721.553711	5550.413574	2583.059814	38.549599
698.980896	724.525879	5634.078125	2609.957520	38.403332
699.306946	729.429871	5701.173340	2641.090332	38.450500
699.632935	737.603027	5769.160156	2649.040771	37.988991
699.958862	730.915833	5802.894043	2648.743408	37.812222
700.284729	720.810730	5816.268066	2629.424561	37.457161
700.610596	715.535156	5780.603027	2617.313232	37.546940
700.936340	726.829285	5709.792969	2603.270264	37.657124
701.262146	728.686768	5603.020020	2583.357178	38.049728
701.587830	728.835388	5501.818848	2542.787842	38.004581
701.913513	727.274963	5387.913086	2488.323975	37.785580
702.239075	727.646484	5261.375488	2442.925049	37.833725
702.564697	723.782776	5118.714355	2394.479492	38.014172
702.890137	716.129639	4995.223145	2349.749268	38.176765
703.215698	716.724121	4898.927246	2301.081055	37.883308
703.541016	713.974854	4804.859863	2256.722412	37.711830
703.866455	719.473206	4731.820313	2227.595703	37.587040
704.191711	719.473206	4645.777832	2196.239990	37.612129
704.517029	727.275085	4575.561523	2166.964600	37.411182
704.842163	729.429871	4519.982910	2139.101318	37.189068
705.167419	723.931396	4477.110840	2123.571777	37.292126
705.492493	720.067688	4436.243652	2118.741943	37.637463
705.817566	708.327820	4370.857910	2103.510010	38.093399
706.142578	710.556946	4345.148926	2085.083008	37.817894
706.467590	718.432922	4327.910645	2071.039795	37.473759
706.792480	724.674377	4323.601074	2061.751953	37.152122
707.117371	720.736328	4323.972656	2050.680908	36.909725
707.442200	718.730225	4327.464355	2040.204102	36.618767
707.766907	714.792175	4327.167480	2021.999878	36.186932
708.091675	718.358704	4304.876465	2024.080444	36.406391
708.416321	710.854065	4280.653809	2024.229004	36.791279
708.741028	716.203918	4290.981934	2043.696289	37.134960
709.065552	725.937561	4311.043457	2048.451904	36.889130
709.390137	726.754883	4349.384277	2061.157471	36.835194
709.714600	726.086182	4374.572754	2069.330811	36.816486
710.039063	712.117249	4406.522949	2071.782715	36.803364
710.363403	723.039795	4445.680176	2079.955811	36.450367
710.687744	722.073792	4486.546875	2085.008545	36.205193
711.012085	728.240906	4533.282715	2110.791748	36.334709
711.336304	724.674377	4567.165527	2125.206543	36.448547
711.660461	726.903503	4618.285645	2134.791504	36.179638
711.984619	729.949951	4648.378418	2135.460205	35.869232
712.308716	725.417480	4669.926270	2120.673828	35.372120
712.632751	722.668274	4659.226563	2129.144531	35.728577
712.956726	726.606262	4660.861328	2119.559326	35.405766
713.280701	725.343079	4623.783691	2119.633789	35.765347
713.604553	734.556641	4578.533691	2105.070557	35.653542
713.928467	731.287354	4508.837891	2085.305908	35.843822
714.252258	734.779602	4444.120117	2068.959229	35.968109
714.575989	728.315247	4385.791992	2035.671509	35.744759
714.899719	727.720886	4311.638184	2001.195313	35.533028
715.223267	724.525818	4276.493652	1967.387329	34.990791
715.546936	720.290527	4231.391113	1955.424805	35.177982
715.870422	720.513489	4191.788086	1953.270020	35.513081
716.193970	718.135803	4144.605957	1936.848999	35.567596
716.517395	723.708496	4117.336426	1911.734741	35.007557
716.840820	718.135742	4091.776367	1905.493164	35.195137
717.164124	723.039795	4060.940674	1905.344727	35.420612
717.487488	720.513489	4029.139404	1902.149780	35.713806
717.810730	718.655945	3993.622803	1877.109741	35.372997
718.133972	718.878845	3950.452881	1865.964233	35.496185
718.457092	717.244141	3893.239502	1847.462891	35.586285
718.780212	716.203918	3850.589844	1830.744751	35.558506
719.103210	714.123535	3798.875244	1793.890625	35.003372
719.426208	711.745789	3759.643311	1766.324219	34.600193
719.749207	728.538269	3719.965820	1758.225220	34.421261
720.072083	728.092346	3687.049805	1754.138672	34.675941
720.394958	728.315247	3647.000732	1734.968628	34.489956
720.717773	720.662109	3591.570313	1705.767578	34.313374
721.040527	717.021240	3535.769287	1680.504517	34.181248
721.363281	720.587830	3497.057617	1674.263184	34.348488
721.685913	724.897278	3470.977295	1676.046509	34.636616
722.008545	727.349304	3448.240967	1664.603882	34.446598
722.331055	718.804504	3412.500977	1653.012695	34.681271
722.653503	709.070862	3369.628174	1629.755859	34.604965
722.976013	705.875793	3360.860596	1635.625854	35.019035
723.298401	719.621887	3342.730713	1631.316040	34.756245
723.620789	723.931458	3336.935303	1621.582520	34.353222
723.943115	731.287354	3296.365967	1606.201782	34.108681
724.265381	722.891174	3291.833252	1595.502319	33.967724
724.587585	723.559875	3284.923584	1593.273315	33.955093
724.909790	724.228699	3302.756104	1584.431274	33.360226
725.231873	732.179016	3296.068604	1581.161743	33.113075
725.553894	732.253357	3305.133545	1588.294922	33.271725
725.875916	929.750000	3525.589844	1790.621460	33.163506
726.197937	931.013184	3533.020264	1803.252930	33.521805
726.519775	924.846008	3531.682617	1787.649292	33.097713
726.841675	720.290527	3323.337891	1590.672485	33.437038
727.163513	715.981018	3332.551514	1585.768555	33.241508
727.485291	721.182129	3349.120361	1595.576660	33.273026
727.806946	724.748718	3371.411377	1609.322632	33.422241
728.128662	719.398926	3401.429932	1611.774780	33.272392
728.450256	721.405090	3424.463623	1619.725098	33.233463
728.771790	720.736328	3436.203369	1615.638550	32.955738
729.093323	725.789001	3443.931396	1624.257446	33.054504
729.414795	723.485535	3455.151123	1624.108887	32.969753
729.736145	722.222412	3457.974365	1623.811646	32.955811
730.057495	718.432922	3454.184814	1613.855103	32.730385
730.378845	721.330811	3457.008545	1613.186523	32.600906
730.700134	727.423645	3454.482422	1612.443359	32.453266
731.021301	733.144958	3459.237549	1613.334961	32.287605
731.342468	733.367859	3449.355469	1608.951172	32.238121
731.663574	725.268860	3454.705078	1601.892212	32.117378
731.984680	719.919128	3447.125977	1597.508423	32.179050
732.305664	709.516785	3453.144775	1592.678711	32.189568
732.626648	710.779846	3458.494873	1597.434204	32.268787
732.947571	712.414490	3458.791748	1601.223633	32.362968
733.268433	714.866516	3462.581055	1608.431030	32.520283
733.589233	722.965515	3462.878174	1599.812012	32.002716
733.909973	731.138855	3450.692627	1595.353882	31.777824
734.230713	741.541199	3420.526123	1581.756348	31.363192
734.551331	737.083008	3367.696533	1559.391235	31.259180
734.871948	726.457703	3328.390381	1546.536743	31.518074
735.192505	721.330811	3292.724854	1537.546265	31.742138
735.513062	723.114075	3239.375732	1532.790894	32.177765
735.833435	727.497986	3191.747803	1510.128540	31.759384
736.153931	727.349304	3145.308594	1487.243286	31.427080
736.474304	728.538147	3121.828857	1471.045288	31.024527
736.794617	731.956055	3101.172607	1464.358032	30.913256
737.114807	736.488586	3072.268799	1463.837891	31.139458
737.434998	732.550476	3054.956299	1469.113281	31.715509
737.755188	732.327576	3040.393311	1469.187622	31.925436
738.075256	728.092285	3035.860596	1468.816040	32.096973
738.395325	728.240967	3035.786377	1463.243530	31.852139
738.715271	729.949951	3045.520264	1460.419922	31.546007
739.035278	728.984070	3064.169922	1454.104126	31.051922
739.355164	729.801331	3078.510498	1446.153809	30.499836
739.675049	720.587830	3095.674072	1443.553223	30.439543
739.994873	718.210144	3107.042236	1450.834961	30.668745
740.314636	717.987305	3112.094971	1456.259155	30.837036
740.634277	717.690002	3099.835205	1452.915527	30.864008
740.953979	715.460938	3069.222656	1438.500610	30.718473
741.273499	713.528992	3050.126953	1428.766968	30.610229
741.593140	713.603333	3006.288330	1419.627808	30.794657
741.912598	718.358704	2969.285156	1407.367798	30.610022
742.232117	711.968567	2911.106445	1394.662109	31.043690
742.551453	711.597168	2876.704102	1384.036743	31.058031
742.870850	708.253479	2843.713623	1374.674683	31.207380
743.190063	715.312256	2812.283447	1361.894531	30.834105
743.509338	720.141907	2783.528564	1349.931885	30.522150
743.828552	722.445313	2755.293701	1340.346802	30.395847
744.147705	722.296692	2740.135742	1324.371704	29.837612
744.466797	720.884949	2720.445557	1315.232544	29.723911
744.785828	723.485596	2699.120361	1313.151978	29.846933
745.104858	727.275085	2667.541748	1309.139648	29.988897
745.423706	734.408203	2647.703125	1301.932251	29.662130
745.742615	734.556702	2637.152100	1283.133667	28.833084
746.061401	731.956238	2636.929199	1283.802368	28.968714
746.380249	724.005798	2615.604492	1283.282227	29.566338
746.698975	724.674377	2601.115234	1287.220337	29.979412
747.017639	724.897278	2579.047607	1279.790039	29.927063
747.336304	724.823059	2555.493408	1268.718872	29.710199
747.654907	722.891113	2541.895996	1258.688110	29.455502
747.973389	720.587708	2541.524414	1263.963501	29.840454
748.291931	720.216309	2547.840088	1268.347534	29.991468
748.610352	724.823059	2556.162354	1265.152466	29.504602
748.928711	727.275085	2567.159180	1256.458984	28.761806
749.247070	728.538147	2574.218018	1251.034790	28.309168
749.565308	726.903564	2558.019775	1257.127563	28.956327
749.883545	729.949951	2533.574219	1251.406372	28.911589
750.201782	731.584656	2530.973633	1246.874023	28.636909
750.519836	724.005676	2521.982666	1243.901855	28.915619
750.837952	715.609436	2517.598877	1246.799683	29.477987
751.155884	710.482605	2493.896484	1238.849243	29.626699
751.473877	714.272156	2483.642822	1230.155884	29.156342
751.791809	716.649719	2469.376709	1221.685425	28.814281
752.109619	720.067688	2475.023682	1218.416016	28.396627
752.427490	719.324707	2469.079346	1216.038208	28.387609
752.745300	728.240967	2460.831787	1212.100220	27.926920
753.062988	729.281250	2445.302490	1207.864990	27.889151
753.380615	726.977783	2442.478760	1200.063232	27.577103
753.698303	721.999512	2438.837891	1203.332520	28.036011
754.015808	722.668213	2431.184814	1202.366577	28.076893
754.333374	726.680603	2413.575195	1201.177734	28.128441
754.650757	724.451477	2409.860107	1199.691772	28.197332
754.968262	721.702332	2405.104736	1200.880493	28.464863
755.285583	728.835388	2416.621826	1200.063354	27.919882
755.602905	734.853821	2404.733154	1191.667114	27.356066
755.920105	732.773438	2399.680664	1181.190308	26.901129
756.237305	727.572266	2391.804443	1176.212036	26.957764
756.554443	724.971680	2379.842041	1181.933228	27.613132
756.871582	722.668274	2365.575684	1175.468994	27.560938
757.188599	712.191589	2350.269287	1169.450562	27.914366
757.505615	709.516602	2364.386963	1166.478516	27.613155
757.822510	714.866455	2389.204102	1184.088135	28.024317
758.139465	718.655945	2413.798096	1188.843506	27.737354
758.456238	721.999512	2422.714600	1181.338989	27.008608
758.773010	726.606262	2437.723633	1173.611450	26.123583
759.089783	733.144958	2441.810303	1179.778564	26.139326
759.406433	727.646545	2452.510010	1187.877563	26.682171
759.723145	718.581604	2449.314941	1187.357544	27.085392
760.039673	717.095520	2457.116455	1186.614380	26.983517
760.356201	722.148132	2469.079346	1193.747437	26.995872
760.672668	728.686768	2472.868896	1207.419067	27.447380
760.989136	728.686768	2471.159912	1204.967285	27.333593
761.305481	723.337097	2452.955811	1192.707275	27.137207
761.621826	724.228699	2454.070313	1181.933472	26.459347
761.938049	727.275085	2461.797852	1189.363647	26.640675
762.254333	738.569031	2497.240234	1195.976563	26.008701
762.570496	731.733154	2528.075928	1203.704102	26.273991
762.886597	720.662109	2594.428223	1209.648315	26.096437
763.202637	711.820068	2665.461426	1230.527344	26.550793
763.518677	713.603333	2792.221924	1261.437256	26.355673
763.834656	719.696106	2929.681885	1306.687622	26.560873
764.150574	718.061462	3060.380615	1339.901001	26.548029
764.466370	719.844727	3155.859375	1358.848267	26.231514
764.782288	721.182190	3188.181396	1362.043091	25.977345
765.097961	727.275085	3222.137451	1365.089722	25.565125
765.413696	726.309082	3194.422607	1360.036987	25.676611
765.729309	723.708496	3134.534424	1343.095947	25.691919
766.044861	714.643616	3014.089844	1310.774292	25.924967
766.360474	713.677734	2872.766357	1276.000610	26.044455
766.675903	710.482666	2739.764404	1245.239258	26.352013
766.991394	713.677673	2615.827393	1214.106567	26.308598
767.306763	713.826355	2529.413086	1192.855957	26.384287
767.622131	718.284424	2440.547119	1161.945923	25.760386
767.937378	723.337097	2381.996582	1144.633423	25.399809
768.252625	727.052185	2314.901123	1127.395142	25.212914
768.567810	730.544250	2262.072021	1115.952515	25.164953
768.882996	731.436035	2214.221191	1103.321167	25.080175
769.197998	730.544434	2178.333008	1095.445068	25.204000
769.513062	724.674500	2153.961914	1089.797974	25.545841
769.828064	722.371094	2112.203613	1077.761108	25.570707
770.142944	719.250305	2084.042725	1064.312134	25.283098
770.457825	717.244141	2058.259766	1063.643433	25.831116
770.772705	716.129578	2033.590942	1061.785889	26.236542
771.087402	715.758118	2007.956665	1053.389771	26.128468
771.402100	717.169861	1979.349976	1037.191772	25.354692
771.716736	714.717957	1956.242065	1024.708862	24.968576
772.031372	714.197754	1933.876831	1023.965820	25.397507
772.345947	721.479431	1926.669434	1019.656250	24.741064
772.660461	728.686707	1919.907837	1025.377563	24.906446
772.974854	733.739319	1904.824585	1018.318787	24.300491
773.289246	730.767273	1887.066284	1017.501465	24.797581
773.603638	722.222412	1879.487305	1004.498535	24.391661
773.917908	718.581543	1875.177856	1001.526367	24.463577
774.232178	722.668213	1857.865234	991.421204	23.674568
774.546265	723.634094	1838.472290	994.764832	24.320189
774.860474	720.587830	1824.131836	985.551270	24.010229
775.174561	713.454651	1810.831665	980.944519	24.375385
775.488586	718.210144	1802.955566	978.864014	24.029037
775.802551	721.627991	1788.392212	980.201477	24.239048
776.116516	729.429871	1783.414063	985.774170	24.321457
776.430359	724.377258	1764.466797	978.120911	24.396326
776.744202	728.761047	1759.116821	983.470703	24.720556
777.057922	715.535217	1747.599976	976.412048	25.277178
777.371704	717.987122	1740.318359	978.641113	25.496040
777.685303	716.426758	1729.916016	970.542175	25.073320
777.998962	726.011902	1724.491821	971.210938	24.557232
778.312500	723.634277	1719.216309	970.690857	24.815290
778.626038	723.857178	1709.110962	963.111877	24.283560
778.939453	724.897278	1701.680786	964.523682	24.532192
779.252869	731.807434	1710.374390	967.495789	24.085051
779.566223	731.138855	1710.225708	962.294495	23.609308
779.879578	726.977844	1715.946899	956.201660	23.178057
780.192749	721.182129	1703.166992	944.164734	22.707336
780.505920	728.835388	1703.984253	952.189453	22.904612
780.819031	729.504089	1690.015503	951.223450	23.083469
781.132141	749.268616	1702.572632	962.888977	22.408419
781.445190	745.702087	1698.931641	965.341003	23.041555
781.758118	754.395508	1695.736694	963.111877	22.172234
782.071045	734.259460	1674.560425	946.245117	22.544447
782.383911	729.652649	1656.579102	935.842773	22.244497
782.696838	719.547546	1638.449219	930.715820	22.980509
783.009583	718.135742	1620.616699	920.387756	22.410667
783.322266	710.928467	1611.700317	920.387695	23.253305
783.634888	708.625000	1610.734375	916.152527	23.004696
783.947510	712.043030	1607.762329	917.118469	22.895056
784.260132	720.290527	1602.412476	908.276550	21.310661
784.572571	726.457703	1594.907837	906.567566	20.739229
784.885010	728.315247	1583.168091	912.660339	21.564541
785.197449	731.213135	1568.530396	911.694397	21.554705
785.509766	727.498047	1557.756470	913.254822	22.373369
785.822083	728.315247	1553.446899	909.985413	22.017113
786.134277	725.937561	1546.462524	918.976074	23.526220
786.446533	732.550537	1540.369751	917.638611	22.912066
786.758606	730.024231	1542.747437	915.929688	22.874388
787.070740	727.423645	1561.397339	911.100037	22.024242
787.382690	717.987122	1569.347778	906.864746	22.185383
787.694641	717.318420	1570.090820	903.075256	21.782698
788.006653	715.312317	1579.898560	901.737793	21.562391
788.318481	719.696106	1594.536499	918.827454	22.762020
788.630310	718.061523	1618.387695	928.783997	23.405127
788.942017	720.587830	1627.972656	937.997559	23.960035
789.253784	723.559875	1656.876343	935.248352	22.681318
789.565430	727.943665	1663.117676	935.396912	22.183384
789.877014	734.779602	1653.384155	931.310303	21.394484
790.188538	735.522644	1638.226440	928.858215	21.417387
790.500061	731.584534	1620.393677	922.765442	21.509783
790.811462	730.247070	1611.625977	915.558105	21.025127
791.122925	728.240967	1592.010132	906.195862	20.602135
791.434204	728.315247	1569.793579	898.839905	20.264891
791.745483	726.903564	1551.069336	889.997986	19.789032
792.056702	722.445313	1524.394531	878.926941	19.512661
792.367920	719.621826	1508.196655	885.168274	20.993118
792.678955	715.683777	1482.636597	893.787415	23.222242
792.990112	719.175964	1477.360962	904.041260	24.382610
793.301086	722.891174	1467.627319	896.759583	23.346310
793.612122	728.092468	1473.125854	887.546082	21.402210
793.922974	728.686829	1456.853516	875.211731	20.122440
794.233826	727.869446	1450.463501	869.044617	19.537273
794.544556	727.423645	1448.234375	876.994934	20.750425
794.855286	723.931396	1452.395386	880.264343	21.460629
795.166016	734.110901	1461.905884	883.756531	20.561508
795.476624	726.086182	1464.209351	881.676086	21.079124
795.787292	724.451599	1462.500488	883.385071	21.534275
796.097778	714.866455	1467.032837	890.369446	23.333002
796.408264	725.268860	1476.543579	889.403564	21.847494
796.718689	732.624817	1500.840698	895.719238	21.230286
797.029053	734.705261	1506.487671	894.679016	20.727831
797.339355	726.977844	1506.413452	893.935974	21.420387
797.649658	726.754944	1506.339233	884.648132	20.253511
797.959839	724.005676	1505.001587	875.211731	19.360672
798.270020	725.343262	1503.292603	871.050781	18.729692
798.580078	729.652771	1497.720093	879.892761	19.560783
798.890137	726.606262	1492.295898	882.419128	20.349350
799.200195	725.714661	1473.497070	880.561523	20.707476
799.510071	717.690002	1444.742065	874.617371	21.584063
799.820007	718.581604	1426.537720	878.926941	22.649050
800.129883	720.885010	1422.376953	878.778320	22.508215
800.439575	722.742615	1420.222168	875.360352	21.881321
800.749329	721.999512	1420.667969	869.044617	21.046478
801.058960	720.662109	1411.603027	862.580261	20.539839
801.368591	725.566101	1401.720703	863.471924	20.395605
801.678162	725.566101	1387.380371	860.797058	20.433371
801.987671	722.816833	1381.287476	861.242859	21.022354
802.297119	715.238037	1379.950073	859.088074	21.640955
802.606506	716.278259	1368.878906	857.899170	21.701006
802.915894	721.107910	1360.334229	856.338867	21.155411
803.225159	716.501160	1365.758423	845.193542	19.821478
803.534424	715.163757	1371.999634	841.924133	19.298637
803.843628	716.501160	1364.792358	846.902405	20.114611
804.152771	722.371094	1357.733643	850.246094	20.126305
804.461792	727.943787	1359.219727	854.332703	20.021183
804.770874	721.628113	1366.575562	850.171692	19.930861
805.079773	720.587830	1370.290649	850.840515	20.048040
805.388733	721.330811	1372.519897	845.119141	19.009583
805.697571	726.532043	1377.423828	846.308044	18.401831
806.006470	730.470032	1381.807739	844.376038	17.488010
806.315125	725.863281	1382.179199	844.747559	18.113880
806.623901	724.674500	1390.946899	849.131531	18.679602
806.932495	714.049133	1389.163696	841.032532	18.809162
807.241150	719.993408	1392.209961	846.753845	18.857084
807.549622	717.838562	1390.129517	846.456543	19.131298
807.858154	725.788879	1380.544556	850.097412	18.985483
808.166565	721.850891	1369.547729	846.456543	19.238268
808.474915	722.742615	1355.950317	848.611328	19.877951
808.783264	726.754883	1352.606812	855.298645	20.539005
809.091492	726.977844	1346.068115	851.880676	20.175220
809.399719	730.841553	1334.476807	839.026367	17.922216
809.707825	725.789001	1322.588379	837.986084	18.799799
810.015930	726.309082	1314.192017	825.800354	16.923655
810.323975	715.832336	1316.124146	829.738464	18.975126
810.632080	712.934570	1308.991089	824.685852	18.748438
810.939880	714.717834	1301.709351	827.955261	19.291153
811.247864	719.101746	1302.303833	822.531067	17.734732
811.555664	724.451599	1301.114868	819.336121	16.454060
811.863464	725.566101	1295.913818	823.497131	17.170408
812.171143	728.909668	1281.722046	822.605469	16.948933
812.478882	730.247070	1279.344238	822.976868	16.887684
812.786438	729.504089	1278.155396	820.079102	16.508667
813.094055	729.355469	1272.136841	820.450623	16.783030
813.401489	725.417480	1271.542480	817.106934	16.789097
813.708984	720.067688	1266.341309	820.450623	18.375944
814.016357	724.451599	1266.118286	816.512512	16.995861
814.323730	724.005798	1264.037720	817.627136	17.336260
814.630981	724.748779	1270.279175	813.837646	16.330688
814.938232	719.547546	1273.920044	818.444519	17.839445
815.245361	716.352539	1267.975952	825.131653	19.719814
815.552490	722.371094	1261.065796	826.543457	19.337923
815.859619	723.039795	1260.545532	829.441345	19.795425
816.166565	735.151184	1261.511475	823.868652	16.854895
816.473572	727.349304	1267.752808	824.611633	17.998095
816.780457	725.194519	1266.935669	818.890320	17.295307
817.087341	718.878723	1265.821167	817.998718	18.122564
817.394043	717.615662	1272.434082	819.261780	18.320610
817.700806	712.860291	1275.777710	808.562195	17.001057
818.007507	714.346375	1284.396851	810.122559	16.801352
818.314209	709.739563	1287.963379	807.150574	16.846592
818.620667	714.494934	1298.737305	816.586914	17.474251
818.927246	715.535217	1304.681519	816.215332	17.089153
819.233704	722.519714	1319.839355	821.788086	16.618971
819.540161	725.268860	1351.417969	831.818909	17.016722
819.846497	721.405090	1401.126465	841.329773	17.643211
820.152832	724.748718	1445.633789	849.057190	17.243868
820.458984	726.903564	1488.432129	856.413147	17.006531
820.765259	722.296692	1542.301758	870.159180	18.031898
821.071350	722.073914	1629.978882	883.459290	17.775579
821.377502	715.758118	1776.429565	901.737793	17.534147
821.683472	719.919006	2043.547852	941.935608	16.773327
821.989441	714.717834	2474.949463	1015.123779	17.066273
822.295349	717.764343	3067.365234	1118.033081	17.035606
822.601196	722.073914	3710.751953	1222.651245	16.749123
822.907043	721.850891	4281.916992	1314.563843	16.648932
823.212769	727.646545	4648.898438	1372.891479	16.455074
823.518494	729.578430	4781.751465	1393.696167	16.389175
823.824097	737.603088	4709.529297	1370.439453	15.932732
824.129700	725.491760	4499.401367	1316.495605	15.660254
824.435242	716.724060	4227.898926	1261.660156	15.520050
824.740723	714.569275	3949.932373	1215.072388	15.469767
825.046082	717.467041	3678.430420	1176.806396	15.513172
825.351501	720.142029	3395.337158	1130.515991	15.339964
825.656799	720.810730	3091.141846	1083.259277	15.291052
825.962036	724.823059	2783.974365	1042.244263	15.415147
826.267212	728.389587	2546.205811	1008.808105	15.426121
826.572449	728.018066	2378.727295	990.306702	15.889451
826.877502	730.618652	2334.814453	980.201477	15.558127
827.182495	735.671204	2395.965576	1001.526367	16.012531
827.487488	735.374023	2511.134766	1021.662415	16.122013
827.792419	731.435974	2605.276123	1036.151489	16.261555
828.097290	722.891113	2629.721924	1026.269165	15.910067
828.402100	727.869446	2590.415771	1016.164063	15.478520
828.706848	732.699158	2517.450684	1002.566589	15.120728
829.011597	736.117004	2393.885010	981.836121	14.822286
829.316223	733.813660	2264.375732	951.743469	14.238548
829.620789	734.333801	2140.438477	926.332031	13.654618
829.925354	738.717590	2024.303345	910.951355	13.397300
830.229797	734.705322	1912.997681	900.326111	14.056002
830.534302	737.231628	1796.045288	897.502625	15.136846
830.838562	725.937561	1677.606812	874.394348	15.599620
831.142944	720.885010	1560.282837	848.759949	15.234128
831.447144	712.042969	1461.757324	826.543457	15.272549
831.751404	715.683838	1393.770508	822.308289	15.724310
832.055542	724.228699	1357.882324	826.097656	16.076443
832.359619	724.228699	1334.179688	825.577576	16.615906
832.663635	725.268860	1344.359253	830.184326	16.946712
832.967651	723.039734	1372.817017	826.766418	15.963421
833.271545	722.668274	1434.339844	823.422668	14.157429
833.575439	721.033508	1502.326782	835.757019	14.683796
833.879211	722.148132	1607.762329	853.589661	14.841849
834.183044	723.336975	1705.173218	875.583252	15.506280
834.486694	726.086182	1807.116577	884.573914	14.660803
834.790344	720.439209	1860.242798	886.505798	14.569755
835.093933	720.067688	1864.032349	889.552185	14.815536
835.397522	722.073914	1826.138062	884.871094	14.745264
835.700928	721.999512	1772.937378	883.682312	15.384621
836.004395	725.045959	1727.241211	881.155945	15.576803
836.307739	722.445313	1674.040405	864.809326	14.960567
836.611023	731.064453	1611.477173	850.543152	13.570760
836.914307	726.829163	1547.354126	832.933411	12.931264
837.217529	723.931458	1473.868652	834.642395	14.762694
837.520691	719.324707	1402.984009	827.732239	15.856953
837.823730	720.810730	1323.480103	823.051270	16.964615
838.126831	723.485657	1264.557983	813.689148	16.671246
838.429749	726.829285	1218.118774	811.757141	17.286724
838.732727	722.816895	1189.958130	805.218567	17.639563
839.035522	717.467102	1174.800293	794.890442	16.929308
839.338379	708.699402	1166.255493	789.986511	17.765495
839.641113	710.036804	1169.301880	788.203308	17.019911
839.943848	713.974854	1180.447266	792.958679	16.932154
840.246460	716.055359	1195.456421	792.215637	15.886548
840.549072	717.392761	1212.248901	794.370422	15.555564
840.851563	720.959290	1218.861938	794.444641	14.758980
841.154053	725.045898	1230.675903	801.354919	15.091869
841.456482	728.389587	1226.143555	805.961670	15.584423
841.758850	724.080017	1217.450073	803.955383	16.189747
842.061157	720.067627	1189.735107	787.757507	14.412299
842.363403	720.810608	1173.314331	778.915466	12.840747
842.665588	717.021240	1152.286621	781.218811	14.749064
842.967712	720.067688	1134.602539	787.980408	16.382874
843.269775	712.711731	1118.850342	782.704834	17.233797
843.571777	718.135803	1099.828979	772.153870	14.152223
843.873840	721.925232	1082.070557	764.500732	11.821755
844.175659	727.052063	1066.392578	766.283997	11.561229
844.477600	732.624817	1052.572266	769.330383	11.472374
844.779297	730.321472	1041.872681	775.200256	14.404946
845.081116	720.959290	1028.572510	767.027039	14.975867
845.382751	719.250427	1021.885315	765.763855	15.369487
845.684387	717.987244	1007.321960	772.079590	18.695421
845.985962	722.073792	991.421204	773.194153	18.979340
846.287537	720.216309	982.133301	767.398499	18.014177
846.588989	722.668213	979.458435	756.698914	13.252336
846.890381	732.773438	972.696960	768.587402	14.927242
847.191711	732.030457	970.839355	768.141541	15.121331
847.493042	728.463867	973.439941	769.330383	16.681839
847.794250	726.011902	977.080811	761.082764	13.968620
848.095459	723.485596	973.811462	764.649231	16.444019
848.396606	724.080017	967.495789	765.095154	16.849827
848.697693	719.101746	963.632019	760.637024	16.985741
848.998657	720.067688	960.214050	756.401794	15.129984
849.299622	730.172852	962.220215	751.200500	9.061791
849.600464	732.401917	963.037598	751.274841	8.183003
849.901367	725.714661	952.337952	745.330566	8.655732
850.202087	709.888184	944.313293	753.652527	18.668795
850.502808	710.408386	940.598145	757.219055	20.335688
850.803467	713.974854	947.136780	768.810242	23.518158
851.104065	722.668213	953.303955	767.249939	19.329929
851.404663	719.473206	949.960266	763.163269	18.955538
851.705139	721.999512	953.303955	747.633972	11.082562
852.005615	719.027405	953.749756	749.045715	12.788859
852.306030	722.148132	958.950928	745.925049	10.040809
852.606384	727.497864	953.155273	757.070374	13.105047
852.906616	728.761047	946.245178	750.606140	10.044454
853.206909	724.897400	941.564148	757.590515	15.089125
853.506958	723.857117	942.009949	751.572021	12.704352
853.807129	724.228699	937.625977	751.126221	12.604435
854.107178	731.807556	942.901550	752.240784	9.679682
854.407166	732.847839	938.666260	766.061035	16.137135
854.707092	735.151123	938.963440	773.268372	18.702131
855.007019	732.476257	937.848938	765.540955	16.099852
855.306763	726.457703	936.214294	758.853699	15.444567
855.606567	724.377197	936.585754	749.119934	11.659632
855.906250	729.429749	926.480652	748.525574	9.690808
856.205933	735.596924	926.034851	748.525574	6.788905
856.505493	736.934387	928.561096	745.999329	4.730521
856.805054	736.414307	936.808777	751.349121	7.452708
857.104492	736.191345	940.152344	747.559753	5.573815
857.403931	732.699158	940.523865	746.296570	6.542731
857.703308	719.473206	930.641602	748.154114	13.582008
858.002563	712.488770	933.093567	746.370850	15.358723
858.301819	714.197754	926.257751	742.432800	13.314650
858.601013	717.615723	926.777832	735.819824	8.703345
858.900208	725.566101	925.960449	740.426575	7.415615
859.199219	731.658875	925.366028	751.943542	10.471822
859.498291	737.454529	929.527039	764.352051	14.003838
859.797302	724.748779	928.338196	767.547119	21.021889
860.096191	720.513489	939.334961	773.045471	24.006777
860.395020	713.900574	943.050110	763.831970	21.789875
860.693787	719.770447	935.842773	761.677185	19.394773
860.992554	710.408386	923.880066	747.559631	17.403360
861.291260	715.386536	922.914063	748.599915	16.004324
861.589844	717.690002	930.492920	748.897156	14.664815
861.888428	724.154297	932.796326	751.126221	12.927368
862.186890	727.572266	931.830383	753.578186	12.731891
862.485413	728.538147	931.830383	752.315002	11.695899
862.783813	732.476257	928.858398	758.407898	13.204683
863.082153	730.098572	929.304138	753.132324	11.562805
863.380371	725.120300	925.514648	747.188171	11.012222
863.678589	728.092346	925.068909	748.674133	10.448851
863.976746	726.606262	915.781067	750.011658	12.372364
864.274902	724.154297	920.684998	755.732910	16.068031
864.572937	716.724060	930.567200	746.147949	13.759566
864.870911	725.863281	940.375244	748.451355	10.529984
865.168884	728.166687	935.174072	742.432800	6.891596
865.466736	730.098572	930.492981	748.674255	9.269562
865.764587	718.507324	927.892395	738.123230	9.368340
866.062317	720.736389	931.830383	744.884766	11.439632
866.360107	717.764343	938.666260	741.838379	10.898066
866.657715	717.912903	940.226563	750.085938	14.471910
866.955322	717.615723	943.495911	756.773193	17.335505
867.252808	716.946960	935.322693	755.435730	17.625021
867.550293	717.244141	938.294739	755.138611	17.142895
867.847717	715.981018	935.768494	744.216064	12.846522
868.145081	718.878906	936.660156	750.829041	14.670746
868.442383	720.364929	928.338196	755.807312	17.041798
868.739624	721.033630	930.195801	760.934143	19.076353
869.036804	716.278259	927.075012	762.717468	22.030325
869.333984	712.191589	926.183411	754.023987	19.548597
869.631042	710.928467	918.381653	746.965271	17.371054
869.928101	709.368103	920.090637	743.695984	16.290560
870.224976	714.569275	924.325867	747.188232	15.550861
870.521851	724.823059	950.703308	764.946472	17.763134
870.818726	728.686829	948.251282	761.157043	14.788466
871.115479	725.268860	953.601074	761.528564	15.880240
871.412231	720.810730	936.288574	747.633972	12.448260
871.708862	720.587830	939.632263	744.661865	10.990480
872.005493	721.627991	940.821106	745.404846	10.847446
872.302063	719.696106	933.910950	745.999329	12.278898
872.598572	721.107910	936.585876	748.005554	12.482781
872.895020	728.612488	927.372314	745.404846	8.448567
873.191406	734.259521	930.864563	747.039551	6.500357
873.487671	733.888000	933.910950	754.023987	10.066838
873.783997	726.309082	944.981995	758.927979	14.916752
874.080200	719.696106	948.920105	753.949707	14.943288
874.376343	718.507324	947.285461	746.370850	12.179278
874.672424	721.925293	937.551758	753.206726	14.507233
874.968445	721.033630	934.951172	751.349121	14.171577
875.264465	724.228577	942.232727	749.491516	11.588284
875.560364	724.823059	953.526855	731.956116	3.118906
875.856201	717.095520	953.303894	732.104736	6.354227
876.152039	715.609558	952.560852	736.191406	8.686110
876.447754	709.962463	954.864258	740.278015	12.378656
876.743469	724.451477	957.241943	748.005554	10.118145
877.039063	722.519714	951.966492	746.890930	10.621730
877.334595	730.395752	942.529968	753.578125	10.928164
877.630127	718.804504	945.279236	752.315002	14.796573
877.925537	720.959290	946.988220	753.875305	14.562744
878.221008	710.779785	954.418457	749.565735	15.919456
878.516296	721.330811	953.155273	748.971436	11.923084
878.811646	721.107910	963.483398	752.017883	12.752929
879.106812	725.788879	981.093201	755.732971	11.728784
879.401978	719.324524	998.108459	757.144714	13.566130
879.697083	717.392761	1019.433350	756.550293	12.964328
879.992126	720.216248	1031.024536	763.163269	13.817849
880.287109	717.690002	1071.965454	767.175598	13.968113
880.582031	714.123474	1138.466309	771.559509	13.535291
880.876892	705.652893	1249.920288	781.070251	13.856674
881.171753	713.157532	1431.441895	800.091736	12.103034
881.466492	719.250305	1685.780273	827.137878	11.162362
881.761230	726.309082	2018.953613	848.685608	9.467145
882.055786	719.547546	2341.501709	878.926819	9.826374
882.350403	717.912903	2597.548828	900.103088	9.692844
882.644958	714.420654	2729.881836	919.050293	10.152993
882.939453	711.820068	2766.884766	909.019470	9.595776
883.233826	707.138977	2722.005859	905.007080	9.820405
883.528137	709.888184	2644.656738	895.942200	9.616344
883.822449	719.027405	2564.261475	894.530457	9.511153
884.116577	724.971680	2476.212402	893.936035	9.648266
884.410828	720.216309	2372.262939	885.019714	9.975712
884.704956	718.135803	2225.292236	872.388184	10.234662
884.999023	722.593933	2037.454956	848.611328	9.584085
885.292969	733.516418	1823.314453	823.051270	8.215729
885.586914	738.717590	1618.684692	798.234070	6.763489
885.880798	731.213074	1465.918457	785.231140	7.352344
886.174622	732.253357	1359.739746	779.881348	7.590283
886.468384	730.470032	1278.155396	775.125977	8.153577
886.762085	731.435974	1222.354126	760.488342	5.917966
887.055664	718.804504	1172.571289	748.822754	6.615347
887.349304	718.284424	1143.147339	744.810486	6.243440
887.642822	722.296814	1108.968140	753.875427	8.166784
887.936340	725.640381	1094.553345	752.612305	7.311189
888.229736	716.649719	1069.959106	751.126221	9.758162
888.523071	715.237976	1050.491821	742.284180	8.067381
888.816284	718.358704	1036.522949	750.754700	10.182161
889.109619	724.600159	1028.201050	754.544189	9.862959
889.402710	724.451477	1021.736633	761.008484	12.296950
889.695862	718.581604	999.520203	753.429626	12.404142
889.988892	714.717834	979.755676	748.822815	12.867967
890.281921	715.312317	962.517456	741.615479	10.640216
>>>>>End Processed Spectral Data<<<<<
