Jaz Data File
++++++++++++++++++++++++++++++++++++
Date: Fri Jun 04 16:56:15 2021
User: jaz
Dark Spectrum Present: Yes
Reference Spectrum Present: Yes
Processed Spectrum Present: Yes
Spectrometers: JAZA3586
Integration Time (usec): 26900 (JAZA3586)
Spectra Averaged: 10 (JAZA3586)
Boxcar Smoothing: 1 (JAZA3586)
Correct for Electrical Dark: No (JAZA3586)
Strobe/Lamp Enabled: Yes (JAZA3586)
Correct for Detector Non-linearity: No (JAZA3586)
Correct for Stray Light: No (JAZA3586)
Number of Pixels in Processed Spectrum: 2048
>>>>>Begin Processed Spectral Data<<<<<
W	D	R	S	P
191.335022	0.000000	0.000000	0.000000	0.000000
191.713211	231.824478	223.576904	230.115524	20.720686
192.091385	465.580902	454.658356	467.809906	-20.407366
192.469528	703.795410	697.033875	700.377441	50.550186
192.847641	715.832458	712.340149	709.665283	176.593033
193.225739	725.120300	725.268860	713.603333	-7752.423828
193.603790	738.123230	728.761047	728.315247	104.761719
193.981842	739.089172	738.197571	738.271790	91.675797
194.359863	739.460632	743.324463	742.878601	88.460625
194.737854	732.624817	745.702148	748.079773	118.181267
195.115829	740.278015	744.216003	745.553467	133.963120
195.493774	746.890930	744.884766	745.479187	70.370255
195.871704	745.627747	747.856873	738.791931	-306.658997
196.249603	741.912598	747.485352	752.909485	197.333084
196.627457	744.661865	747.782532	758.705078	450.006836
197.005310	745.107727	743.175781	769.330383	-1253.795898
197.383133	743.324463	743.398743	751.126221	10503.205078
197.760910	734.036621	739.386414	749.491516	288.887756
198.138687	732.327637	735.894104	741.466980	256.257599
198.516449	729.281250	735.299805	743.844543	241.973267
198.894180	729.206848	732.624817	741.095398	347.825012
199.271866	735.299744	734.556641	736.860107	-209.979462
199.649536	736.934387	730.247070	737.008728	-1.111669
200.027191	736.042725	729.504089	742.952942	-105.682869
200.404816	733.962219	731.361633	741.987000	-308.575867
200.782410	733.367859	754.321289	747.559753	67.730652
201.159988	737.454529	773.788574	743.695984	17.177980
201.537537	735.151123	779.138367	747.931213	29.054083
201.915070	731.658875	774.457275	740.129395	19.791674
202.292557	737.454529	775.943359	733.665039	-9.845687
202.670029	740.426575	783.522217	731.064453	-21.724056
203.047485	742.284180	778.692566	732.996338	-25.510172
203.424911	730.098572	769.701904	739.683594	24.202564
203.802292	728.018066	760.042480	741.169617	41.067265
204.179688	728.166687	759.968201	749.565857	67.289787
204.557037	732.699158	756.104492	746.296570	58.095356
204.934357	727.423645	767.547180	749.937317	56.110889
205.311661	730.470032	764.277832	742.581360	35.824066
205.688934	726.383362	771.039368	739.237793	28.785448
206.066177	728.166687	760.711243	739.163513	33.790066
206.443390	717.541321	768.587402	740.575195	45.123688
206.820587	723.039734	772.451111	745.553528	45.563988
207.197769	728.092346	776.166260	738.271790	21.174568
207.574921	731.213074	773.491394	738.271790	16.695827
207.952042	731.510254	767.175598	731.881653	1.041344
208.329147	725.714661	766.581116	735.002441	22.727150
208.706223	728.463867	778.766785	742.655701	28.212744
209.083267	718.730225	781.590332	744.290344	40.661907
209.460297	714.717834	779.509827	744.587585	46.100990
209.837280	715.460876	770.965088	736.488586	37.884892
210.214264	715.163757	768.736023	745.702087	57.003994
210.591217	727.052063	772.748291	745.627747	40.650364
210.968124	728.018066	770.816406	752.835205	57.986217
211.345016	736.637146	770.593567	746.296570	28.446531
211.721893	729.206848	763.386169	743.695984	42.391525
212.098724	721.256531	751.869324	735.299805	45.873875
212.475555	717.467102	755.064270	731.733215	37.944649
212.852356	712.265930	756.847473	736.785828	55.000111
213.229126	721.330750	768.290100	740.649475	41.139252
213.605865	715.609436	765.318054	742.209961	53.512905
213.982590	722.296692	764.946472	735.151184	30.139645
214.359283	716.129639	755.138489	729.949951	35.428658
214.735931	724.005676	754.321228	737.900330	45.833416
215.112579	722.296814	755.807312	731.956116	28.824703
215.489197	725.343079	759.225281	739.312073	41.228119
215.865799	720.439148	750.531738	727.423645	23.210022
216.242355	717.021301	753.875488	726.309082	25.201426
216.618896	712.934631	757.144714	718.804504	13.277227
216.995407	711.968689	766.283997	721.627991	17.783756
217.371902	714.049133	764.872253	730.841553	33.040905
217.748367	719.621826	759.893860	730.395691	26.752720
218.124802	722.891113	757.441895	733.590820	30.968061
218.501236	721.256531	755.064270	730.098572	26.153896
218.877609	711.299988	755.212891	734.259521	52.284256
219.253983	714.123352	758.333496	730.693054	37.479412
219.630295	715.312256	760.562683	737.083008	48.111706
220.006592	720.216309	758.556458	730.395752	26.550348
220.382889	716.946960	753.875427	733.442139	44.667919
220.759140	720.662109	754.841309	728.835388	23.913021
221.135391	726.383484	756.996094	729.206848	9.222880
221.511581	726.754944	762.866028	727.497864	2.057318
221.887772	727.646545	759.893982	726.903503	-2.304189
222.263931	728.835388	769.256042	732.476257	9.007447
222.640060	725.788879	762.568848	734.408020	23.434334
223.016159	716.055359	765.838196	740.278015	48.656643
223.392212	713.083191	765.392395	736.117004	44.033958
223.768265	717.912903	772.005310	737.231628	35.714302
224.144302	728.389465	775.348877	737.380188	19.145731
224.520294	722.965393	780.252869	738.123230	26.459251
224.896286	727.126465	777.429382	738.791992	23.190557
225.272217	727.349365	776.091980	739.609314	25.152424
225.648148	729.281189	769.479004	740.946777	29.020454
226.024048	727.349365	766.952698	731.436035	10.319005
226.399902	729.206848	768.884521	722.668274	-16.479227
226.775772	731.138733	765.020813	716.724121	-42.543468
227.151581	728.240967	774.977356	728.612488	0.794929
227.527374	725.120300	771.485107	733.219238	17.467857
227.903137	725.194580	770.519226	737.603088	27.376955
228.278870	721.776611	765.095154	728.315247	15.094311
228.654572	721.256531	765.689514	724.302917	6.856138
229.030273	723.931396	767.398499	720.587830	-7.692178
229.405930	727.646484	770.742188	726.606262	-2.413749
229.781555	721.107910	769.999207	728.315247	14.741553
230.157181	719.770508	775.794739	736.785828	30.371359
230.532761	710.334045	776.463379	735.819824	38.539295
230.908325	713.528992	774.605774	738.494812	40.876122
231.283859	714.792175	772.822571	734.853943	34.571136
231.659332	722.519714	766.878357	738.123230	35.175819
232.034821	723.039795	774.011414	741.541199	36.297462
232.410263	719.770508	771.410828	743.918762	46.762402
232.785690	722.148132	770.593506	744.959167	47.086098
233.161087	726.457703	770.742188	744.290344	40.268372
233.536469	723.114075	775.646179	736.785828	26.025518
233.911804	720.810730	776.983582	728.315247	13.359686
234.287140	712.414490	773.045471	721.330811	14.705882
234.662430	713.974854	764.872253	726.903503	25.401396
235.037704	719.027405	758.779358	729.949951	27.476753
235.412933	723.931396	758.556458	737.157288	38.197453
235.788162	727.423645	761.974426	737.825989	30.107405
236.163345	725.343079	769.627625	743.324402	40.604061
236.538513	725.714661	767.398499	738.791992	31.372667
236.913635	722.668213	768.438782	735.745544	28.571486
237.288742	711.076965	767.101318	729.875671	33.554527
237.663834	713.231873	767.992981	741.095398	50.881962
238.038879	718.507324	768.810242	739.163513	41.063599
238.413910	725.640381	770.742126	737.528809	26.359131
238.788910	725.343201	773.194092	730.172852	10.093126
239.163879	730.544250	770.593445	737.677429	17.811041
239.538834	730.841492	773.714172	747.262451	38.301685
239.913757	729.206848	771.336609	747.708313	43.915428
240.288651	717.244141	767.101318	746.742371	59.165462
240.663528	715.312317	772.153870	743.918884	50.326859
241.038361	716.203918	778.098145	742.135559	41.896706
241.413177	722.742615	790.283752	740.129395	25.742504
241.787979	725.268860	781.367432	730.692932	9.668824
242.162735	722.668274	787.831787	732.847717	15.621386
242.537476	718.284363	787.088684	739.757874	31.209538
242.912170	713.974854	802.692383	744.810547	34.757160
243.286865	716.129578	799.868835	748.971436	39.219189
243.661514	723.039734	803.583984	739.683594	20.664244
244.036148	728.612488	795.336365	736.785828	12.249497
244.410751	730.321472	796.079346	733.665039	5.084664
244.785339	719.919128	795.782166	744.513184	32.419022
245.159882	718.804504	802.097839	748.674133	35.860767
245.534378	720.662109	799.571594	742.358459	27.495237
245.908890	727.126465	796.227966	734.853821	11.182616
246.283356	733.813660	792.067078	733.739319	-0.127616
246.657791	730.841553	797.862610	743.324402	18.625265
247.032196	723.039734	808.785095	746.668030	27.556355
247.406586	715.386536	814.803650	749.342957	34.155510
247.780960	715.163757	827.732361	741.689758	23.564299
248.155289	719.398926	834.568176	733.070618	11.870956
248.529602	719.919128	839.472168	726.160461	5.220556
248.903870	722.073914	829.367004	729.429749	6.855833
249.278122	722.222412	819.410400	735.894104	14.067266
249.652344	723.336975	813.837646	739.014832	17.323469
250.026550	718.358704	811.905762	740.055115	23.193045
250.400711	725.491760	809.602356	739.609192	16.784369
250.774857	722.593994	807.224670	736.860046	16.856834
251.148987	732.476257	807.967773	736.637146	5.511730
251.523071	727.943665	813.837646	732.847717	5.709425
251.897125	728.612488	814.729309	739.832214	13.028496
252.271164	714.494934	817.701416	732.104736	17.062691
252.645187	711.597168	816.735535	734.185242	21.484140
253.019165	708.402161	820.896484	729.504089	18.758217
253.393112	713.826233	816.958435	729.578430	15.273791
253.767044	714.346375	815.175110	731.584656	17.096596
254.140930	725.788879	804.401306	733.367859	9.640944
254.514801	718.878845	802.246399	740.129456	25.490265
254.888657	724.897400	800.166016	744.216125	25.666376
255.262466	723.411316	812.128723	749.194336	29.061962
255.636276	735.002502	815.546692	750.085938	18.726906
256.010010	733.070618	822.159668	741.689758	9.674747
256.383759	724.377258	826.172058	737.900391	13.284698
256.757446	720.885010	830.630127	736.117004	13.879428
257.131134	715.758118	831.521790	744.364685	24.711178
257.504791	719.398987	829.887024	749.863037	27.572262
257.878418	715.832458	836.871582	754.024109	31.553144
258.252014	714.569336	855.595886	750.011719	25.131710
258.625580	715.832458	871.050781	743.844543	18.046894
258.999115	721.330811	893.861633	742.209961	12.101693
259.372650	726.086243	902.778015	742.209900	9.125301
259.746124	720.067688	921.502380	736.042725	7.930628
260.119598	710.408264	937.254578	732.699158	9.826429
260.493042	706.990417	950.851990	731.510254	10.054817
260.866425	711.076965	960.511292	741.392578	12.153746
261.239838	715.683777	950.926270	743.027161	11.623488
261.613159	717.392761	937.403137	744.290344	12.225597
261.986511	721.107910	912.288879	745.850769	12.942114
262.359802	725.566101	896.536621	737.008728	6.692749
262.733063	730.024231	886.431458	734.482422	2.850374
263.106293	729.355530	886.208557	725.863281	-2.226446
263.479523	736.562805	884.351013	731.361633	-3.519342
263.852692	732.922058	881.304504	735.076843	1.452183
264.225861	729.875671	881.378845	740.278015	6.866090
264.598969	722.296692	882.864807	740.723816	11.476204
264.972076	723.857117	890.666687	736.117004	7.349631
265.345154	729.652649	891.261169	731.658875	1.241411
265.718201	730.544373	903.966980	736.860046	3.641782
266.091217	731.138733	914.517883	735.299744	2.269075
266.464203	722.965515	928.189514	734.333740	5.539423
266.837158	721.627991	936.065674	730.990234	4.365951
267.210114	721.405090	947.582520	732.773438	5.026296
267.583038	724.228577	962.666016	741.764099	7.354350
267.955902	724.080017	965.563782	737.974609	5.753841
268.328766	725.640381	974.405945	748.525635	9.199527
268.701569	725.863281	967.421387	747.039551	8.766532
269.074371	726.309143	971.508057	748.897217	9.212143
269.447144	719.250427	972.845459	737.231628	7.090518
269.819885	716.872620	988.374756	731.361633	5.336611
270.192596	714.866516	994.096008	737.082947	7.956334
270.565277	723.411316	1006.727539	740.872375	6.163099
270.937927	724.971680	1021.662354	750.011536	8.439718
271.310577	726.606384	1053.241089	738.717590	3.707875
271.683136	717.318542	1078.652588	738.271790	5.798858
272.055725	720.810730	1106.218872	739.237732	4.781166
272.428284	715.609558	1112.757568	748.228333	8.213254
272.800812	724.302917	1114.540894	745.256348	5.369398
273.173279	719.844788	1101.314941	739.089172	5.044795
273.545776	726.457703	1109.116699	738.643311	3.184456
273.918152	720.885071	1102.057983	744.290344	6.140330
274.290558	720.885071	1099.828979	741.243896	5.372517
274.662964	715.683838	1084.076782	737.974609	6.050814
275.035278	720.067688	1082.293457	740.129395	5.538454
275.407593	720.513489	1095.073486	742.432800	5.852016
275.779907	721.851013	1107.779175	748.154114	6.815543
276.152161	716.798340	1123.234253	743.918884	6.672773
276.524384	714.494934	1127.692383	737.305908	5.520599
276.896606	721.107910	1147.828491	733.665039	2.942705
277.268799	714.643555	1161.128540	735.076904	4.576492
277.640930	720.141907	1172.496948	741.169617	4.648497
278.013031	714.346375	1163.432007	748.674255	7.643950
278.385162	719.250305	1164.843750	751.274719	7.186913
278.757233	711.077148	1162.688843	753.058105	9.295808
279.129272	711.671448	1175.171875	751.720642	8.640594
279.501282	714.717957	1186.540161	749.417236	7.354312
279.873230	717.838562	1203.778320	746.370850	5.871569
280.245178	719.027405	1222.576904	738.420471	3.851273
280.617126	719.324646	1243.827515	738.123230	3.584076
280.988983	716.872620	1269.610474	740.055115	4.194121
281.360870	706.470276	1287.369019	742.729980	6.242001
281.732697	702.755188	1313.597778	737.603210	5.704910
282.104492	705.801575	1338.414917	735.522705	4.698151
282.476288	714.272034	1366.204102	734.556824	3.111488
282.848053	720.587708	1385.151367	738.791992	2.739284
283.219757	722.668213	1396.891113	739.906494	2.556763
283.591461	726.829163	1403.801392	749.491516	3.347605
283.963135	723.039795	1399.640259	756.476013	4.941796
284.334747	714.940735	1397.114258	756.475891	6.088650
284.706360	710.259766	1418.884766	751.497620	5.819418
285.077942	707.287598	1453.658325	747.336731	5.365850
285.449524	716.129639	1487.540405	755.732971	5.133884
285.821014	716.352539	1496.828125	749.045715	4.188879
286.192535	722.965515	1511.985962	745.924988	2.909870
286.563995	717.764343	1537.397827	741.466797	2.891836
286.935425	714.866455	1566.152832	747.485352	3.831718
287.306824	715.683777	1568.233398	748.599915	3.860906
287.678223	723.931458	1554.561523	740.278015	1.967971
288.049561	734.036621	1536.208618	733.442139	-0.074109
288.420898	732.179016	1520.530884	736.711487	0.574930
288.792145	736.191345	1516.221191	740.575195	0.562011
289.163452	732.401917	1522.239868	744.067444	1.476952
289.534668	730.321472	1549.731812	742.655762	1.505264
289.905914	723.114075	1576.852173	741.912659	2.201915
290.277039	723.857117	1612.963379	743.844543	2.248036
290.648193	728.092346	1651.526733	734.110901	0.651758
291.019318	730.915833	1693.804810	730.321472	-0.061727
291.390381	735.002502	1715.575562	734.185242	-0.083345
291.761475	732.253418	1715.798462	741.912659	0.982084
292.132507	726.532043	1702.795410	745.850769	1.978844
292.503510	714.866455	1689.049438	743.547363	2.944099
292.874481	718.061523	1673.297363	745.107727	2.831364
293.245422	722.073914	1679.390137	751.646301	3.089093
293.616364	729.206848	1696.331055	752.092102	2.366320
293.987213	726.606384	1740.095337	752.686584	2.573309
294.358093	732.104736	1787.277710	747.708313	1.478770
294.728943	730.321472	1849.469116	744.513367	1.268098
295.099731	727.126404	1901.629761	741.169678	1.195678
295.470490	715.535156	1936.254517	743.324402	2.276465
295.841248	717.541443	1960.402954	741.763977	1.948933
296.211975	719.176086	1987.300659	740.872375	1.710896
296.582642	726.160583	2035.077271	742.804382	1.271570
296.953308	721.033630	2082.185059	743.101563	1.621269
297.323883	721.405090	2127.063965	746.742371	1.802520
297.694519	728.538147	2156.041992	742.209900	0.957738
298.065063	728.686768	2159.757324	748.154114	1.360335
298.435608	727.423645	2126.915527	742.952942	1.109638
298.806122	718.581604	2070.148193	742.135559	1.742715
299.176575	720.959290	2008.774048	743.993164	1.788602
299.547028	722.148132	1959.139771	745.404846	1.880103
299.917450	719.993408	1933.356812	744.141785	1.990201
300.287872	718.358704	1927.486938	739.757813	1.769797
300.658234	720.587830	1937.443359	740.872375	1.666964
301.028564	724.897278	1937.963501	746.073669	1.745691
301.398865	726.903503	1928.973022	746.370850	1.619486
301.769135	726.309082	1923.474487	755.361511	2.426768
302.139374	724.971680	1919.684937	758.928040	2.842218
302.509583	726.383362	1928.601196	757.367676	2.577263
302.879791	721.330872	1935.362915	746.445129	2.068665
303.249939	719.621887	1935.140137	739.163513	1.607678
303.620087	721.107910	1923.103027	741.318176	1.681393
303.990173	724.748779	1904.898926	748.971436	2.052506
304.360260	730.172852	1898.880249	749.491516	1.652994
304.730286	730.098450	1904.973145	741.243958	0.948655
305.100281	730.395691	1913.369141	738.569031	0.690915
305.470276	730.990173	1928.972778	740.352295	0.781491
305.840179	732.253235	1952.229492	747.262390	1.230283
306.210144	730.024231	1976.675171	740.203796	0.816553
306.579987	717.392822	1995.325195	740.723816	1.825683
306.949890	706.990417	2007.213501	735.225403	2.171549
307.319702	711.745789	2022.445679	741.243958	2.250566
307.689484	723.039795	2038.420898	739.386414	1.242729
308.059265	732.327637	2069.256592	746.222229	1.039292
308.429016	731.733215	2112.723633	746.073547	1.038409
308.798737	725.714661	2176.103760	750.680420	1.721315
309.168396	725.343079	2225.069336	750.234558	1.659735
309.538055	722.445313	2266.381592	750.903320	1.843211
309.907684	728.538086	2287.409180	748.674133	1.291707
310.277313	731.658875	2309.997314	742.209900	0.668489
310.646851	731.213074	2330.578857	738.346130	0.445993
311.016388	728.463867	2347.594482	730.321472	0.114729
311.385895	728.686768	2351.606689	737.380188	0.535665
311.755371	736.340027	2347.446045	735.522644	-0.050734
312.124817	738.717590	2346.554443	745.850769	0.443651
312.494232	730.544373	2348.263184	748.525635	1.111520
312.863617	721.627991	2345.588135	754.692688	2.036053
313.232971	714.049133	2341.947510	753.429626	2.419100
313.602295	716.946960	2323.817627	746.445129	1.835753
313.971619	716.501160	2323.817627	745.627869	1.812133
314.340820	712.414551	2321.216797	742.432800	1.865876
314.710083	709.516663	2363.718018	750.085999	2.452503
315.079285	708.402161	2404.213135	746.147949	2.225825
315.448486	721.776672	2449.389160	752.315125	1.767668
315.817596	720.587830	2450.132080	745.479248	1.439190
316.186707	724.080078	2408.299805	746.965271	1.358801
316.555786	720.216309	2353.167236	747.262451	1.656274
316.924866	722.222473	2305.687744	747.262390	1.581337
317.293884	727.423645	2294.170654	749.640137	1.418001
317.662872	730.172852	2293.502197	746.519348	1.045621
318.031830	722.445313	2310.517578	750.457520	1.763913
318.400757	720.587830	2319.730713	747.113953	1.658771
318.769684	721.999512	2331.544922	751.423401	1.828087
319.138550	728.241028	2346.405518	752.389404	1.492331
319.507416	724.228699	2373.006104	758.333557	2.068494
319.876190	720.141907	2386.529053	759.596741	2.367687
320.244995	722.073792	2386.157715	762.197327	2.411149
320.613770	722.371094	2358.962891	758.110657	2.183780
320.982483	721.702332	2338.529541	756.921814	2.178308
321.351166	722.222473	2316.684570	748.971375	1.677613
321.719818	720.067688	2313.638428	757.441956	2.345316
322.088440	717.764343	2317.873291	748.525696	1.922454
322.457062	718.878845	2339.124023	746.668152	1.715130
322.825623	720.662109	2375.904053	745.404968	1.494818
323.194183	720.959290	2426.058350	751.869324	1.812800
323.562653	726.829285	2481.042236	760.116882	1.897580
323.931183	731.287415	2549.697754	752.760925	1.180895
324.299591	732.922058	2615.084229	755.287170	1.188267
324.668060	726.606262	2674.452393	759.299561	1.678433
325.036407	721.033630	2709.597412	761.157043	2.017708
325.404755	719.547546	2731.887939	761.825867	2.100953
325.773102	719.398926	2742.364502	754.098328	1.715274
326.141388	726.457703	2746.897217	754.321228	1.379082
326.509674	732.030457	2755.739258	749.342957	0.855484
326.877899	729.652649	2772.606201	760.116882	1.491186
327.246124	724.823059	2785.980469	766.135437	2.004329
327.614288	723.485657	2780.853516	773.194092	2.416118
327.982422	726.606384	2765.844482	768.364441	2.047728
328.350525	728.315247	2746.897217	771.262268	2.127584
328.718628	723.634094	2734.340088	764.797852	2.047229
329.086700	719.027405	2743.553711	764.500671	2.246119
329.454712	713.529053	2759.677490	764.277832	2.480210
329.822693	715.238037	2788.209717	774.011475	2.835226
330.190674	714.569336	2805.373779	782.481934	3.248156
330.558563	715.386658	2815.775635	783.002136	3.219188
330.926483	711.077087	2832.568359	787.163086	3.586439
331.294312	714.792175	2861.100586	780.624451	3.067233
331.662231	721.925293	2908.877197	785.156921	2.891313
332.029999	718.581604	2939.044189	790.209473	3.225808
332.397766	715.758057	2981.916748	795.856445	3.534544
332.765503	710.185364	3034.894531	801.800598	3.940933
333.133240	720.364929	3098.572021	800.760437	3.380509
333.500916	720.067688	3149.841064	805.515808	3.516711
333.868561	724.674500	3184.763428	803.881165	3.219667
334.236176	717.169861	3218.050781	808.264954	3.642520
334.603790	722.296692	3227.858643	809.528137	3.481512
334.971344	719.473206	3223.177734	812.797424	3.727445
335.338867	725.640381	3221.765625	810.865540	3.414298
335.706360	723.188416	3228.750244	824.760254	4.053855
336.073853	722.742615	3247.326172	830.704407	4.276420
336.441284	717.764343	3252.230225	840.735352	4.851950
336.808655	718.507324	3247.326172	835.682800	4.633605
337.176086	720.587830	3198.434814	833.528015	4.557997
337.543396	727.869446	3122.200439	823.125549	3.978401
337.910706	729.875549	3040.541748	825.206055	4.125672
338.277954	726.086121	3053.395752	826.394836	4.310072
338.645264	727.126404	3141.073242	840.512390	4.697120
339.012421	729.132568	3283.065674	850.246094	4.742236
339.379669	738.717712	3404.476318	863.992004	4.699386
339.746796	730.172852	3512.809814	874.022949	5.169560
340.113953	736.191406	3596.028564	886.580078	5.258645
340.481018	726.680664	3633.625977	893.638855	5.743424
340.848114	729.058289	3627.830811	906.938965	6.136414
341.215118	716.798340	3621.217529	905.824463	6.508224
341.582153	716.947021	3644.325439	905.527283	6.441950
341.949066	715.758118	3687.792725	905.973083	6.400160
342.316010	713.603333	3700.498291	912.585999	6.661857
342.682922	717.021301	3714.393311	920.462097	6.787305
343.049835	717.467102	3730.516602	922.171082	6.793913
343.416656	720.959290	3780.522217	934.876892	6.991770
343.783478	718.135742	3842.565186	955.310059	7.590964
344.150269	723.411316	3958.180420	974.851746	7.773057
344.516998	726.234802	4094.377686	988.746338	7.793955
344.883728	726.160461	4207.392090	998.034180	7.809699
345.250427	721.999512	4282.214355	1005.835938	7.972452
345.617065	719.101746	4321.074707	1010.888489	8.100748
345.983704	716.724060	4315.799316	1021.959656	8.480946
346.350281	720.290588	4310.895996	1028.126831	8.573380
346.716827	717.244141	4260.220703	1042.838745	9.189860
347.083405	723.857117	4239.341309	1045.364990	9.145479
347.449860	720.810730	4177.596191	1050.343262	9.532918
347.816376	720.513489	4125.955566	1053.612671	9.781379
348.182770	716.872742	4086.426758	1056.064575	10.066372
348.549194	713.677551	4059.306396	1070.256348	10.658050
348.915558	716.872559	4086.278320	1070.999390	10.510068
349.281921	717.541321	4096.754883	1091.581177	11.068843
349.648193	715.014954	4150.327148	1095.816528	11.084919
350.014526	718.953125	4186.735840	1111.865967	11.330377
350.380737	720.736328	4247.663574	1126.429199	11.502728
350.746948	723.634216	4286.003906	1147.234009	11.890956
351.113159	720.736389	4323.377441	1156.744751	12.102465
351.479309	723.708496	4366.250488	1157.413452	11.906656
351.845428	726.160461	4410.906250	1164.620728	11.899335
352.211517	724.600159	4455.934082	1189.735229	12.465651
352.577576	723.188416	4506.162598	1216.855591	13.049710
352.943604	721.330811	4568.205566	1239.666626	13.474206
353.309601	724.600098	4631.139648	1248.880005	13.420570
353.675537	720.959290	4723.201172	1262.031616	13.519231
354.041473	724.080078	4831.088867	1274.886108	13.411367
354.407379	726.829285	4964.165039	1298.068604	13.481096
354.773254	725.120300	5084.609375	1323.405762	13.723751
355.139038	729.429871	5167.977051	1346.291016	13.897816
355.504913	721.553711	5270.143066	1374.451782	14.353858
355.870636	726.234802	5356.854492	1402.761108	14.609844
356.236389	729.355469	5483.837402	1433.745483	14.815285
356.602081	732.847717	5624.195313	1475.726440	15.187609
356.967804	728.463867	5784.764160	1513.472168	15.525350
357.333405	721.405090	5921.406738	1544.530640	15.829333
357.699036	722.742493	6086.656250	1571.651001	15.826290
358.064606	722.816895	6254.803223	1606.499023	15.974048
358.430176	718.210144	6405.563965	1656.802124	16.503139
358.795654	719.770508	6473.029785	1678.126953	16.657627
359.161163	726.457703	6458.615234	1696.331055	16.919865
359.526581	729.949951	6424.064941	1697.668457	16.995064
359.892029	729.206848	6436.176270	1717.730103	17.321335
360.257416	726.383484	6547.185059	1744.256226	17.486813
360.622772	730.544434	6756.569824	1806.373413	17.853045
360.988098	727.646545	7016.777344	1871.537109	18.188374
361.353394	722.222412	7312.502441	1933.356934	18.377588
361.718658	726.903503	7637.725098	1992.724976	18.316513
362.083893	735.151062	7925.276855	2048.377686	18.264305
362.449097	741.615417	8106.946777	2106.407959	18.529953
362.814209	733.813660	8102.562500	2115.621338	18.752268
363.179382	721.850891	7889.611328	2085.751709	19.028271
363.544434	718.433044	7514.828613	2015.906860	19.090618
363.909546	722.593933	7100.739746	1955.870483	19.335974
364.274536	727.943787	6747.652344	1923.771606	19.865211
364.639587	730.395752	6514.639160	1905.864746	20.321915
365.004517	728.984070	6371.829590	1897.988647	20.716579
365.369507	723.188477	6286.232910	1891.821655	21.007080
365.734344	714.569336	6243.286621	1889.518188	21.251743
366.099274	713.157532	6179.312012	1879.487305	21.337301
366.464081	717.095642	6158.283691	1875.846558	21.295919
366.828918	727.646545	6141.714355	1888.552246	21.442394
367.193665	725.268860	6155.980469	1906.905151	21.758406
367.558411	723.782898	6149.813965	1923.028687	22.101713
367.923126	720.736511	6140.451660	1934.174194	22.389326
368.287781	727.275085	6139.856934	1936.403320	22.339212
368.652435	733.442139	6116.748535	1942.644897	22.462082
369.017059	732.327637	6097.652344	1947.474243	22.648146
369.381653	728.686829	6055.003418	1958.471191	23.088835
369.746185	723.262695	6060.204590	1962.186157	23.214108
370.110687	725.268860	6056.786621	1978.458618	23.505310
370.475220	726.680603	6100.550781	2002.086914	23.733477
370.839661	728.612488	6135.027344	2030.098755	24.073000
371.204041	728.092346	6224.858887	2062.494873	24.276136
371.568451	728.389587	6287.198730	2084.562744	24.396828
371.932770	722.222473	6356.375000	2112.277588	24.671949
372.297150	725.714600	6377.179688	2122.383057	24.713388
372.661377	721.553711	6432.015137	2139.026855	24.822392
373.025696	727.498047	6460.918457	2163.026611	25.037909
373.389862	722.965515	6465.748535	2173.057373	25.250679
373.754059	720.513489	6459.506348	2195.719727	25.704969
374.118225	727.349365	6478.528809	2195.868408	25.534224
374.482361	730.544373	6551.494141	2218.307617	25.558771
374.846436	729.578430	6616.806641	2242.530518	25.698889
375.210510	720.959290	6731.009277	2281.687744	25.968645
375.574524	715.683777	6851.677246	2328.870117	26.290546
375.938538	714.792175	7018.040527	2384.522705	26.490000
376.302460	712.711731	7167.686035	2444.188232	26.823912
376.666412	718.061523	7348.464355	2495.531250	26.807869
377.030304	722.816895	7515.125000	2547.097168	26.858032
377.394196	726.977844	7690.777344	2600.074951	26.897633
377.757996	723.634216	7848.298828	2648.743164	27.020344
378.121796	720.142029	7923.270020	2672.446045	27.103558
378.485565	720.067627	7936.050293	2683.219971	27.205614
378.849304	716.872620	7829.500488	2673.560547	27.510057
379.212982	723.634216	7693.452637	2647.406006	27.601461
379.576630	722.222473	7483.695313	2593.165039	27.670637
379.940277	731.064453	7332.192871	2567.084961	27.813738
380.303864	732.624817	7236.787598	2555.122070	28.020475
380.667450	733.144958	7211.228027	2584.545898	28.579456
381.030945	725.640320	7210.781738	2594.725342	28.821035
381.394501	723.336914	7233.072754	2619.468018	29.127621
381.757935	723.782776	7265.395020	2639.381348	29.283279
382.121399	726.011902	7269.257813	2660.111572	29.558718
382.484741	727.497986	7326.693848	2702.984619	29.935263
382.848145	726.903503	7374.693848	2734.711670	30.202639
383.211487	725.194580	7479.460938	2787.689453	30.536179
383.574768	724.897400	7560.748047	2828.704834	30.776087
383.938019	723.114075	7659.347168	2891.267578	31.258373
384.301270	725.491760	7761.364746	2951.006592	31.630970
384.664459	711.448547	7849.189941	2997.594482	32.028984
385.027649	715.609558	7939.839844	3022.857422	31.937628
385.390778	717.838623	7992.966797	3044.999756	31.987907
385.753876	726.532043	8022.687500	3093.445313	32.440556
386.116943	721.256531	8068.606934	3144.416992	32.980057
386.479980	714.717834	8088.073730	3196.948975	33.664875
386.842987	717.467041	8153.460449	3235.511963	33.862926
387.205994	724.748718	8189.050781	3274.149414	34.154575
387.568909	728.686768	8272.715820	3313.975586	34.269337
387.931793	727.200745	8323.242188	3335.152100	34.333035
388.294678	724.080078	8356.678711	3376.761475	34.754631
388.657471	721.925293	8369.235352	3402.469971	35.052124
389.020294	718.655945	8367.898438	3430.927979	35.458046
389.383057	718.730225	8385.359375	3455.373779	35.695526
389.745819	719.993347	8394.944336	3489.032959	36.078922
390.108521	726.160461	8418.870117	3531.385498	36.466022
390.471191	723.262695	8503.426758	3600.487061	36.981537
390.833801	717.467041	8642.594727	3675.680908	37.327019
391.196442	715.163635	8827.014648	3771.977295	37.683308
391.558960	722.148132	9032.165039	3861.809326	37.781647
391.921509	728.240967	9260.422852	3972.074951	38.018810
392.284027	727.646545	9498.265625	4071.343018	38.123837
392.646484	724.451477	9601.174805	4140.667480	38.485100
393.008911	724.674500	9577.323242	4157.980469	38.782810
393.371307	720.959290	9505.769531	4165.335938	39.208321
393.733673	715.758118	9433.696289	4160.804199	39.516750
394.096008	709.888184	9408.878906	4171.280762	39.790741
394.458344	704.315430	9416.903320	4207.094727	40.203663
394.820587	702.457947	9453.387695	4230.351563	40.314499
395.182831	701.417664	9493.213867	4277.533203	40.675598
395.545013	712.265808	9438.006836	4258.512207	40.641205
395.907196	725.045898	9342.006836	4248.927246	40.894711
396.269287	735.745544	9193.772461	4188.370117	40.820683
396.631409	743.027283	9047.990234	4165.410645	41.208893
396.993469	742.952881	8906.815430	4127.739258	41.460602
397.355530	742.432800	8804.797852	4139.330078	42.132763
397.717499	733.070618	8783.918945	4137.770020	42.289948
398.079468	717.095520	8776.562500	4159.317871	42.710300
398.441376	712.637451	8793.578125	4158.871582	42.646450
398.803284	715.906738	8792.538086	4202.189941	43.165066
399.165131	725.120300	8820.327148	4236.741699	43.379017
399.526978	714.643555	8823.819336	4280.208496	43.969513
399.888763	710.259766	8841.875000	4292.839844	44.057423
400.250519	711.077087	8857.850586	4308.145996	44.153294
400.612244	721.553772	8893.441406	4338.461426	44.260368
400.973938	727.052185	8898.569336	4360.380859	44.463329
401.335602	725.789001	8928.364258	4385.049316	44.611115
401.697205	721.627991	8978.740234	4414.695801	44.725903
402.058807	717.392761	9034.987305	4464.924805	45.055477
402.420349	715.758118	9145.624023	4540.193359	45.367687
402.781860	722.668274	9266.960938	4595.549316	45.327110
403.143341	724.154297	9432.506836	4680.997070	45.437328
403.504822	728.909668	9588.022461	4767.634277	45.588360
403.866241	727.869446	9785.667969	4884.512207	45.890205
404.227631	726.531982	9947.573242	4981.328613	46.142262
404.588959	722.371094	10151.757813	5090.851074	46.328358
404.950287	716.055359	10315.966797	5172.881348	46.425701
405.311554	717.392761	10442.653320	5237.895996	46.482079
405.672821	717.021240	10489.463867	5259.815430	46.485760
406.034027	715.981018	10454.689453	5268.137207	46.742916
406.395203	714.792175	10397.922852	5235.295410	46.684315
406.756348	712.934570	10304.003906	5223.629883	47.030159
407.117493	710.779785	10216.624023	5217.537109	47.410389
407.478516	706.916016	10171.745117	5224.893066	47.734375
407.839600	712.785950	10149.008789	5228.385254	47.853886
408.200592	708.773682	10162.978516	5246.663574	47.998638
408.561554	714.940735	10131.250977	5263.679199	48.307011
408.922485	709.070862	10156.736328	5292.062988	48.509258
409.283417	713.454773	10190.023438	5290.576660	48.299362
409.644257	709.219543	10301.106445	5339.170410	48.269447
410.005096	706.247375	10428.460938	5405.300293	48.333157
410.365906	705.801575	10556.187500	5505.906250	48.730118
410.726715	710.556946	10701.003906	5593.435059	48.875469
411.087433	715.609558	10803.541992	5639.502441	48.809734
411.448120	728.240967	10885.944336	5688.839844	48.835831
411.808807	731.138855	10886.463867	5699.390625	48.922626
412.169434	728.909729	10801.460938	5692.777344	49.281139
412.530029	723.857117	10735.629883	5676.802246	49.471214
412.890564	717.095520	10697.883789	5665.582520	49.580120
413.251099	724.600098	10696.991211	5690.103027	49.792503
413.611572	730.915833	10754.947266	5710.312500	49.674591
413.972076	728.463867	10816.098633	5770.571777	49.983055
414.332489	717.615723	10917.595703	5809.506348	49.920593
414.692871	714.494934	11058.101563	5883.289551	49.970913
415.053223	719.696106	11222.163086	5968.960938	49.981255
415.413574	720.736389	11431.176758	6084.129395	50.076309
415.773834	722.148132	11592.190430	6186.890625	50.273426
416.134094	727.646484	11757.215820	6278.208496	50.324375
416.494263	732.401855	11926.551758	6357.415527	50.249580
416.854462	731.807434	12224.655273	6507.655762	50.256023
417.214630	724.302917	12564.514648	6678.179688	50.285221
417.574738	722.073792	12923.471680	6884.741699	50.507885
417.934784	725.417480	13235.245117	7033.570313	50.425575
418.294861	719.324707	13640.343750	7219.698730	50.308521
418.654846	721.925293	14072.339844	7480.798340	50.626694
419.014832	723.188416	14574.403320	7761.216309	50.811630
419.374756	724.080017	15067.700195	8068.384277	51.202583
419.734680	723.411316	15642.504883	8330.078125	50.986118
420.094543	713.083252	16165.968750	8611.834961	51.115063
420.454376	715.906738	16669.814453	8867.807617	51.096577
420.814148	714.123535	17179.458984	9125.637695	51.086197
421.173920	718.061523	17728.480469	9413.262695	51.116917
421.533691	724.154297	18255.583984	9710.175781	51.256638
421.893341	722.965515	18628.435547	9965.108398	51.616306
422.253021	721.182190	18873.783203	10133.850586	51.852997
422.612640	717.021301	18967.478516	10147.597656	51.673096
422.972260	720.587830	18945.335938	10102.569336	51.479347
423.331757	715.683838	18860.482422	10052.786133	51.458836
423.691315	712.191589	18824.593750	10090.234375	51.776913
424.050781	715.609558	18975.652344	10194.481445	51.910458
424.410248	714.049133	19092.455078	10273.540039	52.014801
424.769653	713.677673	19301.916016	10344.424805	51.810974
425.128998	711.968689	19339.734375	10380.386719	51.903263
425.488373	718.284424	19273.679688	10351.409180	51.915497
425.847656	722.222473	19001.435547	10249.911133	52.123077
426.206940	718.284424	18728.224609	10137.713867	52.301285
426.566193	721.776672	18358.269531	9969.418945	52.434704
426.925385	719.398926	17993.072266	9796.590820	52.549282
427.284576	722.891174	17464.630859	9521.670898	52.555943
427.643677	720.662109	17079.966797	9337.770508	52.674049
428.002777	721.479431	16710.681641	9150.231445	52.715275
428.361847	722.371033	16314.054688	8976.437500	52.938904
428.720856	716.501160	15936.596680	8802.643555	53.128067
429.079865	716.575439	15649.862305	8655.598633	53.163269
429.438812	718.358704	15501.554688	8554.843750	53.009407
429.797760	719.696106	15414.174805	8474.151367	52.771217
430.156616	716.575439	15241.643555	8390.411133	52.831669
430.515503	714.866455	15135.911133	8350.436523	52.947414
430.874268	721.330872	15086.945313	8349.692383	53.101532
431.233093	722.445374	15092.666992	8391.154297	53.365280
431.591827	718.433044	15148.914063	8428.305664	53.427689
431.950562	714.420715	15162.882813	8460.553711	53.612164
432.309204	721.628113	15282.583008	8502.312500	53.435261
432.667877	722.519592	15409.270508	8578.026367	53.487030
433.026459	720.290588	15546.582031	8672.911133	53.638638
433.385010	715.015076	15663.756836	8770.248047	53.885689
433.743561	712.637390	15869.649414	8858.816406	53.745285
434.102051	718.210144	16106.229492	8944.561523	53.459457
434.460510	722.965515	16279.354492	9047.470703	53.511806
434.818939	723.559998	16312.715820	9082.690430	53.621445
435.177338	723.634216	16301.571289	9081.723633	53.653378
435.535675	719.993347	16278.387695	9055.867188	53.577984
435.894012	724.302917	16240.270508	9050.888672	53.664623
436.252289	719.993347	16269.916992	9082.764648	53.780144
436.610535	712.563049	16229.199219	9081.352539	53.934299
436.968719	717.764343	16377.730469	9159.073242	53.903748
437.326935	716.872620	16487.548828	9186.863281	53.707211
437.685028	723.188416	16674.792969	9269.414063	53.575962
438.043152	715.683777	16759.201172	9348.991211	53.811813
438.401215	721.925110	16996.078125	9496.853516	53.919418
438.759277	717.021240	17250.343750	9648.802734	54.022907
439.117249	721.702332	17679.515625	9875.054688	53.977200
439.475250	724.525879	17989.357422	10051.894531	54.025253
439.833130	733.888000	18419.568359	10275.916992	53.953423
440.191071	726.457703	18726.439453	10430.467773	53.911217
440.548889	718.953125	19064.589844	10640.966797	54.083778
440.906708	725.640381	19401.404297	10850.947266	54.216293
441.264496	734.556702	19654.035156	10986.252930	54.185936
441.622223	737.454529	19851.384766	11080.541992	54.112827
441.979950	727.126465	19895.373047	11114.944336	54.192848
442.337616	721.776611	19884.224609	11127.204102	54.301144
442.695251	715.758118	19726.927734	11051.489258	54.366627
443.052887	720.290527	19509.812500	10916.927734	54.267677
443.410461	718.358704	19345.158203	10828.878906	54.279430
443.768005	723.262695	19167.945313	10750.415039	54.363373
444.125458	723.931458	19087.699219	10719.208008	54.429333
444.482941	720.587708	19083.021484	10743.875977	54.585838
444.840393	717.021240	19235.414063	10826.797852	54.593163
445.197754	711.002747	19518.210938	11004.083008	54.729439
445.555084	716.129639	19865.353516	11173.495117	54.609863
445.912415	714.792175	20275.578125	11430.582031	54.782005
446.269714	720.290527	20600.207031	11612.549805	54.790272
446.626953	719.621887	20962.728516	11822.231445	54.846371
446.984161	729.281250	21298.505859	12009.028320	54.837978
447.341309	725.194580	21572.011719	12157.559570	54.839863
447.698456	726.680603	21735.775391	12266.709961	54.928730
448.055542	717.244141	21830.808594	12327.266602	54.988453
448.412598	714.272034	21764.976563	12318.054688	55.123009
448.769653	710.556946	21599.580078	12237.733398	55.182938
449.126617	724.005676	21261.205078	12054.354492	55.169884
449.483582	732.253357	20992.673828	11919.717773	55.218327
449.840515	736.191406	20642.037109	11742.356445	55.291119
450.197388	717.244202	20372.021484	11621.911133	55.480999
450.554230	711.077148	20125.783203	11491.584961	55.527534
450.911041	706.916199	19946.044922	11387.411133	55.514442
451.267822	720.290588	19784.437500	11293.791992	55.462757
451.624573	724.005676	19569.925781	11190.510742	55.537247
451.981262	731.213135	19399.326172	11114.795898	55.622028
452.337921	731.881836	19269.371094	11017.459961	55.485283
452.694580	733.665039	19229.097656	10963.588867	55.310539
453.051147	722.073792	19233.927734	10979.936523	55.412399
453.407715	717.987122	19135.996094	10956.233398	55.588234
453.764221	717.912903	19161.037109	10988.703125	55.688992
454.120728	721.999512	18907.146484	10845.151367	55.667149
454.477142	725.714661	18824.669922	10820.333008	55.774590
454.833557	719.101746	18566.244141	10700.854492	55.929138
455.189911	725.937683	18412.064453	10634.131836	56.022408
455.546265	722.965515	18215.980469	10498.157227	55.880539
455.902557	728.463867	18075.623047	10408.918945	55.804264
456.258820	727.052063	18082.533203	10433.810547	55.929070
456.615051	730.692932	18162.855469	10511.308594	56.106724
456.971252	721.628113	18136.552734	10537.463867	56.364506
457.327393	714.197754	18329.888672	10624.397461	56.257793
457.683502	708.402161	18574.492188	10781.994141	56.383865
458.039612	717.987122	19070.982422	11039.304688	56.237778
458.395630	727.126404	19546.371094	11321.877930	56.297436
458.751648	724.822998	20077.041016	11592.636719	56.157970
459.107605	722.519714	20850.160156	12009.698242	56.078003
459.463562	720.067688	21588.357422	12416.429688	56.048496
459.819458	728.984070	22274.099609	12811.424805	56.079720
460.175323	734.482422	22830.697266	13128.547852	56.091351
460.531158	732.327637	23387.970703	13432.519531	56.057522
460.886932	727.869446	23724.859375	13653.273438	56.204765
461.242676	716.724060	23833.337891	13757.742188	56.414055
461.598419	715.981018	23553.443359	13654.983398	56.656914
461.954102	714.569275	23038.750000	13403.691406	56.840256
462.309723	718.061523	22329.083984	12997.254883	56.819118
462.665344	717.392761	21610.798828	12568.750977	56.722961
463.020905	717.169922	21019.421875	12227.627930	56.695473
463.376373	713.677673	20551.166016	11993.721680	56.862259
463.731873	714.494934	20170.884766	11812.348633	57.039631
464.087341	708.773682	19892.474609	11618.270508	56.868572
464.442749	711.671448	19724.773438	11510.457031	56.796547
464.798126	707.956299	19645.341797	11460.674805	56.780380
465.153503	711.522888	19744.091797	11546.344727	56.927799
465.508820	713.677673	19846.701172	11591.000977	56.851044
465.864105	722.371033	19999.617188	11705.651367	56.975361
466.219330	724.377258	20265.324219	11862.429688	56.998531
466.574524	727.646484	20446.994141	11996.843750	57.147923
466.929657	723.188293	20643.451172	12088.534180	57.054192
467.284790	730.692932	20826.382813	12199.614258	57.071548
467.639893	727.572266	21018.455078	12320.284180	57.132614
467.994934	736.488586	21223.531250	12442.437500	57.138306
468.349945	727.498047	21236.607422	12471.117188	57.260502
468.704926	729.578430	21158.740234	12454.547852	57.393299
469.059875	725.268860	20894.220703	12312.629883	57.451481
469.414764	728.538269	20648.205078	12161.422852	57.394962
469.769653	722.519714	20468.837891	12039.567383	57.312191
470.124451	717.987244	20380.195313	11980.645508	57.280739
470.479248	717.838562	20228.396484	11895.495117	57.290295
470.834015	719.770508	20124.150391	11867.704102	57.450607
471.188721	720.959290	20183.591797	11916.893555	57.525284
471.543365	719.027527	20328.033203	11973.882813	57.396358
471.898010	722.668274	20493.580078	12025.449219	57.168739
472.252625	721.627991	20667.523438	12127.170898	57.182407
472.607178	719.324646	20925.281250	12303.639648	57.331188
472.961700	716.352539	21180.880859	12447.786133	57.325699
473.316193	716.055359	21479.207031	12631.909180	57.389423
473.670654	717.095520	21638.365234	12759.561523	57.560875
474.025055	709.145203	21848.416016	12903.484375	57.685711
474.379456	707.064758	22022.435547	12999.929688	57.671364
474.733795	714.272034	22192.812500	13041.018555	57.390984
475.088104	725.566101	22330.046875	13136.499023	57.446106
475.442383	735.894104	22335.546875	13153.514648	57.489906
475.796570	732.773438	22474.271484	13266.899414	57.650700
476.150787	726.011902	22688.781250	13394.179688	57.680195
476.504944	714.346375	23005.533203	13557.348633	57.614704
476.859070	719.027405	23314.187500	13724.901367	57.560440
477.213135	722.816895	23610.060547	13855.377930	57.379387
477.567200	731.658875	24052.755859	14131.114258	57.456364
477.921173	722.222412	24480.888672	14380.102539	57.485886
478.275146	721.776611	25045.142578	14711.418945	57.515244
478.629089	719.844727	25370.218750	14913.077148	57.578159
478.983002	726.234863	25797.013672	15185.692383	57.674541
479.336823	728.835388	26170.162109	15418.854492	57.740776
479.690643	722.371094	26684.115234	15681.217773	57.618805
480.044403	713.751953	27275.117188	15999.307617	57.548080
480.398163	709.962463	28003.953125	16440.666016	57.634312
480.751862	708.847961	28979.771484	17091.187500	57.947662
481.105499	708.922302	30167.720703	17830.126953	58.119156
481.459137	713.157471	31792.720703	18768.716797	58.094635
481.812744	720.290588	33802.464844	19900.943359	57.978813
482.166290	724.302917	36304.832031	21351.183594	57.972385
482.519806	718.953125	39245.285156	23088.306641	58.062504
482.873291	720.364929	42587.792969	25120.337891	58.279129
483.226715	719.621887	46258.871094	27459.388672	58.718067
483.580139	725.566101	49690.687500	29917.250000	59.617302
483.933502	723.262695	52789.042969	32389.224609	60.819141
484.286804	720.141907	55224.089844	34649.738281	62.251633
484.640106	716.501160	57025.406250	36584.800781	63.699162
484.993347	713.008850	58042.687500	37815.472656	64.717728
485.346558	716.724121	58219.003906	38221.320313	65.222801
485.699738	713.603333	57625.402344	37626.750000	64.860268
486.052887	715.089355	56468.582031	36441.546875	64.079315
486.405975	713.231873	55062.699219	34958.910156	63.010147
486.759064	721.999573	53642.699219	33516.097656	61.968376
487.112061	718.507324	52505.425781	32378.599609	61.135307
487.464996	723.114075	51791.746094	31721.169922	60.698818
487.817963	721.627991	51644.328125	31591.585938	60.621212
488.170868	727.052063	51678.656250	31646.791016	60.684521
488.523743	723.188416	51772.128906	31674.359375	60.630390
488.876587	722.296692	51577.011719	31587.869141	60.693630
489.229401	720.885010	51140.703125	31286.869141	60.622959
489.582153	724.748779	50393.214844	30751.666016	60.454693
489.934845	719.398926	49434.488281	30002.177734	60.110287
490.287537	716.798340	48362.230469	29246.888672	59.880009
490.640198	722.668274	47513.250000	28646.820313	59.679001
490.992798	730.395752	46930.343750	28200.037109	59.458160
491.345337	730.990173	46862.871094	28045.562500	59.209751
491.697876	724.674500	46933.386719	28083.603516	59.207298
492.050354	726.531982	47353.421875	28363.056641	59.271645
492.402832	730.172852	47527.734375	28572.814453	59.495922
492.755219	731.361633	47375.636719	28499.701172	59.532150
493.107605	725.045898	46606.011719	28049.203125	59.554451
493.459930	725.491699	45365.375000	27252.826172	59.425186
493.812225	720.216309	43587.980469	26151.806641	59.325672
494.164490	722.296814	41470.578125	24862.953125	59.243374
494.516724	721.702332	39262.519531	23484.562500	59.061695
494.868896	726.532043	37239.855469	22271.570313	59.005966
495.221039	720.885010	35654.832031	21293.302734	58.889477
495.573120	727.720886	34443.175781	20570.708984	58.854282
495.925201	725.863281	33770.292969	20143.244141	58.761433
496.277222	728.240967	33387.113281	19875.162109	58.627014
496.629211	725.863281	33347.062500	19806.876953	58.492680
496.981140	728.092346	33389.410156	19767.642578	58.293884
497.333069	731.436035	33489.871094	19846.851563	58.352654
497.684967	731.584656	33547.378906	19895.666016	58.398960
498.036804	724.600159	33564.175781	19942.404297	58.520260
498.388580	722.371033	33483.484375	19864.015625	58.427944
498.740326	717.392761	33299.359375	19772.919922	58.484890
499.092072	715.312256	32957.640625	19572.599609	58.486122
499.443756	715.683777	32581.595703	19387.882813	58.596153
499.795410	706.916199	32183.259766	19140.826172	58.564331
500.147003	711.820129	31812.412109	18929.212891	58.575710
500.498566	710.111145	31424.703125	18675.244141	58.490547
500.850098	720.216309	30950.203125	18433.017578	58.593479
501.201599	716.426819	30504.015625	18192.054688	58.667480
501.553009	714.569275	30113.630859	17961.716797	58.665642
501.904449	708.550781	29864.271484	17805.162109	58.638958
502.255859	716.798340	29647.900391	17676.173828	58.619873
502.607178	716.501221	29559.703125	17651.503906	58.714016
502.958405	724.600098	29477.599609	17590.279297	58.657112
503.309692	717.318420	29466.083984	17552.753906	58.560551
503.660919	715.163635	29495.802734	17539.974609	58.458782
504.012115	708.996582	29602.056641	17548.222656	58.281216
504.363251	715.535217	29729.111328	17631.367188	58.303162
504.714294	719.696106	29753.412109	17657.968750	58.340012
505.065369	717.615723	29733.421875	17695.712891	58.513271
505.416443	720.662109	29733.349609	17695.935547	58.509827
505.767395	720.439209	29785.287109	17744.828125	58.573811
506.118317	724.897400	29810.103516	17745.865234	58.521049
506.469238	719.398987	29816.048828	17733.308594	58.473778
506.820160	726.680664	29778.970703	17702.251953	58.431095
507.170929	727.052063	29775.328125	17732.939453	58.543533
507.521729	729.578430	29832.244141	17781.681641	58.592926
507.872498	727.200867	29944.587891	17823.365234	58.513664
508.223236	723.708557	30166.531250	17951.240234	58.511822
508.573883	726.086182	30351.396484	18072.501953	58.552689
508.924500	727.052063	30589.166016	18226.531250	58.600937
509.275116	734.185120	30781.833984	18321.119141	58.530151
509.625702	727.200684	31068.494141	18460.212891	58.445141
509.976196	722.742615	31362.287109	18624.869141	58.428177
510.326660	714.866516	31655.632813	18808.841797	58.479401
510.677124	716.352539	31942.369141	18990.064453	58.520790
511.027557	717.392761	32164.904297	19115.564453	58.504379
511.377869	716.724060	32397.919922	19237.716797	58.460522
511.728180	714.494934	32540.728516	19317.888672	58.453018
512.078430	716.872620	32657.234375	19410.025391	58.525173
512.428650	711.894348	32805.468750	19482.025391	58.485634
512.778931	722.073914	32906.890625	19561.751953	58.535919
513.129028	721.702332	32993.007813	19616.140625	58.548725
513.479126	727.275085	33024.511719	19635.087891	58.543129
513.829285	724.451477	33001.406250	19586.271484	58.437420
514.179382	723.411316	32917.367188	19548.970703	58.475445
514.529297	720.216309	32821.593750	19521.554688	58.568634
514.879272	709.145203	32804.875000	19543.250000	58.681030
515.229187	699.114258	32741.640625	19455.275391	58.535210
515.579163	708.625000	32744.318359	19450.148438	58.502007
515.928955	716.649719	32788.378906	19453.269531	58.420982
516.278748	726.829285	33040.933594	19626.470703	58.487282
516.628540	724.228577	33372.917969	19799.744141	58.426590
516.978333	726.011902	33831.738281	20073.474609	58.441441
517.327942	726.086182	34366.199219	20416.160156	58.531532
517.677612	725.194519	35012.925781	20806.324219	58.566517
518.027222	721.999512	35710.113281	21212.759766	58.564919
518.376831	721.479431	36495.339844	21639.923828	58.474110
518.726379	722.073914	37212.437500	22060.031250	58.475594
519.075867	723.262695	37797.718750	22456.662109	58.620949
519.425293	721.033630	38257.800781	22736.556641	58.650562
519.774658	723.782776	38457.828125	22886.427734	58.733814
520.124084	725.120300	38453.890625	22888.431641	58.743793
520.473389	729.801331	38099.238281	22731.134766	58.875206
520.822693	721.702332	37712.863281	22490.765625	58.849365
521.171997	714.717834	37260.957031	22161.976563	58.685268
521.521240	709.813904	36795.226563	21858.447266	58.607151
521.870361	714.940735	36352.828125	21597.646484	58.596924
522.219482	724.451477	35959.765625	21396.732422	58.669216
522.568604	726.903564	35767.843750	21245.228516	58.555286
522.917664	727.943787	35598.359375	21115.273438	58.465981
523.266724	723.559875	35689.972656	21109.253906	58.300785
523.615662	713.751953	35912.289063	21252.583984	58.351376
523.964600	710.408264	36363.753906	21553.955078	58.461689
524.313538	710.779785	36917.011719	21932.826172	58.614349
524.662354	724.897278	37667.546875	22408.437500	58.695145
525.011169	730.024231	38633.253906	22951.218750	58.626125
525.359985	727.423645	39797.800781	23622.023438	58.598354
525.708740	715.386536	41108.722656	24377.384766	58.578964
526.057434	719.398926	42569.886719	25276.599609	58.678410
526.406067	721.405090	44206.109375	26288.005859	58.794472
526.754700	727.349365	46012.781250	27387.166016	58.870621
527.103333	716.278259	47955.500000	28711.906250	59.263527
527.451782	714.420654	49967.910156	30216.835938	59.899139
527.800293	715.906738	51953.730469	31827.125000	60.719242
528.148743	716.426758	53840.343750	33479.023438	61.672028
528.497131	713.751953	55501.156250	35019.019531	62.615238
528.845642	710.779785	56874.718750	36536.285156	63.787380
529.193909	712.785950	57932.125000	37751.132813	64.730469
529.542175	713.083191	58646.390625	38651.753906	65.486801
529.890503	712.340149	58896.050781	39037.757813	65.869667
530.238770	709.591003	58652.261719	38820.269531	65.773079
530.586914	715.758118	57919.488281	38118.781250	65.385635
530.934998	713.528992	56776.714844	36888.621094	64.525574
531.283142	715.758118	55356.640625	35467.734375	63.600685
531.631226	715.015137	53756.011719	33855.292969	62.480495
531.979248	726.309082	52130.863281	32362.177734	61.542931
532.327148	730.024231	50695.484375	31094.648438	60.771229
532.675110	730.247131	49596.105469	30171.068359	60.248241
533.023071	724.674500	49119.300781	29692.632813	59.857803
533.370850	726.457703	49024.562500	29544.619141	59.667271
533.718689	727.349304	49279.203125	29678.958984	59.630283
534.066467	728.018066	49464.437500	29847.328125	59.748566
534.414246	721.999512	49549.292969	29934.263672	59.827736
534.761963	711.597168	49398.902344	29919.994141	59.991814
535.109619	706.544617	49027.832031	29751.476563	60.107941
535.457153	705.504333	48398.785156	29297.634766	59.950020
535.804749	712.191589	47598.546875	28706.708984	59.707172
536.152344	712.860291	46705.355469	28023.791016	59.381279
536.499817	714.717834	45748.558594	27406.929688	59.271454
536.847229	713.454773	44815.386719	26774.615234	59.093010
537.194641	711.448547	43984.980469	26205.974609	58.914825
537.542114	710.185364	43396.207031	25798.275391	58.773548
537.889404	711.448547	42876.160156	25480.484375	58.743519
538.236694	712.265930	42388.218750	25194.119141	58.743355
538.583984	716.649719	41933.855469	24926.853516	58.738098
538.931213	717.987244	41654.105469	24722.892578	58.639919
539.278381	726.309082	41486.031250	24613.818359	58.605675
539.625488	727.497986	41543.316406	24628.304688	58.557701
539.972595	725.937561	41887.710938	24814.062500	58.520618
540.319641	721.702332	42638.394531	25233.576172	58.477596
540.666687	717.912903	43651.957031	25852.369141	58.542023
541.013611	722.148193	45011.546875	26682.330078	58.614887
541.360596	721.107910	46404.722656	27577.158203	58.787056
541.707458	722.445313	47856.449219	28542.126953	59.022530
542.054260	717.541321	48988.082031	29346.007813	59.308365
542.401062	715.089355	49945.843750	30040.812500	59.567894
542.747864	715.758118	50412.832031	30412.103516	59.754715
543.094666	713.900574	50363.199219	30430.009766	59.852024
543.441284	710.408386	49743.667969	30067.416016	59.871624
543.787903	711.225647	48741.769531	29407.085938	59.745026
544.134460	713.008972	47433.375000	28569.843750	59.624603
544.481079	716.278259	45981.347656	27592.833984	59.375931
544.827637	710.185364	44413.707031	26489.587891	58.987011
545.174072	711.002686	42742.046875	25387.828125	58.710953
545.520508	716.649719	41333.191406	24461.646484	58.461391
545.866943	723.857117	40076.878906	23722.406250	58.441631
546.213318	729.578430	39211.847656	23190.771484	58.367641
546.559631	723.857117	38403.656250	22678.601563	58.266613
546.905823	716.872742	37723.710938	22271.869141	58.245979
547.252136	713.231750	37203.667969	21915.958984	58.104885
547.598389	716.426819	36660.738281	21624.916016	58.169113
547.944458	723.485596	36239.148438	21377.041016	58.153366
548.290588	722.073914	35674.964844	21058.132813	58.181335
548.636658	719.993347	35085.074219	20651.771484	58.000088
548.982727	716.946960	34284.613281	20159.072266	57.919201
549.328735	724.451477	33481.769531	19699.138672	57.925034
549.674622	726.680603	32613.396484	19227.017578	58.018948
550.020569	729.504150	31813.306641	18803.492188	58.146000
550.366455	720.959290	30980.890625	18313.539063	58.138203
550.712280	722.742493	30262.904297	17883.994141	58.094643
551.058044	715.683777	29716.630859	17514.263672	57.924248
551.403748	714.866455	29301.796875	17232.062500	57.778835
551.749512	707.361816	29050.505859	17069.935547	57.730270
552.095154	709.516602	28852.562500	16918.134766	57.593685
552.440735	708.030579	28786.062500	16891.236328	57.636539
552.786316	715.015137	28727.365234	16859.583984	57.633755
553.131897	724.377258	28738.062500	16895.101563	57.724373
553.477417	729.281250	28747.720703	16871.994141	57.614605
553.822815	731.956116	28731.820313	16861.070313	57.604259
554.168213	725.343201	28706.931641	16821.615234	57.524513
554.513672	726.234802	28579.427734	16755.410156	57.548790
554.859009	721.925232	28405.412109	16644.775391	57.517506
555.204285	720.736389	28153.005859	16535.550781	57.650406
555.549500	721.479492	27859.804688	16388.060547	57.728622
555.894714	722.073914	27530.791016	16234.625000	57.863831
556.239990	719.696106	27237.669922	16005.995117	57.645046
556.585022	718.210144	26924.630859	15842.157227	57.710850
556.930115	719.621887	26641.242188	15685.675781	57.735794
557.275146	720.513489	26302.349609	15515.225586	57.832878
557.620178	719.993347	26114.509766	15359.262695	57.647366
557.965149	720.364929	25931.724609	15205.382813	57.454330
558.310059	720.736389	25795.304688	15107.452148	57.375729
558.654968	718.730164	25604.718750	15008.184570	57.419678
558.999756	712.934570	25444.818359	14974.301758	57.663895
559.344604	718.655945	25361.154297	14939.007813	57.706615
559.689331	718.061523	25304.537109	14898.586914	57.676117
560.033997	718.878845	25274.591797	14818.340820	57.418255
560.378723	717.764343	25235.656250	14815.961914	57.501667
560.723389	721.256531	25217.375000	14786.166992	57.416893
561.067932	726.977783	25282.166016	14791.590820	57.277565
561.412476	726.309082	25308.250000	14764.768555	57.108829
561.757019	720.290527	25333.437500	14800.136719	57.204575
562.101501	721.479309	25311.369141	14818.934570	57.330288
562.445862	719.473206	25288.859375	14810.762695	57.353035
562.790222	725.937561	25265.599609	14802.514648	57.362556
563.134644	718.581604	25224.658203	14781.858398	57.386894
563.478943	718.953125	25214.328125	14791.739258	57.450790
563.823181	718.581604	25212.177734	14780.817383	57.411888
564.167358	721.851013	25260.546875	14814.105469	57.428703
564.511536	719.844788	25373.857422	14850.440430	57.315605
564.855774	716.649719	25425.945313	14862.031250	57.247208
565.199768	717.244141	25544.234375	14895.243164	57.107201
565.543823	718.061523	25647.367188	14979.726563	57.208435
565.887817	716.129639	25920.726563	15103.514648	57.082382
566.231812	712.563049	26152.404297	15228.937500	57.061573
566.575745	710.333984	26363.869141	15321.518555	56.955833
566.919617	712.117249	26558.912109	15456.006836	57.043396
567.263428	714.569336	26700.460938	15537.664063	57.042858
567.607239	714.792175	26813.103516	15648.301758	57.220215
567.950989	719.993347	26784.052734	15640.054688	57.243816
568.294678	724.080017	26765.921875	15628.834961	57.233875
568.638367	727.572266	26640.646484	15527.708008	57.114552
568.981995	719.027344	26514.554688	15417.590820	56.981056
569.325623	711.894287	26298.630859	15310.522461	57.055450
569.669128	711.076965	26139.994141	15206.870117	57.005150
570.012573	709.070801	26005.431641	15143.711914	57.062122
570.356140	713.974792	26009.890625	15108.046875	56.902752
570.699524	714.643555	25979.873047	15076.617188	56.844814
571.042908	720.216309	26053.359375	15111.093750	56.806522
571.386230	714.197754	26162.583984	15158.795898	56.760368
571.729492	711.671448	26396.931641	15256.652344	56.627735
572.072815	711.671448	26572.361328	15379.846680	56.719967
572.416016	719.547546	26711.603516	15454.817383	56.691433
572.759094	722.965515	26827.515625	15537.738281	56.751686
573.102234	720.067688	26917.943359	15567.312500	56.673470
573.445374	711.820007	26942.912109	15586.333008	56.705658
573.788391	709.442322	26909.919922	15563.000977	56.691936
574.131409	710.556946	26871.132813	15546.729492	56.711948
574.474365	715.460938	26788.804688	15536.104492	56.842129
574.817261	717.987122	26673.193359	15462.023438	56.805698
575.160156	729.801270	26481.119141	15328.872070	56.692516
575.502930	735.299744	26263.263672	15169.418945	56.542381
575.845703	730.172852	26047.115234	15020.590820	56.446068
576.188477	728.538269	25803.998047	14873.472656	56.409473
576.531250	730.395752	25528.111328	14732.817383	56.466583
576.873901	737.974609	25208.240234	14582.652344	56.577553
577.216431	730.767273	24893.791016	14438.950195	56.732067
577.559082	720.439148	24575.998047	14246.581055	56.700169
577.901611	713.974792	24189.103516	14048.118164	56.801151
578.244080	708.030579	23841.218750	13822.609375	56.691620
578.586487	717.169861	23502.992188	13647.999023	56.749451
578.928955	723.411316	23186.240234	13446.786133	56.641911
579.271301	730.098572	22817.843750	13242.750000	56.649742
579.613647	722.742493	22393.726563	12984.028320	56.579277
579.955872	720.216309	22030.234375	12764.613281	56.519882
580.298157	724.005676	21720.466797	12578.484375	56.459412
580.640320	727.349304	21478.984375	12416.132813	56.327049
580.982483	724.228577	21207.632813	12265.000977	56.342064
581.324524	719.547546	20990.890625	12160.234375	56.437733
581.666626	715.832336	20819.029297	12074.934570	56.503960
582.008728	714.940735	20737.591797	12005.833008	56.390598
582.350647	716.055359	20621.308594	11942.899414	56.401409
582.692566	721.182190	20539.054688	11882.120117	56.317535
583.034424	723.114075	20423.589844	11826.168945	56.359322
583.376343	721.107910	20302.029297	11749.415039	56.321693
583.718201	720.439209	20229.658203	11706.617188	56.312752
584.059937	728.835388	20148.521484	11655.570313	56.266285
584.401611	731.064453	20070.427734	11593.750000	56.168785
584.743347	732.699158	19971.902344	11510.754883	56.021320
585.085022	724.080078	19851.085938	11467.139648	56.166969
585.426514	725.491699	19758.876953	11388.304688	56.021629
585.768127	720.587708	19669.341797	11364.304688	56.171066
586.109619	720.141907	19609.974609	11315.265625	56.089031
586.451172	719.101746	19580.921875	11304.713867	56.121902
586.792542	715.163757	19535.300781	11265.109375	56.056686
587.133850	716.649719	19515.164063	11250.917969	56.037773
587.475220	715.906738	19488.861328	11250.621094	56.116444
587.816589	723.782898	19438.185547	11247.796875	56.234837
588.157776	730.172852	19500.005859	11258.793945	56.093315
588.498962	733.293640	19574.009766	11282.942383	55.993881
588.840210	730.247131	19696.017578	11299.734375	55.729282
589.181335	724.005798	19722.841797	11313.703125	55.738663
589.522400	722.148193	19751.150391	11305.530273	55.617115
589.863403	726.903564	19799.669922	11338.446289	55.637150
590.204407	729.281250	19784.064453	11346.842773	55.721241
590.545410	729.355469	19869.810547	11378.273438	55.635658
590.886353	727.349365	19853.908203	11387.784180	55.736294
591.227112	723.336975	19857.996094	11371.807617	55.650173
591.567932	719.398926	19725.662109	11355.684570	55.961998
591.908752	717.764343	19618.666016	11317.344727	56.079758
592.249512	720.513489	19575.421875	11322.101563	56.227203
592.590149	718.804504	19486.927734	11244.454102	56.082588
592.930786	715.089355	19427.189453	11171.117188	55.878429
593.271423	711.894348	19328.144531	11086.411133	55.728283
593.612000	716.129639	19269.964844	11056.170898	55.729939
593.952576	720.587830	19285.123047	11047.104492	55.624966
594.292969	722.073914	19323.390625	11071.773438	55.639606
594.633484	730.247253	19415.748047	11090.945313	55.447796
594.973877	725.863281	19510.482422	11135.898438	55.417866
595.314209	726.086182	19645.861328	11184.194336	55.276070
595.654480	710.705566	19848.560547	11295.796875	55.309708
595.994812	718.135925	20040.484375	11415.721680	55.363800
596.335022	717.912903	20308.494141	11539.137695	55.236870
596.675171	722.296692	20473.076172	11640.041992	55.277542
597.015320	715.535156	20658.978516	11749.265625	55.325104
597.355408	719.844727	20747.029297	11809.004883	55.370541
597.695496	716.575500	20830.990234	11865.699219	55.428532
598.035461	719.919128	20797.851563	11835.680664	55.363083
598.375366	716.352539	20758.248047	11818.665039	55.395523
598.715271	718.432922	20657.267578	11740.944336	55.281628
599.055176	722.148132	20452.341797	11625.032227	55.259892
599.395081	727.349365	20159.814453	11482.890625	55.348312
599.734802	727.126465	19815.271484	11290.893555	55.342033
600.074524	723.114075	19472.439453	11093.395508	55.310154
600.414246	717.764343	19068.603516	10833.930664	55.126446
600.753906	715.832458	18687.357422	10622.094727	55.121990
601.093506	713.900574	18361.912109	10448.819336	55.161564
601.433044	715.312317	18170.656250	10357.501953	55.239185
601.772583	723.559875	18061.283203	10275.768555	55.094948
602.112122	727.720886	18019.226563	10259.273438	55.122746
602.451538	727.497986	18022.494141	10271.311523	55.182514
602.790894	724.748779	18116.267578	10349.997070	55.344490
603.130310	719.844727	18325.429688	10444.734375	55.237522
603.469604	725.194580	18598.865234	10557.301758	55.008888
603.808838	723.336975	18903.949219	10686.737305	54.802341
604.148010	727.423645	19224.566406	10813.719727	54.528942
604.487305	722.073914	19531.287109	10955.120117	54.404434
604.826416	725.120300	19806.728516	11115.760742	54.453697
605.165527	719.993347	20005.783203	11252.551758	54.613056
605.504456	721.405090	20164.568359	11363.485352	54.734303
605.843445	716.946960	20204.544922	11364.600586	54.638100
606.182434	714.940735	20145.845703	11340.229492	54.682423
606.521423	715.089355	19978.515625	11233.234375	54.601631
606.860229	715.980957	19749.439453	11132.331055	54.726521
607.199036	721.925232	19504.167969	10978.597656	54.608353
607.537903	715.312317	19256.443359	10847.974609	54.649643
607.876648	711.374268	18940.656250	10655.902344	54.552498
608.215271	707.361877	18650.353516	10514.429688	54.656811
608.553955	709.219482	18351.804688	10356.833008	54.683670
608.892578	719.473328	18196.437500	10270.865234	54.651318
609.231140	721.776672	18100.291016	10177.615234	54.411091
609.569641	724.080078	18041.962891	10121.739258	54.265636
609.908081	725.789063	18037.060547	10101.901367	54.161892
610.246521	722.816895	17995.451172	10099.746094	54.287777
610.584961	730.767273	18020.935547	10098.409180	54.179008
610.923340	724.823059	17966.099609	10075.077148	54.231792
611.261597	727.126465	17905.023438	10011.995117	54.051258
611.599854	719.027344	17755.453125	9955.004883	54.213116
611.938110	719.993347	17623.044922	9842.435547	53.969208
612.276245	725.714661	17394.490234	9749.557617	54.136208
612.614319	723.336975	17088.957031	9582.375977	54.132011
612.952393	721.702332	16708.677734	9419.057617	54.402756
613.290466	713.454773	16369.036133	9222.899414	54.354061
613.628479	719.919128	16038.539063	9038.034180	54.300682
613.966370	722.296692	15777.661133	8870.629883	54.122456
614.304260	722.891113	15532.834961	8721.801758	54.010406
614.642151	720.662109	15339.573242	8618.075195	54.021896
614.979980	724.228516	15142.968750	8518.508789	54.056599
615.317749	723.114075	14995.477539	8441.532227	54.079468
615.655396	721.330811	14879.789063	8379.266602	54.087357
615.993164	722.519714	14831.714844	8353.781250	54.087151
616.330811	724.971680	14781.487305	8316.703125	54.008629
616.668396	730.024231	14779.406250	8259.266602	53.591270
617.005859	723.634094	14754.960938	8217.360352	53.407108
617.343445	720.290588	14722.936523	8199.082031	53.409847
617.680908	720.587830	14700.792969	8207.999023	53.557236
618.018311	723.485596	14719.815430	8207.181641	53.468990
618.355652	728.315247	14749.386719	8234.004883	53.531498
618.692993	725.343201	14743.739258	8227.985352	53.519974
619.030273	723.559875	14730.069336	8237.793945	53.648155
619.367554	732.773438	14690.168945	8212.753906	53.591522
619.704712	734.556702	14662.082031	8213.868164	53.701653
620.041870	740.798157	14606.281250	8182.290527	53.669186
620.379028	732.253357	14552.485352	8132.878906	53.549210
620.716064	733.367859	14501.809570	8064.892090	53.248760
621.053040	731.658875	14426.319336	8039.332031	53.361481
621.389954	730.618652	14382.851563	8006.489746	53.294369
621.726929	727.943787	14294.729492	7980.632324	53.459148
622.063843	728.686829	14243.460938	7930.923828	53.291580
622.400635	725.863281	14202.221680	7906.701660	53.284710
622.737427	725.417480	14174.432617	7895.630859	53.314037
623.074219	716.798340	14113.132813	7843.171875	53.196445
623.410889	715.460876	14041.950195	7786.924316	53.063213
623.747559	713.380371	14027.460938	7750.070801	52.851494
624.084167	720.290527	13994.545898	7736.103027	52.852776
624.420715	723.411316	13991.573242	7730.900879	52.814320
624.757324	721.999512	14008.812500	7732.535645	52.763115
625.093750	719.398926	14079.102539	7758.839355	52.691593
625.430176	725.045959	14141.293945	7807.209473	52.787960
625.766602	729.726990	14200.958008	7826.305176	52.679504
626.102905	726.680664	14281.949219	7857.884277	52.608353
626.439209	718.953125	14409.156250	7917.028809	52.578297
626.775452	711.597168	14528.856445	7983.009277	52.625572
627.111694	717.690002	14629.239258	8026.105469	52.534882
627.447876	720.885010	14709.784180	8037.325684	52.301758
627.783997	729.875671	14753.918945	8057.164063	52.248047
628.120056	732.476257	14819.752930	8073.214355	52.108997
628.456055	734.110840	14800.804688	8060.210938	52.081181
628.792053	729.281250	14751.468750	8020.235840	51.995842
629.128052	718.953125	14658.664063	7980.111816	52.089737
629.463928	712.414551	14564.226563	7926.837891	52.082882
629.799744	711.151367	14459.606445	7847.705078	51.908043
630.135559	715.609436	14319.768555	7763.594238	51.807575
630.471375	716.055359	14150.877930	7674.728516	51.795799
630.807068	720.662048	13967.796875	7596.487793	51.904247
631.142700	723.188293	13815.476563	7515.349121	51.879097
631.478333	728.538147	13659.292969	7424.550781	51.783619
631.813965	721.033630	13539.887695	7341.703125	51.647903
632.149475	716.426758	13392.916992	7278.619629	51.766640
632.484924	719.473145	13288.594727	7237.530762	51.857704
632.820435	734.853821	13197.945313	7210.187500	51.956078
633.155884	736.042725	13142.367188	7154.757813	51.737442
633.491150	732.847717	13098.752930	7118.052246	51.635563
633.826477	721.702332	13039.979492	7062.622559	51.475708
634.161804	721.182190	12967.458008	7009.049316	51.345139
634.497009	713.008972	12905.862305	6969.520996	51.312946
634.832153	710.333984	12842.112305	6926.425781	51.238094
635.167297	709.293762	12765.504883	6897.224121	51.325665
635.502380	715.980957	12673.445313	6839.936035	51.214493
635.837463	719.324707	12558.200195	6795.503906	51.323959
636.172424	722.593994	12468.071289	6728.482910	51.133629
636.507324	724.897278	12360.628906	6670.898438	51.101223
636.842224	725.640381	12260.246094	6616.806152	51.073841
637.177124	727.200684	12133.708008	6564.570801	51.175785
637.511963	719.176025	12011.481445	6498.367188	51.178135
637.846741	723.782898	11887.468750	6412.621582	50.958431
638.181396	724.823059	11747.112305	6345.377441	50.992622
638.516113	733.367859	11646.504883	6266.914063	50.705372
638.850769	724.451477	11541.515625	6205.837402	50.673504
639.185303	719.398926	11474.569336	6143.794922	50.435242
639.519836	716.649719	11373.739258	6094.309082	50.460861
639.854370	718.581604	11273.133789	6057.900879	50.587837
640.188843	721.256531	11142.807617	6009.752441	50.745770
640.523254	720.141907	11046.585938	5973.417969	50.872070
640.857605	724.823059	10928.592773	5910.929688	50.825397
641.191895	724.897400	10863.875000	5860.850098	50.655529
641.526184	725.343079	10792.767578	5813.444824	50.540249
641.860413	721.702332	10773.895508	5780.603027	50.326340
642.194580	715.609558	10711.628906	5750.807129	50.372028
642.528748	715.683838	10630.043945	5701.693359	50.290787
642.862793	716.203918	10571.270508	5664.690918	50.212616
643.196838	721.182312	10515.247070	5607.998047	49.895687
643.530823	725.491760	10486.566406	5576.567871	49.698181
643.864746	726.532043	10414.937500	5538.376465	49.666008
644.198669	725.789001	10371.396484	5540.308105	49.914108
644.532532	722.445374	10303.334961	5509.695313	49.966656
644.866333	722.519714	10261.577148	5487.553223	49.952877
645.200073	714.940735	10243.000977	5455.826172	49.757084
645.533813	710.185364	10241.664063	5448.098145	49.708054
645.867554	709.665283	10223.534180	5434.575684	49.663391
646.201172	716.575439	10196.338867	5402.699707	49.432919
646.534729	728.761047	10189.652344	5407.231934	49.450634
646.868225	723.114075	10214.766602	5406.488770	49.342037
647.201782	726.086182	10219.967773	5401.658691	49.248268
647.535217	720.141907	10237.131836	5382.043457	48.985039
647.868591	728.612488	10228.883789	5378.179688	48.941418
648.201965	727.869446	10232.598633	5389.696777	49.047447
648.535278	732.550476	10206.666992	5381.671875	49.071823
648.868591	729.949890	10224.500000	5368.594727	48.855869
649.201782	721.850891	10188.760742	5341.325684	48.796013
649.534912	716.872742	10162.532227	5307.072266	48.595863
649.868103	712.563171	10093.653320	5277.350586	48.659458
650.201172	717.541321	10045.429688	5257.512207	48.670937
650.534180	714.494934	9985.022461	5228.013672	48.686752
650.867188	716.055359	9937.468750	5215.233398	48.790550
651.200134	713.008850	9940.812500	5178.825195	48.395226
651.533020	716.352539	9918.521484	5168.274902	48.379055
651.865845	723.337097	9881.815430	5140.410645	48.229340
652.198608	727.052185	9822.670898	5132.014648	48.429493
652.531433	718.953125	9778.833008	5105.711426	48.419609
652.864136	714.420715	9750.597656	5078.739258	48.298283
653.196777	853.886902	9845.779297	5179.493652	48.105633
653.529358	864.066406	9821.258789	5162.627441	47.990047
653.861938	864.289246	9768.429688	5120.645996	47.801994
654.194519	721.702332	9564.096680	4943.285645	47.742538
654.526978	710.556946	9479.837891	4912.152832	47.912659
654.859375	707.436218	9414.971680	4886.666504	47.995564
655.191833	715.163757	9380.346680	4886.890137	48.143551
655.524170	720.810730	9337.102539	4845.354980	47.869133
655.856445	719.696106	9293.487305	4822.098145	47.848167
656.188660	718.804504	9264.211914	4771.498047	47.425400
656.520874	720.364929	9240.509766	4750.916016	47.306133
656.853088	717.244141	9240.211914	4739.473145	47.192822
657.185181	717.838562	9227.877930	4747.943848	47.357071
657.517212	718.953125	9247.419922	4746.606445	47.225994
657.849243	729.801270	9286.800781	4754.036621	47.028576
658.181274	728.315247	9350.997070	4777.665527	46.961613
658.513123	728.463867	9421.360352	4806.271484	46.909653
658.844971	728.686768	9511.194336	4849.292480	46.918324
659.176819	728.018066	9601.620117	4874.035645	46.723053
659.508667	725.937683	9709.135742	4895.657715	46.416878
659.840393	721.702332	9784.256836	4902.270508	46.130131
660.172058	720.513489	9832.256836	4909.254883	45.970798
660.503662	723.336975	9860.416992	4929.911133	46.038494
660.835266	723.411316	9870.374023	4942.468262	46.125225
661.166931	721.033630	9848.529297	4917.057129	45.971245
661.498413	722.519714	9799.266602	4881.317383	45.818153
661.829773	722.816895	9693.161133	4808.946777	45.551540
662.161194	725.194580	9556.964844	4744.080566	45.504875
662.492615	721.776672	9412.743164	4676.836426	45.507710
662.823975	726.532043	9236.274414	4604.465332	45.570515
663.155212	735.448425	9067.830078	4533.877441	45.586353
663.486450	732.922058	8905.775391	4456.825684	45.564301
663.817627	727.795166	8776.265625	4394.114746	45.552998
664.148743	717.987244	8649.729492	4320.034668	45.413067
664.479858	724.823059	8524.083008	4266.313965	45.408039
664.810913	729.132629	8419.984375	4214.747559	45.321575
665.141907	728.761047	8353.111328	4167.416504	45.100967
665.472778	722.519714	8273.161133	4109.014648	44.850426
665.803711	717.318420	8225.534180	4072.680908	44.689213
666.134583	718.655945	8185.558594	4063.987549	44.802132
666.465454	722.891113	8176.419434	4057.523438	44.738976
666.796143	719.547546	8136.890625	4019.034424	44.483406
667.126831	715.609558	8108.804688	3995.628906	44.365383
667.457458	713.751953	8066.526855	3958.403320	44.128258
667.788147	721.702332	8050.402832	3945.177002	43.984257
668.118774	729.801331	8019.344238	3926.303955	43.850521
668.449219	723.411316	7986.205078	3913.672852	43.926090
668.779663	718.581604	7977.288574	3916.050537	44.050117
669.110107	707.956360	7953.214844	3911.369873	44.213932
669.440552	712.563171	7948.533203	3912.484131	44.222416
669.770874	713.380432	7927.357422	3881.128174	43.911255
670.101135	718.581604	7917.846191	3847.915283	43.467407
670.431396	719.473328	7898.378906	3815.221924	43.122849
670.761597	717.987122	7851.197266	3793.376953	43.113689
671.091797	712.563049	7794.727051	3774.058350	43.228249
671.421875	713.603333	7732.461426	3755.259766	43.335491
671.751892	710.333984	7684.907715	3747.531982	43.546719
672.081909	718.655945	7653.923340	3732.671631	43.459255
672.411865	719.101746	7615.286621	3692.696533	43.119415
672.741821	722.891113	7549.230957	3660.300781	43.030521
673.071716	719.250305	7498.482422	3619.656982	42.783707
673.401550	724.005676	7457.393066	3605.614014	42.795822
673.731262	723.708557	7455.238281	3585.774658	42.517323
674.060974	722.816895	7411.845215	3576.190186	42.657516
674.390625	714.866516	7356.638184	3560.586182	42.845795
674.720276	712.637451	7284.860840	3530.270752	42.871841
675.049927	716.129639	7245.777832	3497.206299	42.591522
675.379395	718.284424	7224.378906	3470.011719	42.294609
675.708923	719.770508	7189.308594	3448.092041	42.171814
676.038330	715.683777	7143.166504	3428.699219	42.209610
676.367737	719.250305	7109.804688	3411.460693	42.127964
676.697083	719.919006	7082.089844	3391.473389	41.991241
677.026428	715.832336	7075.179688	3384.340576	41.961987
677.355652	717.467041	7043.824219	3373.269531	41.979961
677.684875	715.981018	7038.771484	3373.566406	42.031845
678.013977	725.566101	7023.910645	3348.749268	41.648769
678.343079	725.863281	7037.359375	3333.962891	41.323002
678.672180	721.405090	7055.265625	3330.768311	41.197044
679.001221	712.860291	7096.206543	3350.606689	41.322315
679.330139	708.327881	7133.357910	3355.510986	41.201099
679.659058	714.866516	7176.082520	3351.126953	40.801308
679.987976	718.730225	7230.769531	3353.504883	40.460056
680.316772	720.141907	7300.019531	3366.359131	40.216816
680.645630	715.832458	7344.972656	3379.362061	40.179111
680.974304	713.528992	7392.229004	3396.302734	40.169098
681.302979	716.278259	7417.640625	3419.188477	40.333740
681.631653	730.841553	7449.293457	3428.773438	40.157047
681.960266	731.510254	7447.732910	3424.240967	40.092934
682.288757	725.714661	7449.367188	3422.308838	40.106094
682.617249	713.157532	7444.464355	3405.219482	39.993156
682.945679	715.609558	7423.436035	3386.792236	39.821880
683.274109	721.628113	7374.322266	3351.127197	39.525326
683.602478	721.182190	7296.675781	3324.675049	39.593876
683.930725	723.559875	7181.061035	3275.115479	39.513050
684.259033	712.934570	7091.674316	3235.437500	39.545475
684.587280	715.015137	7011.725098	3179.264648	39.135509
684.915344	711.894348	6970.486816	3146.794678	38.904922
685.243469	725.714661	6903.094238	3112.689453	38.640575
685.571533	726.977844	6831.020996	3096.937500	38.826065
685.899536	729.652649	6754.711426	3069.148438	38.829430
686.227539	719.770447	6679.814453	3032.442627	38.802937
686.555420	717.541321	6644.298340	3007.551025	38.638496
686.883301	717.318542	6625.871094	3003.835938	38.698433
687.211121	716.055359	6619.628906	3000.640869	38.698345
687.538940	711.745789	6627.876465	3006.733643	38.792038
687.866638	710.705566	6623.195313	3006.065186	38.822216
688.194336	711.522888	6646.526855	3002.498779	38.601086
688.521973	715.758057	6625.127441	2985.706299	38.412701
688.849609	710.185364	6595.853027	2960.888916	38.240414
689.177063	711.968689	6555.580566	2937.558350	38.085857
689.504578	709.813904	6505.574219	2910.140381	37.964413
689.832031	718.210144	6454.454590	2870.908447	37.528008
690.159485	720.364929	6370.121094	2836.134766	37.448868
690.486816	724.228577	6276.351074	2801.806885	37.419533
690.814087	723.708496	6181.243652	2779.739014	37.673244
691.141296	722.816833	6079.076660	2749.349365	37.834843
691.468506	724.451477	6006.483887	2710.191650	37.594246
691.795715	718.953125	5937.010254	2666.501709	37.323250
692.122803	720.067688	5877.345215	2629.499023	37.024021
692.449829	722.445313	5799.327637	2585.140381	36.689743
692.776855	726.606262	5729.705566	2551.555420	36.476376
693.103821	730.172852	5671.154785	2521.537109	36.255226
693.430664	725.045898	5628.060059	2496.719971	36.134388
693.757568	724.080017	5587.267578	2480.521973	36.117092
694.084351	716.501160	5534.215332	2446.862793	35.916649
694.411133	719.993347	5493.720215	2434.900146	35.923855
694.737854	716.946960	5432.420410	2420.634277	36.129715
695.064575	718.655945	5399.578613	2408.671387	36.104321
695.391174	714.792175	5373.795410	2397.302979	36.113102
695.717773	715.535156	5367.925293	2378.207031	35.738014
696.044250	717.169922	5354.997559	2378.801514	35.827801
696.370789	720.141907	5346.526855	2364.015381	35.532574
696.697205	717.615723	5382.043457	2361.786133	35.249134
697.023621	711.968689	5443.565918	2363.569580	34.905777
697.349915	712.414551	5513.187988	2396.931396	35.088448
697.676208	713.008972	5573.149902	2423.011719	35.184219
698.002380	719.176025	5661.347656	2451.692627	35.055775
698.328674	718.284363	5790.708496	2481.933838	34.769360
698.654724	717.541321	5899.859375	2507.122314	34.532444
698.980896	718.804504	6012.427734	2539.369629	34.391666
699.306946	721.702332	6087.770020	2550.589600	34.082447
699.632935	727.943787	6173.069824	2560.100342	33.647640
699.958862	720.587830	6183.695313	2577.858643	33.996601
700.284729	725.491760	6175.299316	2577.115479	33.975948
700.610596	718.581726	6130.866699	2568.347900	34.177174
700.936340	728.761047	6060.501465	2523.617920	33.663624
701.262146	719.696228	5939.165527	2476.138428	33.651737
701.587830	724.748718	5789.964844	2413.947021	33.348984
701.913513	717.318420	5641.359375	2350.120850	33.159805
702.239075	719.176086	5491.564941	2293.799561	32.994453
702.564697	721.999512	5359.009277	2263.260986	33.238262
702.890137	718.432922	5217.833984	2231.385010	33.625637
703.215698	718.358704	5097.092285	2192.747803	33.671589
703.541016	719.919128	4988.535645	2136.426025	33.184212
703.866455	721.850891	4919.285645	2088.946533	32.569794
704.191711	713.380432	4836.289551	2069.033447	32.880981
704.517029	707.584778	4768.525879	2062.643555	33.368099
704.842163	720.959290	4698.309082	2041.838745	33.210037
705.167419	729.058289	4653.133301	2007.956909	32.591087
705.492493	734.631042	4616.056641	1976.675293	31.999691
705.817566	726.977844	4565.159668	1960.625977	32.141472
706.142578	726.383362	4536.478516	1954.013062	32.220444
706.467590	725.566101	4513.444824	1945.319702	32.201496
706.792480	721.479492	4520.429199	1932.985352	31.890547
707.117371	717.541321	4518.497070	1916.118530	31.533573
707.442200	717.021301	4524.589844	1911.660522	31.375381
707.766907	717.169861	4514.112793	1918.273315	31.633436
708.091675	716.872620	4523.771973	1919.610840	31.593645
708.416321	717.615662	4517.531250	1905.790405	31.268454
708.741028	714.866455	4545.766113	1911.511719	31.236664
709.065552	723.559875	4564.268066	1915.078491	31.023407
709.390137	717.764343	4594.434570	1925.629395	31.157280
709.714600	723.336975	4609.072266	1917.753296	30.738487
710.039063	721.925232	4633.740723	1918.942017	30.600035
710.363403	730.470032	4649.789551	1927.115356	30.531965
710.687744	727.646545	4711.312500	1937.889282	30.380123
711.012085	724.377258	4747.646973	1947.474243	30.400570
711.336304	725.045959	4799.212891	1955.944702	30.212278
711.660461	725.491882	4805.305664	1952.452515	30.073938
711.984619	727.646545	4836.363770	1961.145996	30.021523
712.308716	724.080017	4845.875000	1962.260742	30.039841
712.632751	726.234863	4835.397949	1964.043823	30.123140
712.956726	727.126465	4798.246582	1944.502075	29.902719
713.280701	724.748779	4756.042969	1918.793457	29.619389
713.604553	727.869446	4716.142090	1894.199219	29.243984
713.928467	726.160461	4671.337891	1877.704102	29.188641
714.252258	727.869446	4610.409668	1858.608276	29.123684
714.575989	727.423645	4547.177734	1843.599121	29.221136
714.899719	728.909668	4485.877930	1813.655151	28.872894
715.223267	733.442139	4448.949707	1809.048340	28.949106
715.546936	730.692932	4409.123047	1785.197144	28.667233
715.870422	724.748779	4380.739746	1781.110352	28.893988
716.193970	716.872742	4352.058594	1752.057983	28.476820
716.517395	716.575439	4327.836426	1744.702148	28.470020
716.840820	721.182190	4296.331543	1726.795288	28.127863
717.164124	720.513489	4257.471191	1716.169922	28.150080
717.487488	723.411316	4211.255371	1699.526001	27.986191
717.810730	719.398926	4181.683105	1691.575684	28.079058
718.133972	724.451477	4131.603027	1685.854492	28.217207
718.457092	720.885010	4088.209717	1672.702759	28.266289
718.780212	723.262695	4033.151367	1646.771118	27.901495
719.103210	722.148132	3975.715820	1622.102661	27.660545
719.426208	721.033508	3938.712891	1602.338013	27.389444
719.749207	717.244141	3888.484375	1583.688110	27.321928
720.072083	715.758118	3844.943115	1566.895630	27.199974
720.394958	708.550720	3795.382813	1554.710083	27.411901
720.717773	708.847961	3720.634033	1538.066406	27.532448
721.040527	705.875793	3677.315674	1519.267700	27.373661
721.363281	717.615723	3645.217041	1505.447388	26.910482
721.685913	720.290527	3634.666016	1496.308228	26.627237
722.008545	722.519714	3607.842773	1486.425781	26.475582
722.331055	715.609558	3560.809326	1472.382813	26.598248
722.653503	719.250305	3532.425781	1470.822388	26.716146
722.976013	720.290527	3512.512451	1464.803833	26.663830
723.298401	727.943665	3510.283447	1468.964844	26.633022
723.620789	724.302917	3502.333008	1459.305298	26.457684
723.943115	726.977844	3481.305420	1453.286743	26.369736
724.265381	719.770508	3463.398438	1431.590454	25.944479
724.587585	716.575439	3466.742188	1430.624634	25.963850
724.909790	714.569336	3486.135010	1428.915649	25.774107
725.231873	719.398987	3483.460205	1438.872070	26.029564
725.553894	721.925232	3492.302490	1438.203491	25.854900
725.875916	768.884583	3534.505859	1481.744751	25.775768
726.197937	766.804138	3540.747314	1476.246460	25.575230
726.519775	768.513000	3531.756836	1466.066895	25.244022
726.841675	727.200745	3505.305420	1419.924927	24.935135
727.163513	726.383484	3525.069580	1423.714355	24.916367
727.485291	724.302917	3558.208740	1435.156860	25.083895
727.806946	720.067688	3598.480469	1436.643066	24.894810
728.128662	716.575439	3617.873779	1434.116699	24.731730
728.450256	714.866516	3632.139893	1426.983765	24.410370
728.771790	711.077087	3609.848877	1430.773315	24.827627
729.093323	712.637390	3610.220703	1429.956055	24.755756
729.414795	717.318542	3597.737549	1429.064331	24.709801
729.736145	714.123474	3587.409424	1414.649536	24.380659
730.057495	717.095642	3591.867920	1403.727051	23.884724
730.378845	715.832458	3612.524170	1397.857056	23.544950
730.700134	715.981018	3631.396729	1398.971680	23.426870
731.021301	707.733398	3632.511475	1399.045898	23.636408
731.342468	708.847961	3622.034424	1398.080078	23.659044
731.663574	714.123535	3612.152344	1401.720825	23.726379
731.984680	720.067688	3626.418701	1403.504272	23.515280
732.305664	718.953125	3636.375244	1400.606323	23.364916
732.626648	719.696106	3673.080811	1402.463867	23.118145
732.947571	725.045898	3674.343750	1405.213013	23.062002
733.268433	728.389648	3680.362549	1400.680664	22.774296
733.589233	728.166687	3649.675781	1385.077026	22.485310
733.909973	723.559875	3629.167969	1367.095703	22.148060
734.230713	725.120300	3577.676025	1353.275513	22.020786
734.551331	722.519714	3541.416260	1349.485962	22.241549
734.871948	726.532043	3497.949463	1345.176392	22.322308
735.192505	720.810730	3462.506836	1336.854492	22.469440
735.513062	726.086182	3423.944092	1318.278931	21.950480
735.833435	719.324646	3373.714844	1295.393555	21.702496
736.153931	718.730225	3324.600830	1284.619629	21.715944
736.474304	719.250305	3269.988281	1273.325684	21.722158
736.794617	727.572266	3228.378906	1268.941772	21.647795
737.114807	725.788879	3205.567627	1260.545776	21.564701
737.434998	717.541321	3210.992188	1254.601563	21.538834
737.755188	716.501160	3209.729248	1251.703735	21.466251
738.075256	720.810730	3219.091064	1259.951294	21.580467
738.395325	719.919128	3215.970459	1263.146362	21.763464
738.715271	713.083191	3238.558350	1264.409302	21.830589
739.035278	713.380432	3259.139893	1265.895386	21.703344
739.355164	715.312317	3270.211182	1264.632324	21.500654
739.675049	718.433044	3278.012939	1275.331909	21.757433
739.994873	720.810730	3266.644775	1260.768677	21.209473
740.314636	719.101746	3259.957764	1264.409424	21.461575
740.634277	715.683838	3235.660889	1248.954468	21.161726
740.953979	711.448547	3209.283203	1242.861694	21.274952
741.273499	717.467041	3187.438232	1222.205444	20.434992
741.593140	723.708496	3148.429443	1211.208618	20.105412
741.912598	724.822998	3111.054932	1203.927002	20.077847
742.232117	723.931396	3048.120361	1191.518433	20.118288
742.551453	725.491760	3017.879150	1184.533813	20.024628
742.870850	726.532043	2986.523438	1168.484497	19.555492
743.190063	727.869446	2953.830322	1162.911743	19.544022
743.509338	722.965515	2912.072266	1151.692139	19.584547
743.828552	724.748718	2879.676514	1150.429077	19.753811
744.147705	724.005676	2861.100586	1146.565308	19.772619
744.466797	731.881836	2846.760010	1139.952271	19.295221
744.785828	728.389587	2811.169189	1130.070068	19.285789
745.104858	723.634216	2785.609131	1124.645874	19.447941
745.423706	721.999512	2757.671143	1118.478882	19.476587
745.742615	719.696106	2747.343018	1114.243530	19.458389
746.061401	723.039795	2734.934570	1108.150757	19.141705
746.380249	717.912903	2735.231689	1112.386108	19.554331
746.698975	718.210144	2725.869873	1113.203491	19.674318
747.017639	710.185364	2724.458008	1106.516113	19.676123
747.336304	712.711731	2705.362305	1092.844482	19.076738
747.654907	708.104980	2697.263428	1091.506958	19.274582
747.973389	716.724060	2685.523438	1093.958984	19.160660
748.291931	715.758118	2689.981689	1089.500610	18.931112
748.610352	722.222473	2694.737061	1086.825806	18.484188
748.928711	719.844788	2706.476807	1090.541016	18.659531
749.247070	715.237976	2704.322021	1095.667969	19.125889
749.565308	717.838562	2700.012207	1092.175659	18.885183
749.883545	712.563049	2682.327881	1089.649414	19.143724
750.201782	715.015076	2676.086670	1082.590698	18.743610
750.519836	715.460876	2668.879395	1073.525757	18.330168
750.837952	719.027405	2664.718506	1060.374146	17.543726
751.155884	715.386536	2648.371826	1066.095459	18.143383
751.473877	711.671387	2632.619873	1068.398804	18.570379
751.791809	713.306152	2616.570313	1073.600098	18.930317
752.109619	711.151367	2616.198975	1054.429932	18.019423
752.427490	711.448547	2610.180420	1049.080200	17.781954
752.745300	709.516663	2609.362793	1042.392944	17.521223
753.062988	717.169861	2605.052979	1049.823242	17.620443
753.380615	717.244141	2600.298096	1051.086304	17.728762
753.698303	717.244141	2591.084473	1049.377319	17.724731
754.015808	722.668274	2575.926758	1046.107910	17.452484
754.333374	725.417480	2579.567383	1047.296875	17.359945
754.650757	729.652649	2570.279785	1042.838623	17.015177
754.968262	729.058289	2568.273682	1044.399048	17.145397
755.285583	728.909668	2548.137695	1039.272095	17.060118
755.602905	722.073914	2544.199463	1028.944214	16.841337
755.920105	713.974854	2532.013916	1024.188843	17.063108
756.237305	710.111145	2528.001465	1022.851257	17.203465
756.554443	718.655945	2523.692139	1023.371338	16.881401
756.871582	725.714661	2517.227539	1015.569580	16.179337
757.188599	721.776672	2519.902588	1007.990723	15.917353
757.505615	716.724060	2524.880859	1013.117615	16.392027
757.822510	712.414490	2541.524658	1011.260010	16.338301
758.139465	721.925293	2562.478027	1017.129883	16.038910
758.456238	724.302917	2582.688477	1020.547852	15.940984
758.773010	724.302917	2598.069092	1036.002808	16.634941
759.089783	724.600159	2612.483643	1041.352661	16.778181
759.406433	726.234802	2626.378174	1038.900757	16.454863
759.723145	723.336975	2637.077881	1033.625122	16.213696
760.039673	723.485596	2639.975830	1029.984253	15.992706
760.356201	730.767273	2643.988037	1029.018311	15.588951
760.672668	734.556641	2653.498779	1028.721069	15.329510
760.989136	736.117004	2638.192627	1020.547852	14.953709
761.305481	733.367859	2628.607422	1023.074036	15.285993
761.621826	735.225403	2612.334961	1021.811035	15.267389
761.938049	730.395752	2636.112061	1025.229004	15.470994
762.254333	730.247253	2664.421387	1028.423950	15.416228
762.570496	723.262695	2724.235107	1027.829590	15.220944
762.886597	721.107910	2802.475830	1041.649780	15.400538
763.202637	716.872742	2913.558350	1055.024292	15.393717
763.518677	718.730225	3063.352783	1077.983765	15.322447
763.834656	718.953125	3222.137451	1093.290161	14.954433
764.150574	719.027527	3374.086670	1120.113525	15.106482
764.466370	725.194580	3460.128906	1128.881226	14.760378
764.782288	727.943787	3487.992920	1137.128784	14.825280
765.097961	726.977844	3466.816406	1123.382935	14.468191
765.413696	720.810730	3407.522705	1113.574829	14.618765
765.729309	713.900574	3308.105713	1087.271606	14.392503
766.044861	716.501160	3176.069580	1079.544312	14.760442
766.360474	723.411316	3034.077393	1068.473145	14.933435
766.675903	725.120300	2905.756592	1055.916016	15.169688
766.991394	720.810730	2789.769775	1018.913269	14.408335
767.306763	715.386658	2685.671631	995.656494	14.224838
767.622131	719.993347	2607.951172	983.025085	13.932077
767.937378	720.736389	2533.945557	972.251160	13.871249
768.252625	718.284424	2479.704834	966.529785	14.093476
768.567810	720.364929	2417.959229	958.505127	14.028099
768.882996	718.358704	2382.442139	952.635193	14.078409
769.197998	720.513489	2340.461182	942.455750	13.700582
769.513062	716.501160	2304.944580	942.158508	14.206194
769.828064	714.049133	2266.084229	934.505371	14.204332
770.142944	711.077087	2240.078369	930.864502	14.374574
770.457825	711.076965	2227.595459	917.861511	13.635477
770.772705	716.575439	2198.171631	924.028625	14.002006
771.087402	719.398926	2165.329834	921.576660	13.982531
771.402100	724.600159	2127.138184	922.319641	14.097263
771.716736	721.850891	2106.482178	907.979248	13.442449
772.031372	726.086182	2103.138672	900.549011	12.669294
772.345947	720.513489	2079.212891	894.753418	12.824023
772.660461	731.807434	2067.176025	898.394226	12.474966
772.974854	727.869446	2039.609741	893.267334	12.609043
773.289246	734.705261	2024.377563	884.722595	11.632205
773.603638	725.045898	2005.578979	884.053894	12.417328
773.917908	728.240967	1992.947388	889.923767	12.784216
774.232178	722.816833	1988.638062	889.998047	13.207332
774.546265	725.194519	1981.802246	883.830872	12.624175
774.860474	727.869385	1957.133789	874.914551	11.962046
775.174561	727.572266	1937.517700	879.521301	12.558338
775.488586	723.559875	1912.923462	883.087830	13.412885
775.802551	717.467041	1908.316772	886.654358	14.207276
776.116516	720.736328	1898.806030	881.378906	13.636085
776.430359	727.943787	1893.307617	874.765930	12.598825
776.744202	731.733215	1881.419312	869.341797	11.969232
777.057922	724.600098	1875.623657	866.666931	12.342652
777.371704	718.432922	1870.496704	868.004333	12.982911
777.685303	720.067627	1867.004395	859.385254	12.146932
777.998962	724.674377	1862.100586	855.224304	11.477660
778.312500	730.172852	1845.902710	850.246033	10.761850
778.626038	726.309082	1840.849976	848.982910	11.006669
778.939453	726.383362	1832.305176	858.196472	11.918844
779.252869	722.593994	1841.741577	861.911560	12.448543
779.566223	722.965515	1839.215210	859.459534	12.227910
779.879578	723.262695	1839.438110	846.382324	11.030491
780.192749	718.433044	1836.094727	840.066589	10.882859
780.505920	712.711670	1845.011108	850.617493	12.179272
780.819031	708.773621	1845.902466	855.149963	12.872449
781.132141	713.231750	1843.079102	861.985840	13.165856
781.445190	718.730164	1834.162720	857.230469	12.416735
781.758118	721.776611	1820.639648	856.710266	12.279387
782.071045	726.086182	1805.036133	851.880676	11.658974
782.383911	723.485596	1777.543945	845.713562	11.595940
782.696838	723.559875	1755.178833	844.598938	11.732924
783.009583	723.485596	1743.958984	842.221375	11.635363
783.322266	727.349365	1733.705444	843.038757	11.495871
783.634888	725.045959	1727.909790	841.404053	11.602581
783.947510	720.885010	1709.036987	838.134705	11.865553
784.260132	719.176025	1696.033813	836.797180	12.040766
784.572571	724.897278	1693.136108	831.819031	11.042912
784.885010	727.720886	1695.067993	833.602234	10.945539
785.197449	726.532043	1693.061890	830.035645	10.708785
785.509766	725.268860	1684.219727	828.103821	10.723695
785.822083	723.262695	1676.640991	827.658020	10.950042
786.134277	724.302917	1673.223022	836.574402	11.831500
786.446533	725.343079	1663.192017	834.196594	11.606722
786.758606	723.411194	1653.384155	826.246277	11.057858
787.070740	722.222412	1655.984741	822.308167	10.718547
787.382690	723.039795	1671.439819	830.555847	11.336572
787.694641	722.148132	1684.888550	834.939636	11.715672
788.006653	720.141907	1704.058594	835.236816	11.697628
788.318481	711.299988	1726.200806	832.041809	11.896909
788.630310	707.658997	1755.921875	829.441223	11.617527
788.942017	712.637390	1779.327271	833.899414	11.368067
789.253784	714.420654	1801.246460	840.140808	11.567645
789.565430	721.628113	1799.537598	846.828064	11.615071
789.877014	716.649719	1792.478882	835.979919	11.091929
790.188538	720.364807	1784.082642	833.156433	10.603529
790.500061	715.981018	1781.036255	828.401062	10.555326
790.811462	718.432922	1755.996216	824.685852	10.240623
791.122925	716.426758	1723.228882	817.329895	10.022141
791.434204	715.906738	1680.950562	810.939880	9.847547
791.745483	718.210144	1655.315918	812.946045	10.109414
792.056702	716.946960	1628.715698	809.453796	10.145866
792.367920	719.844727	1615.192383	814.060730	10.522840
792.678955	720.439209	1604.046997	811.014221	10.250590
792.990112	722.371094	1586.437378	812.203125	10.396428
793.301086	718.284424	1575.960571	807.967773	10.456552
793.612122	715.906738	1567.564453	807.670593	10.774734
793.922974	716.946960	1570.462280	802.023621	9.967795
794.233826	720.885010	1569.719238	797.342529	9.007356
794.544556	724.748779	1565.855469	797.193909	8.613072
794.855286	721.851013	1556.939087	803.138123	9.733956
795.166016	719.547607	1552.406616	809.082336	10.750286
795.476624	715.906738	1565.186646	815.546692	11.732286
795.787292	725.937561	1581.533569	812.500305	10.117245
796.097778	727.943665	1603.304077	806.258850	8.946622
796.408264	724.302917	1614.895386	802.172180	8.743535
796.718689	713.454773	1619.873535	801.577820	9.722112
797.029053	711.299988	1624.851929	803.286682	10.069126
797.339355	719.101746	1620.988159	809.602478	10.034604
797.649658	720.216309	1621.508301	815.695313	10.593571
797.959839	719.027405	1616.158569	819.336121	11.181053
798.270020	710.556946	1594.685059	810.048279	11.253045
798.580078	711.894348	1586.140259	798.977112	9.960900
798.890137	721.850891	1571.725586	795.039124	8.611650
799.200195	722.965515	1572.097046	793.850281	8.347914
799.510071	727.423645	1559.837036	795.930725	8.229935
799.820007	721.256531	1553.149780	798.754211	9.315821
800.129883	723.931396	1542.524536	799.422913	9.222105
800.439575	716.129639	1531.156250	804.178284	10.803162
800.749329	714.272034	1515.403931	801.280518	10.860694
801.058960	713.380432	1502.698242	801.726379	11.192697
801.368591	723.559875	1491.998657	800.463196	10.007735
801.678162	723.634216	1485.311401	805.218567	10.711145
801.987671	728.240967	1482.190552	801.280579	9.687599
802.297119	726.531982	1478.772827	796.376526	9.284864
802.606506	729.058289	1467.553101	792.884277	8.642714
802.915894	725.491760	1467.478882	791.323975	8.872420
803.225159	723.485596	1465.323853	789.614990	8.914261
803.534424	722.148132	1464.803711	786.568604	8.674340
803.843628	721.256531	1459.528320	795.484863	10.054337
804.152771	722.891174	1455.887329	792.661377	9.518495
804.461792	728.092285	1461.088501	780.772949	7.187031
804.770874	731.361633	1463.317749	767.695740	4.963974
805.079773	731.435852	1462.723267	768.810242	5.110766
805.388733	727.572205	1467.627319	780.772949	7.188755
805.697571	726.977783	1472.382813	780.698669	7.206939
806.006470	721.107910	1484.791382	781.887512	7.958743
806.315125	722.296814	1484.122559	784.339539	8.143952
806.623901	718.433044	1489.323730	779.658447	7.942164
806.932495	718.284424	1495.639526	780.104309	7.952593
807.241150	717.467041	1497.571289	778.692566	7.848377
807.549622	722.593994	1483.453735	792.661438	9.208983
807.858154	724.525879	1465.026733	789.243469	8.739705
808.166565	722.073792	1461.534546	786.568604	8.721870
808.474915	719.027405	1463.094727	781.961853	8.458166
808.783264	717.541321	1456.333374	778.469543	8.247005
809.091492	716.426758	1436.791870	777.057861	8.416718
809.399719	710.036804	1420.370728	775.646179	9.236413
809.707825	710.259766	1408.854004	778.246765	9.731973
810.015930	709.962585	1403.058472	779.807129	10.077184
810.323975	714.569275	1394.067749	778.543945	9.414984
810.632080	717.169922	1385.894409	776.686340	8.899991
810.939880	715.906738	1380.247437	771.633789	8.388324
811.247864	719.176086	1376.458008	771.113708	7.901879
811.555664	715.312317	1370.067871	772.896912	8.794824
811.863464	718.655945	1365.535522	769.850525	7.914082
812.171143	717.987122	1360.185669	763.088928	7.023032
812.478882	721.702393	1355.207397	760.191162	6.075527
812.786438	729.132629	1343.244629	763.980652	5.674539
813.094055	728.686768	1335.740112	767.844299	6.450427
813.401489	724.971680	1330.687500	772.079590	7.777230
813.708984	712.934570	1336.928955	773.342712	9.680880
814.016357	711.002747	1340.421143	773.862793	9.987005
814.323730	712.934631	1339.009399	776.686340	10.182763
814.630981	717.690002	1333.362305	775.497498	9.389329
814.938232	723.188477	1335.517212	778.098083	8.967341
815.245361	725.566101	1328.607056	775.497498	8.279935
815.552490	727.126465	1329.721558	775.051758	7.953150
815.859619	731.881836	1317.907349	775.051758	7.366560
816.166565	734.259521	1333.436646	774.160095	6.659228
816.473572	735.894226	1332.099243	772.302490	6.106668
816.780457	731.807556	1338.340576	772.451111	6.700963
817.087341	723.188477	1339.083618	771.782410	7.889968
817.394043	718.135925	1345.622192	778.841125	9.674347
817.700806	712.488831	1350.823608	778.023865	10.266562
818.007507	715.238037	1354.984497	776.166199	9.523798
818.314209	721.330872	1368.136108	771.039368	7.685234
818.620667	720.736389	1375.640625	770.667786	7.624228
818.927246	723.188416	1398.377075	777.652344	8.066476
819.233704	718.433044	1421.188110	777.652344	8.426734
819.540161	717.095642	1462.128906	781.441711	8.636671
819.846497	724.154297	1503.366821	778.395325	6.961006
820.152832	730.618652	1562.363281	782.481934	6.235481
820.458984	732.773438	1626.932251	788.203308	6.199108
820.765259	725.640442	1703.018433	790.878174	6.674770
821.071350	722.668274	1804.218628	797.268250	6.897504
821.377502	723.039734	1981.504883	807.224792	6.689503
821.683472	729.132568	2318.021973	828.698242	6.266369
821.989441	729.058289	2887.626709	864.809387	6.288941
822.295349	730.024231	3683.111572	908.499329	6.043678
822.601196	717.689941	4560.180176	957.539124	6.242024
822.907043	718.953125	5306.031250	994.987793	6.017658
823.212769	721.107910	5732.157715	1016.164063	5.888111
823.518494	730.024231	5798.807129	1019.953430	5.719898
823.824097	724.525879	5548.406738	999.668762	5.703766
824.129700	719.250305	5146.726563	974.777344	5.771393
824.435242	716.203918	4710.049316	954.269836	5.960819
824.740723	712.860352	4339.501953	931.756165	6.035772
825.046082	714.792175	3989.610352	915.112305	6.116985
825.351501	710.556885	3629.390625	888.957764	6.112061
825.656799	717.169922	3272.514893	865.180908	5.792212
825.962036	715.089355	2960.294922	839.992249	5.563094
826.267212	717.912903	2731.962158	824.983093	5.316165
826.572449	723.634216	2600.075195	821.639465	5.222933
826.877502	723.411316	2598.143311	827.137878	5.532875
827.182495	723.114075	2704.693359	834.270996	5.609511
827.487488	715.758118	2865.707275	847.571106	6.130981
827.792419	722.668274	2992.839111	848.314209	5.534647
828.097290	721.627991	3029.247803	857.899231	5.905272
828.402100	726.383362	2953.310303	854.332703	5.745556
828.706848	726.754944	2802.401611	858.196472	6.332558
829.011597	720.067688	2617.833740	840.958191	6.370148
829.316223	712.414551	2437.797852	827.955261	6.696524
829.620789	713.900574	2280.647705	805.738770	5.861712
829.925354	725.194580	2131.596436	794.667664	4.939775
830.229797	724.377258	2002.755493	790.580994	5.178729
830.534302	713.677551	1866.038696	782.704895	5.990079
830.838562	707.287598	1746.634155	782.259094	7.213330
831.142944	715.163757	1625.372070	775.943359	6.677548
831.447144	717.987244	1534.499878	772.376770	6.661199
831.751404	727.126465	1480.704590	759.596680	4.308805
832.055542	720.959290	1444.593384	752.463684	4.353636
832.359619	727.497986	1436.123047	754.989990	3.879626
832.663635	726.977783	1435.751343	761.900146	4.927154
832.967651	732.922058	1466.438477	772.525391	5.399107
833.271545	729.875671	1530.933228	776.686340	5.843609
833.575439	729.801270	1645.731079	782.779114	5.784050
833.879211	726.457703	1798.125854	780.698730	5.061364
834.183044	727.795166	1952.972656	783.670837	4.560618
834.486694	726.309082	2052.538330	789.020569	4.728556
834.790344	730.172852	2090.507080	796.673767	4.888572
835.093933	725.194580	2058.779541	805.961609	6.056384
835.397522	721.628113	2002.384155	807.967773	6.741304
835.700928	709.962585	1930.756226	797.045349	7.133291
836.004395	713.157532	1857.270874	784.711121	6.254065
836.307739	710.705566	1778.361328	770.667786	5.616250
836.611023	717.689941	1702.795410	771.930969	5.506114
836.914307	718.210144	1628.195679	765.020813	5.144111
837.217529	726.234802	1551.589478	762.271667	4.366228
837.520691	729.058289	1462.872070	756.327393	3.716079
837.823730	726.234680	1389.386597	761.751465	5.355754
838.126831	724.674500	1326.006470	759.819641	5.844549
838.429749	727.869446	1286.328735	755.138489	4.882906
838.732727	729.429871	1258.465210	743.175781	2.598297
839.035522	721.999573	1240.335327	739.163391	3.311332
839.338379	717.467102	1228.001099	737.677429	3.958664
839.641113	720.142090	1223.988647	744.513245	4.837019
839.943848	723.262695	1249.994629	752.983704	5.642530
840.246460	725.194580	1278.972778	762.494446	6.735524
840.549072	722.519714	1313.597778	763.460449	6.926451
840.851563	725.045959	1318.427490	763.757629	6.523909
841.154053	726.160461	1320.730835	757.293274	5.236187
841.456482	728.315247	1298.514282	757.144714	5.056036
841.758850	735.522644	1278.006836	750.680359	2.794130
842.061157	737.008728	1251.257813	760.562683	4.580262
842.363403	739.906494	1226.886597	758.259277	3.768693
842.665588	727.869446	1210.762939	757.516296	6.139418
842.967712	721.033630	1190.032471	749.788757	6.131172
843.269775	717.021301	1166.329834	751.200500	7.607067
843.571777	721.182312	1141.587036	748.079773	6.397992
843.873840	723.782898	1119.964844	747.039551	5.870195
844.175659	721.182312	1104.584351	743.027161	5.697635
844.477600	722.816895	1086.380005	740.500977	4.864102
844.779297	730.024231	1070.776489	737.825989	2.289569
845.081116	735.076843	1061.117188	732.327637	-0.843211
845.382751	735.448303	1045.290527	732.476135	-0.959252
845.684387	730.767273	1037.191650	733.516418	0.897169
845.985962	722.073914	1027.829590	738.494812	5.370595
846.287537	722.371033	1026.863525	748.302734	8.516368
846.588989	714.197754	1014.455078	746.370850	10.715175
846.890381	716.649719	999.817444	749.417236	11.571770
847.191711	713.380432	996.325195	745.776367	11.449562
847.493042	717.912903	994.467590	746.593750	10.370769
847.794250	723.931458	1001.377747	743.398682	7.016574
848.095459	724.080017	994.467712	739.757874	5.798288
848.396606	725.640320	989.489319	740.798157	5.744891
848.697693	722.445313	982.207703	741.021057	7.151052
848.998657	726.532043	979.384216	741.541199	5.935941
849.299622	722.371094	988.746338	745.925049	8.842397
849.600464	726.160583	991.049744	743.695984	6.619901
849.901367	724.525879	993.353027	738.420410	5.168574
850.202087	729.058350	982.059021	724.525818	-1.791510
850.502808	732.476257	978.715393	723.114075	-3.802069
850.803467	731.213074	970.987976	728.984070	-0.929624
851.104065	722.742615	967.049988	737.083008	5.869816
851.404663	716.947021	966.455566	740.872375	9.588992
851.705139	720.216309	966.604187	736.711426	6.694776
852.005615	728.315247	972.474060	731.435974	1.278155
852.306030	727.497864	975.148926	723.782776	-1.500130
852.606384	728.166687	977.006531	725.343079	-1.134709
852.906616	730.470032	975.966248	732.624817	0.877726
853.206909	731.584656	967.867188	733.739319	0.911901
853.506958	728.835449	962.888977	732.847717	1.714252
853.807129	720.587830	964.597900	735.745544	6.211922
854.107178	713.231873	967.644348	745.107727	12.529202
854.407166	714.717834	971.582336	745.776367	12.091407
854.707092	717.095520	975.446106	743.027161	10.037384
855.007019	725.863281	980.201477	741.912659	6.310251
855.306763	727.200745	978.492493	744.736145	6.978104
855.606567	727.349365	967.346985	735.894226	3.560394
855.906250	724.600159	956.573181	730.395752	2.498391
856.205933	721.553711	951.149109	731.287415	4.239503
856.505493	721.999512	950.257507	734.185242	5.338577
856.805054	716.872742	950.183289	734.556702	7.579580
857.104492	711.002747	955.310059	736.562927	10.462307
857.403931	708.253601	953.675476	744.438965	14.744147
857.703308	706.544617	951.223389	739.534973	13.483130
858.002563	707.659180	948.845703	730.544373	9.488586
858.301819	706.916199	954.864258	720.290588	5.394029
858.601013	711.299988	954.715637	724.525879	5.433460
858.900208	714.272034	947.434021	723.559875	3.983429
859.199219	722.742493	942.009949	718.135742	-2.100973
859.498291	728.240967	942.158508	714.940735	-6.217457
859.797302	731.733215	947.954102	717.764343	-6.460464
860.096191	726.829163	947.285339	728.761047	0.876312
860.395020	728.389587	945.799316	737.825989	4.340377
860.693787	728.240967	935.694153	741.243896	6.267886
860.992554	727.795166	939.780823	735.745544	3.750432
861.291260	724.748718	946.690918	726.086182	0.602618
861.589844	722.222412	951.372070	728.761047	2.853434
861.888428	718.730164	949.588684	730.098450	4.924352
862.186890	722.222412	949.068604	733.665039	5.044223
862.485413	718.953125	957.687744	729.652649	4.481765
862.783813	719.621887	951.669250	728.315247	3.746373
863.082153	707.807800	948.994385	723.188293	6.377010
863.380371	711.299988	941.341125	716.946960	2.454767
863.678589	713.826233	955.310059	718.135742	1.784595
863.976746	721.033508	951.966492	730.247131	3.989739
864.274902	724.005676	961.031433	737.974609	5.893424
864.572937	727.869446	954.046936	739.534973	5.157687
864.870911	731.138733	961.774414	729.949951	-0.515437
865.168884	726.903503	953.080994	721.330811	-2.463858
865.466736	722.148132	950.406067	723.411316	0.553402
865.764587	715.832336	939.632141	719.176025	1.494054
866.062317	715.609436	942.752930	731.064453	6.804077
866.360107	717.169922	946.542419	729.578430	5.409763
866.657715	717.987244	950.628967	736.414246	7.920764
866.955322	719.398926	946.690918	731.138733	5.165077
867.252808	726.903503	955.532959	735.819824	3.899900
867.550293	726.903503	956.498840	737.231628	4.498404
867.847717	728.315247	965.043762	739.980774	4.927808
868.145081	726.606262	957.241943	736.488525	4.284794
868.442383	728.909668	960.362732	739.460693	4.558603
868.739624	724.080017	955.830139	734.333801	4.424500
869.036804	728.315247	949.440186	733.145020	2.184183
869.333984	732.996399	951.223450	735.448303	1.123556
869.631042	739.089172	951.892273	729.652771	-4.434335
869.928101	734.333801	956.350342	731.733215	-1.171348
870.224976	728.240967	953.155273	730.247253	0.892023
870.521851	728.686768	955.458679	739.683594	4.849289
870.818726	725.640381	963.260498	742.507080	7.098178
871.115479	735.522644	960.659912	741.541199	2.673282
871.412231	731.287354	960.362732	744.067444	5.578989
871.708862	730.395752	949.811707	730.990173	0.270911
872.005493	723.262695	951.297668	724.748718	0.651664
872.302063	727.572266	944.239014	713.528992	-6.481509
872.598572	726.234802	944.090332	718.804504	-3.410654
872.895020	725.566101	945.725098	722.742615	-1.282476
873.191406	725.937561	958.059265	729.727051	1.632544
873.487671	731.064453	969.353271	727.943787	-1.309615
873.783997	727.423584	976.114746	732.327637	1.971945
874.080200	721.182190	979.681335	734.036621	4.972717
874.376343	716.649719	975.074646	736.414307	7.648097
874.672424	717.541321	980.870178	740.203796	8.606150
874.968445	721.330811	975.817566	736.042786	5.781038
875.264465	721.776611	974.628723	733.367859	4.584200
875.560364	720.439148	966.083984	720.290527	-0.060502
875.856201	718.878845	966.232605	727.646484	3.544575
876.152039	723.559875	977.823792	735.076843	4.529533
876.447754	725.491760	980.647278	738.791992	5.212598
876.743469	724.897400	984.808167	733.442139	3.287566
877.039063	724.823059	979.161194	732.253357	2.921425
877.334595	725.937561	977.229309	730.024231	1.626265
877.630127	723.708496	974.257324	729.801331	2.431795
877.925537	717.912903	976.932190	729.949951	4.647163
878.221008	722.965515	988.523438	734.185242	4.224964
878.516296	727.275085	994.021790	736.934387	3.621151
878.811646	730.395752	1004.201233	732.179016	0.651289
879.106812	732.996338	1007.470520	729.801331	-1.164047
879.401978	731.436035	1029.464233	727.497864	-1.321409
879.697083	738.940613	1037.265991	732.773438	-2.067265
879.992126	738.346130	1066.987183	738.717712	0.113066
880.287109	740.872375	1101.166382	744.216003	0.928028
880.582031	739.014893	1181.413208	743.621643	1.041313
880.876892	732.179016	1319.393433	745.850769	2.328239
881.171753	729.429871	1551.217773	747.188171	2.160935
881.466492	727.572266	1895.610962	763.163269	3.047074
881.761230	731.287415	2294.765381	771.708008	2.585300
882.055786	728.761169	2692.136230	790.060791	3.122156
882.350403	720.587830	2960.591797	793.181580	3.240787
882.644958	710.854187	3076.058350	796.079346	3.603290
882.939453	710.482666	3036.306641	798.754211	3.795280
883.233826	714.940735	2931.762695	792.512878	3.499250
883.528137	715.386536	2791.033203	788.426208	3.518888
883.822449	722.742493	2661.671875	781.664612	3.038900
884.116577	722.073792	2520.794189	779.361267	3.184901
884.410828	724.525818	2387.346436	772.302490	2.873231
884.704956	723.411316	2223.063232	758.630676	2.348502
884.999023	726.977844	2021.925659	758.556458	2.438601
885.292969	726.234680	1813.432251	758.407898	2.959280
885.586914	712.042969	1617.198608	763.757629	5.713345
885.880798	708.773621	1472.457031	758.184875	6.470123
886.174622	709.145203	1361.448730	754.767090	6.993966
886.468384	717.838623	1289.003540	741.615540	4.162881
886.762085	718.358704	1242.192871	742.358582	4.581579
887.055664	718.655945	1201.772095	739.237793	4.260228
887.349304	715.089355	1164.323608	742.209900	6.037061
887.642822	704.984192	1129.029907	740.649475	8.410717
887.936340	705.058533	1114.838013	730.098450	6.110583
888.229736	705.504333	1097.079590	724.600098	4.876652
888.523071	716.055359	1079.395630	718.210022	0.593015
888.816284	719.993347	1046.925293	731.138733	3.409084
889.109619	725.640381	1033.402222	732.550537	2.245293
889.402710	727.943665	1024.040161	733.442200	1.857008
889.695862	732.847717	1015.123779	734.110840	0.447478
889.988892	732.401855	1005.613098	736.785828	1.604609
890.281921	722.668274	1003.755493	734.482422	4.203019
>>>>>End Processed Spectral Data<<<<<
