Jaz Data File
++++++++++++++++++++++++++++++++++++
Date: Fri Jun 04 17:02:46 2021
User: jaz
Dark Spectrum Present: Yes
Reference Spectrum Present: Yes
Processed Spectrum Present: Yes
Spectrometers: JAZA3586
Integration Time (usec): 121000 (JAZA3586)
Spectra Averaged: 10 (JAZA3586)
Boxcar Smoothing: 1 (JAZA3586)
Correct for Electrical Dark: No (JAZA3586)
Strobe/Lamp Enabled: Yes (JAZA3586)
Correct for Detector Non-linearity: No (JAZA3586)
Correct for Stray Light: No (JAZA3586)
Number of Pixels in Processed Spectrum: 2048
>>>>>Begin Processed Spectral Data<<<<<
W	D	R	S	P
191.335022	0.000000	0.000000	0.000000	0.000000
191.713211	225.805969	227.812134	226.251770	22.221546
192.091385	456.738800	461.791412	454.881256	-36.764030
192.469528	686.482849	693.913086	687.671692	16.000065
192.847641	699.188538	708.030579	695.770691	-38.654499
193.225739	716.501160	719.696106	711.894348	-144.190582
193.603790	733.145020	731.584656	727.423645	366.669281
193.981842	736.117004	733.962341	741.020996	-227.598999
194.359863	734.779602	737.157227	744.736145	418.760101
194.737854	737.380188	747.931152	747.411133	95.071358
195.115829	753.281067	748.154114	747.708313	108.695236
195.493774	759.596680	749.268616	742.061340	169.783417
195.871704	762.791748	744.810547	738.791992	133.471375
196.249603	761.082825	753.726807	738.866272	302.018738
196.627457	756.178772	751.051941	744.884766	220.292145
197.005310	760.191162	749.640137	742.804260	164.788742
197.383133	755.361511	742.358459	744.587585	82.856903
197.760910	755.955872	743.918762	751.051941	40.740101
198.138687	748.376953	747.188171	754.767090	-537.536560
198.516449	743.324402	750.383240	750.977539	108.419220
198.894180	742.729980	741.764099	741.095276	169.244873
199.271866	743.101563	731.138855	735.596863	62.734123
199.649536	742.878601	726.606262	735.745422	43.836224
200.027191	743.324402	733.293518	738.494812	48.147202
200.404816	737.603088	736.191406	735.596924	142.111633
200.782410	740.649597	748.525635	733.442200	-91.510452
201.159988	736.934387	759.225281	735.002502	-8.666699
201.537537	738.197571	773.937195	744.438965	17.463514
201.915070	729.058289	768.513000	753.429504	61.770103
202.292557	726.606262	768.587341	755.287170	68.318657
202.670029	726.531982	763.609070	756.104492	79.759529
203.047485	732.104675	771.187988	752.835144	53.041740
203.424911	730.692932	768.215820	753.503906	60.792160
203.802292	724.600098	763.386169	756.253113	81.609230
204.179688	724.377197	762.420227	750.085938	67.578056
204.557037	733.219238	762.568848	743.695862	35.695957
204.934357	733.070618	769.404602	736.265686	8.793609
205.311661	728.612488	767.175598	736.265625	19.845747
205.688934	716.575439	765.540833	740.649475	49.165409
206.066177	720.216309	764.575012	738.866272	42.043526
206.443390	713.900574	759.225281	734.631042	45.737679
206.820587	721.850891	755.435730	732.922058	32.964775
207.197769	727.646667	755.732910	728.092346	1.586822
207.574921	733.962341	758.482117	731.807556	-8.787949
207.952042	727.646545	761.900085	724.823059	-8.242904
208.329147	724.897400	759.522461	727.720886	8.154459
208.706223	763.757629	806.853210	769.181702	12.586144
209.083267	769.627625	809.156555	771.930969	5.826985
209.460297	771.039368	811.014160	776.166199	12.825160
209.837280	735.076843	764.946533	730.618652	-14.925467
210.214264	730.247131	769.107422	732.030334	4.588754
210.591217	728.538147	770.444885	728.463867	-0.177250
210.968124	728.983948	771.559509	743.547363	34.206043
211.345016	731.733215	767.472839	750.308899	51.975040
211.721893	731.361633	758.853699	747.931152	60.270187
212.098724	732.773438	756.030273	735.374023	11.182028
212.475555	732.847717	755.510071	734.408142	6.885537
212.852356	728.686768	758.779358	736.934387	27.407476
213.229126	726.829285	765.912415	744.661926	45.627464
213.605865	724.154297	762.643066	738.494812	37.258961
213.982590	721.776672	765.020813	739.237793	40.378002
214.359283	715.237976	762.494446	733.367859	38.364868
214.735931	709.591003	762.791748	734.556641	46.927231
215.112579	714.346375	757.367676	738.569031	56.303867
215.489197	719.250305	755.732910	738.717590	53.360458
215.865799	725.120300	759.819641	736.711487	33.404629
216.242355	716.575439	762.197266	734.408020	39.087826
216.618896	717.764221	760.785583	742.729980	58.031075
216.995407	718.135742	763.163269	740.500977	49.670135
217.371902	723.411316	764.129150	736.340027	31.751961
217.748367	732.922058	762.791687	729.726990	-10.696712
218.124802	731.138855	753.503906	731.138855	0.000000
218.501236	730.024231	756.327393	729.801331	-0.847428
218.877609	718.878845	755.881592	732.624817	37.148518
219.253983	718.433044	758.705078	737.528809	47.416935
219.630295	725.491760	755.361511	740.203796	49.253963
220.006592	728.835449	750.903320	739.683594	49.158092
220.382889	730.024231	746.073669	734.854004	30.093096
220.759140	717.541321	745.107727	736.414307	68.463715
221.135391	716.426819	742.952942	731.584534	57.142593
221.511581	715.535156	752.760925	733.516418	48.303265
221.887772	723.485596	756.253113	729.875549	19.500877
222.263931	724.080078	772.079590	732.253357	17.027838
222.640060	724.005676	766.581238	726.531982	5.933700
223.016159	717.095520	767.621399	733.442139	32.352962
223.392212	719.919006	757.813477	736.711426	44.313641
223.768265	726.011902	767.398438	740.575195	35.188480
224.144302	732.773376	768.958801	734.556702	4.928297
224.520294	721.182129	773.788574	725.789001	8.757239
224.896286	716.055237	773.565613	731.807556	27.390396
225.272217	717.467102	775.868958	735.002502	30.025417
225.648148	727.052185	778.766785	744.067383	32.902115
226.024048	724.971619	770.890686	735.968445	23.948278
226.399902	719.621826	769.256104	732.922058	26.796465
226.775772	711.225586	763.237549	722.891113	22.428547
227.151581	718.433044	765.318054	719.919006	3.169375
227.527374	715.015137	761.825867	719.770447	10.158589
227.903137	718.730164	761.454346	727.052063	19.478195
228.278870	716.798340	758.184875	730.990173	34.290943
228.654572	717.392761	757.887695	730.767273	33.027618
229.030273	717.764343	762.271667	726.160583	18.864851
229.405930	715.683777	765.838135	722.445374	13.481574
229.781555	728.166687	768.736023	730.024231	4.578690
230.157181	736.562927	762.568848	729.504089	-27.143196
230.532761	736.934387	764.723633	741.169617	15.240534
230.908325	730.767273	770.221985	738.866272	20.527330
231.283859	726.383484	775.348877	747.633972	43.398994
231.659332	727.572266	772.674011	743.398743	35.090611
232.034821	728.612488	765.838135	743.918884	41.117878
232.410263	719.696228	766.432556	734.333801	31.319477
232.785690	721.033630	767.844238	729.281250	17.619125
233.161087	721.925293	768.067200	728.240967	13.687501
233.536469	724.377197	763.980652	729.429871	12.758163
233.911804	722.816895	763.757629	727.423645	11.252242
234.287140	721.776611	764.277832	723.485596	4.021024
234.662430	727.646484	768.661621	724.748718	-7.065114
235.037704	723.782898	774.234375	731.361633	15.021831
235.412933	725.268860	773.937073	728.166687	5.954250
235.788162	720.067688	769.479004	730.841553	21.804447
236.163345	718.730286	764.649231	726.829163	17.637333
236.538513	716.724060	769.776123	727.720886	20.728367
236.913635	716.575439	768.290100	723.039795	12.500044
237.288742	720.884949	764.500671	722.668274	4.088721
237.663834	718.655945	757.070496	723.782776	13.346066
238.038879	724.302917	762.717468	729.652649	13.926315
238.413910	719.547546	763.906311	728.018066	19.095482
238.788910	719.324646	766.135437	734.630920	32.698174
239.163879	718.432922	767.175598	730.692932	25.152517
239.538834	713.751953	763.311829	735.002441	42.878414
239.913757	718.655945	764.575012	727.052063	18.284601
240.288651	715.015076	763.757629	733.442139	37.804878
240.663528	723.782776	773.268372	728.909729	10.360496
241.038361	720.513489	777.355042	732.253357	20.653673
241.413177	722.593994	773.417053	724.525879	3.801197
241.787979	725.640320	766.061035	730.470032	11.948606
242.162735	728.092346	765.466614	732.179016	10.934448
242.537476	725.937500	770.444885	737.380188	25.709639
242.912170	720.884949	777.949463	739.534973	32.682350
243.286865	718.135742	779.212646	742.729980	40.267658
243.661514	713.157532	780.104309	738.049011	37.180996
244.036148	719.176025	779.212646	737.751770	30.940689
244.410751	725.417480	776.389160	732.476257	13.848429
244.785339	735.076843	776.166260	734.631042	-1.084953
245.159882	736.711487	776.983582	733.888000	-7.011024
245.534378	732.476135	785.231140	737.825989	10.140941
245.908890	726.160461	784.859619	738.048889	20.253149
246.283356	726.457703	777.652283	731.733154	10.304708
246.657791	725.343201	766.878418	730.618652	12.701154
247.032196	731.510254	772.228210	733.590759	5.109552
247.406586	725.640320	783.522217	734.705383	15.661310
247.780960	728.463867	787.311707	728.909668	0.757548
248.155289	727.795166	783.002136	726.160461	-2.961047
248.529602	722.965515	777.726563	722.816833	-0.271510
248.903870	724.674500	784.339539	730.544373	9.838044
249.278122	717.095520	784.265320	728.761169	17.367403
249.652344	720.513489	784.116638	740.129456	30.841188
250.026550	713.751892	774.085754	741.466858	45.936005
250.400711	712.785950	780.178528	752.315002	58.654903
250.774857	713.900452	777.726563	746.147949	50.523991
251.148987	719.027405	783.968018	748.302734	45.080154
251.523071	724.674377	777.726563	741.169617	31.092478
251.897125	728.686829	783.447937	752.240723	43.012085
252.271164	723.559875	778.766785	745.107666	39.030968
252.645187	725.120300	776.389160	740.055115	29.130381
253.019165	726.234863	769.924805	728.315247	4.761699
253.393112	733.888000	777.132141	738.420471	10.481121
253.767044	729.652771	771.930969	741.912659	28.998133
254.140930	727.349304	781.293152	746.965271	36.363678
254.514801	722.148132	776.537781	741.838379	36.202194
254.888657	725.045898	782.110413	742.284180	30.208408
255.262466	731.287354	775.051697	740.575195	21.222395
255.636276	731.064453	781.441711	742.135559	21.976397
256.010010	732.922058	781.738953	746.742371	28.310511
256.383759	724.080017	780.847351	750.160217	45.942268
256.757446	730.098450	773.194092	746.519348	38.103386
257.131134	724.451477	775.646057	746.147888	42.380291
257.504791	724.228577	776.983459	745.553528	40.422707
257.878418	715.460938	775.720398	743.695862	46.855587
258.252014	723.782776	780.550049	744.216064	35.994839
258.625580	720.885010	788.797668	742.135559	31.290998
258.999115	729.875671	794.073242	739.757874	15.393420
259.372650	726.680603	793.701660	727.943787	1.884756
259.746124	727.274963	791.546875	725.640320	-2.543325
260.119598	728.463867	791.398254	733.442139	7.910256
260.493042	729.281250	796.822449	744.810486	22.992243
260.866425	728.166687	803.806824	739.609314	15.127719
261.239838	717.318420	810.048340	729.429871	13.060995
261.613159	708.922302	806.556152	729.652771	21.232870
261.986511	712.340149	801.800720	732.922058	23.006681
262.359802	720.513489	792.067078	735.225403	20.560694
262.733063	728.761169	789.020569	732.624817	6.411693
263.106293	725.937683	777.726563	735.076843	17.646955
263.479523	719.398926	785.008240	737.974609	28.312571
263.852692	719.696106	791.026855	743.250061	33.020760
264.225861	719.844788	802.172180	748.228333	34.476429
264.598969	730.990173	798.085632	743.621582	18.826027
264.972076	724.674500	792.587158	739.757874	22.209959
265.345154	726.531982	796.896729	737.305908	15.311540
265.718201	715.906738	803.509583	737.900330	25.106024
266.091217	729.801331	809.676758	746.668030	21.116255
266.464203	733.590820	815.323730	751.646301	22.090834
266.837158	739.014893	813.391846	759.522400	27.572395
267.210114	724.748718	820.673523	750.977600	27.343170
267.583038	719.770508	827.360779	744.067444	22.582838
267.955902	717.689941	834.419617	736.340027	15.977159
268.328766	722.965515	824.463074	732.773438	9.663210
268.701569	727.052063	813.168945	732.699158	6.557477
269.074371	719.473206	808.710754	736.414246	18.984205
269.447144	712.488770	815.992493	737.083008	23.761694
269.819885	709.591003	820.896484	739.534973	26.902512
270.192596	716.129700	825.577454	740.575195	22.335310
270.565277	730.767334	831.670349	741.541199	10.677445
270.937927	739.609375	831.150208	735.374023	-4.626735
271.310577	735.671326	834.419617	730.321472	-5.417667
271.683136	726.011902	824.165771	726.829163	0.832632
272.055725	717.690002	829.812805	726.977844	8.283633
272.428284	717.764343	830.555847	730.172852	11.001279
272.800812	720.364929	841.849854	729.132568	7.217060
273.173279	726.977783	836.351379	737.380188	9.510892
273.545776	735.522644	833.527893	741.243958	5.837762
273.918152	729.281250	831.075989	752.612305	22.919706
274.290558	719.621887	832.339111	744.216064	21.819361
274.662964	713.528992	837.094482	738.048889	19.843645
275.035278	720.439148	836.648621	735.151123	12.659876
275.407593	725.045898	836.500000	740.129395	13.533370
275.779907	724.822998	845.787842	748.748535	19.778917
276.152161	716.278259	852.846497	741.987000	18.824831
276.524384	712.934570	862.654541	742.655701	19.851147
276.896606	713.157410	861.242859	737.454590	16.407541
277.268799	719.027344	865.775391	736.637207	12.000067
277.640930	724.525818	863.026123	739.609314	10.890587
278.013031	731.138733	860.351257	740.203674	7.015529
278.385162	730.321472	854.704285	735.002441	3.763357
278.757233	722.296692	855.372864	729.058289	5.080997
279.129272	719.844727	859.608154	729.132568	6.645402
279.501282	718.953125	863.026062	738.866272	13.821573
279.873230	723.559875	869.861877	733.813660	7.008642
280.245178	724.971680	875.806152	729.355469	2.906358
280.617126	721.182312	877.589355	722.073792	0.569974
280.988983	715.015137	878.258118	716.946960	1.183404
281.360870	716.724060	885.465515	725.120300	4.975802
281.732697	721.702332	894.679016	728.166687	3.737125
282.104492	731.138733	902.778015	733.739441	1.515217
282.476288	730.544373	901.960754	727.943787	-1.517116
282.848053	732.253357	908.945129	734.036438	1.009148
283.219757	730.321472	915.409485	742.135559	6.382957
283.591461	725.194519	924.474426	748.154053	11.521249
283.963135	726.086121	923.954285	748.822815	11.490830
284.334747	736.637146	924.845947	749.120056	6.632480
284.706360	734.779602	925.291809	738.569092	1.989106
285.077942	734.333801	936.362976	733.590759	-0.367789
285.449524	715.460876	947.359680	728.389465	5.575099
285.821014	713.157532	955.235779	736.191345	9.515028
286.192535	711.225647	957.687805	734.853821	9.586938
286.563995	715.609436	967.198547	740.500977	9.893727
286.935425	715.832458	964.300781	737.380188	8.672224
287.306824	719.027527	964.597961	747.262451	11.497689
287.678223	713.751953	954.418457	747.708313	14.109301
288.049561	726.011963	955.235779	746.073669	8.752017
288.420898	724.154358	952.783752	737.528809	5.849839
288.792145	732.327637	952.486572	736.265625	1.788702
289.163452	729.504150	958.876526	742.135681	5.506998
289.534668	737.454529	966.975586	743.547363	2.654586
289.905914	737.380188	972.548340	745.256348	3.349161
290.277039	735.745544	985.105469	746.816711	4.439834
290.648193	735.299744	1001.229187	754.989990	7.404312
291.019318	731.881836	1010.591248	750.011719	6.504941
291.390381	724.451599	1006.727539	745.776367	7.554582
291.761475	708.996582	995.582214	737.380188	9.904058
292.132507	712.042969	994.616211	743.027161	10.965013
292.503510	715.758118	1004.126953	745.553528	10.332397
292.874481	729.727051	1021.439453	749.194336	6.673451
293.245422	727.572266	1028.126709	747.485413	6.625471
293.616364	724.600159	1034.442383	748.674255	7.769792
293.987213	717.912903	1029.464233	748.748535	9.897449
294.358093	718.061523	1047.073975	744.810486	8.130076
294.728943	714.940857	1060.448364	743.398743	8.236547
295.099731	711.745789	1076.720825	740.872375	7.980433
295.470490	717.467041	1094.776245	740.798157	6.183553
295.841248	720.736328	1105.773193	737.825989	4.438448
296.211975	722.073792	1118.999146	733.962219	2.995129
296.582642	719.547546	1123.902954	733.813660	3.528112
296.953308	719.770508	1133.116577	735.819824	3.882780
297.323883	724.005676	1144.410400	740.352356	3.888320
297.694519	720.364929	1144.113281	741.095398	4.892165
298.065063	719.993408	1146.565308	736.414246	3.849489
298.435608	721.107910	1139.952271	727.572266	1.543379
298.806122	729.429871	1132.447754	725.714661	-0.921847
299.176575	731.584534	1129.252808	738.420410	1.718990
299.547028	728.761047	1123.680054	742.729980	3.537164
299.917450	722.148132	1121.525269	744.736145	5.655810
300.287872	721.702332	1114.317993	735.002502	3.387580
300.658234	725.937561	1115.952515	738.271790	3.162501
301.028564	727.795166	1120.782227	741.838379	3.573454
301.398865	726.977844	1122.714111	748.599915	5.463758
301.769135	722.891113	1129.995728	749.045715	6.424541
302.139374	716.575439	1132.893555	745.702148	6.996263
302.509583	716.129639	1126.354980	741.392578	6.158308
302.879791	713.454773	1118.850464	745.256348	7.844576
303.249939	715.832458	1116.026855	747.039551	7.797983
303.620087	718.804504	1127.172241	741.838379	5.640474
303.990173	720.810730	1130.367310	734.631042	3.374457
304.360260	721.182190	1138.837891	738.866272	4.234129
304.730286	724.600159	1140.472412	744.810486	4.859744
305.100281	722.891174	1142.552856	746.668030	5.665720
305.470276	728.166687	1135.345581	738.197510	2.463493
305.840179	722.668274	1137.203125	737.751648	3.638626
306.210144	719.621887	1140.249634	732.179016	2.985331
306.579987	719.473328	1152.658081	735.151123	3.619194
306.949890	714.049133	1159.345337	733.516418	4.371761
307.319702	718.878845	1177.846680	738.197510	4.209154
307.689484	714.494934	1184.905396	735.819824	4.533252
308.059265	725.789001	1204.298462	732.996277	1.506193
308.429016	727.497986	1212.174683	731.956055	0.919803
308.798737	726.531982	1233.722412	737.157288	2.094934
309.168396	725.863281	1243.456055	740.426575	2.813658
309.538055	714.346375	1256.533325	743.993164	5.468001
309.907684	719.324646	1268.793213	741.243958	3.989184
310.277313	714.569336	1281.796143	740.278015	4.532346
310.646851	723.559875	1294.353394	738.866211	2.681589
311.016388	717.764343	1306.241821	741.764099	4.078279
311.385895	724.525818	1312.483276	752.983704	4.840127
311.755371	723.931396	1314.415039	753.949707	5.083682
312.124817	722.148132	1313.300537	749.417236	4.612872
312.494232	719.993347	1310.254272	741.318176	3.612780
312.863617	721.330811	1307.876343	740.278015	3.230304
313.232971	724.377258	1304.978638	741.392578	2.930637
313.602295	719.473328	1306.910522	733.293640	2.352645
313.971619	717.095520	1316.049805	729.727051	2.108931
314.340820	721.702332	1320.359253	731.733215	1.675565
314.710083	729.058350	1331.430542	744.959167	2.639700
315.079285	730.618652	1344.433472	751.794922	3.449944
315.448486	729.652649	1366.204102	754.023987	3.828652
315.817596	717.838562	1358.328003	748.525574	4.791182
316.186707	719.621765	1352.532349	743.993164	3.850686
316.555786	717.169739	1331.950684	735.299744	2.949019
316.924866	724.080017	1334.551147	732.104736	1.314512
317.293884	713.083191	1332.322144	742.358582	4.727640
317.662872	709.293762	1336.557251	759.522461	8.007591
318.031830	709.739563	1343.393066	758.482178	7.692314
318.400757	724.154297	1354.538574	758.779358	5.492691
318.769684	724.897278	1368.730469	747.188171	3.462216
319.138550	717.244141	1373.188599	748.599915	4.780248
319.507416	713.306152	1378.092407	732.327637	2.861293
319.876190	713.603333	1378.909790	735.894104	3.350452
320.244995	717.541321	1387.157593	744.067444	3.961392
320.613770	719.547546	1381.064819	748.228333	4.335607
320.982483	724.228699	1377.869629	743.027161	2.875962
321.351166	727.572266	1367.690063	733.144958	0.870573
321.719818	725.120178	1363.826294	735.894226	1.686855
322.088440	727.646545	1368.730347	736.860107	1.437185
322.457062	730.395752	1385.225586	741.169617	1.645292
322.825623	721.925232	1408.705200	746.222168	3.537805
323.194183	717.021179	1418.884766	748.302673	4.456919
323.562653	710.408264	1439.912476	745.999329	4.878802
323.931183	719.621826	1457.596558	739.237793	2.658081
324.299591	719.398926	1492.741821	736.265686	2.181020
324.668060	724.228699	1513.100586	740.055115	2.006209
325.036407	724.302917	1536.654663	743.101501	2.314094
325.404755	725.937683	1552.555298	742.581360	2.013468
325.773102	721.702332	1549.954712	743.992981	2.691287
326.141388	728.463867	1556.864868	744.661804	1.955326
326.509674	732.401917	1556.270508	743.547302	1.352811
326.877899	739.683594	1577.744141	743.547363	0.461037
327.246124	736.117126	1581.087769	746.222168	1.195904
327.614288	734.556641	1586.511719	747.485352	1.517534
327.982422	733.962219	1578.561401	742.581360	1.020501
328.350525	738.643311	1576.406616	745.033386	0.762754
328.718628	739.460632	1575.589233	750.754700	1.350757
329.086700	739.089172	1588.963745	750.085938	1.293928
329.454712	735.225403	1590.895508	743.027161	0.911772
329.822693	736.934387	1598.177246	739.980774	0.353720
330.190674	735.968445	1604.047241	740.055115	0.470772
330.558563	732.253235	1618.461792	743.250061	1.240885
330.926483	724.079895	1628.418457	741.763977	1.955471
331.294312	719.175964	1638.672241	743.844543	2.682836
331.662231	718.135742	1660.145630	741.689758	2.500400
332.029999	713.751953	1687.860718	742.581360	2.959568
332.397766	713.603333	1714.906860	744.884766	3.124071
332.765503	713.008972	1738.906616	747.856934	3.396826
333.133240	720.513489	1757.779419	753.875488	3.216340
333.500916	720.959290	1788.169312	756.698975	3.348890
333.868561	720.067627	1800.131958	755.435730	3.274629
334.236176	710.854065	1804.144409	748.451355	3.438912
334.603790	711.745789	1798.720337	736.265625	2.255787
334.971344	712.117249	1805.927612	735.374023	2.126216
335.338867	719.993347	1810.608765	740.500977	1.880372
335.706360	715.089417	1810.757202	749.342957	3.126271
336.073853	719.696228	1814.843872	749.268616	2.700310
336.441284	716.426819	1826.806641	753.949707	3.379284
336.808655	718.581604	1826.509399	759.225281	3.668441
337.176086	719.993408	1801.246582	760.265442	3.724570
337.543396	730.247131	1762.460571	754.544128	2.353873
337.910706	730.544373	1733.928223	751.720642	2.110485
338.277954	733.219238	1758.373657	753.280945	1.956945
338.645264	727.869446	1824.354614	755.807312	2.547948
339.012421	725.714661	1905.716187	759.819641	2.890249
339.379669	721.999512	1972.217163	759.745300	3.019137
339.746796	726.086182	2016.798706	754.767029	2.222094
340.113953	735.225403	2035.820313	746.073547	0.834091
340.481018	733.219238	2043.919067	740.426575	0.549885
340.848114	728.612488	2029.578735	740.946777	0.948087
341.215118	721.850891	2030.618774	741.318176	1.487451
341.582153	725.640320	2033.219604	741.095398	1.181961
341.949066	724.971680	2051.498047	741.615479	1.254690
342.316010	725.120300	2061.454834	743.175781	1.351120
342.682922	724.228699	2072.971680	749.194336	1.851030
343.049835	726.680664	2091.993408	746.073547	1.420399
343.416656	733.590820	2141.924561	744.513245	0.775557
343.783478	736.117004	2193.416260	747.411072	0.775000
344.150269	746.222229	2248.846191	753.503906	0.484597
344.516998	748.005432	2288.895264	757.144714	0.593117
344.883728	740.798096	2322.628662	754.915710	0.892486
345.250427	725.268860	2357.848145	755.064209	1.825047
345.617065	719.696106	2377.835693	754.246887	2.083708
345.983704	721.107910	2385.414307	741.689758	1.236662
346.350281	722.668213	2383.928467	738.866211	0.975043
346.716827	717.838562	2357.996826	732.624817	0.901514
347.083405	716.278259	2350.046631	740.723816	1.496268
347.449860	733.145020	2346.108398	756.030090	1.418821
347.816376	738.123230	2348.040283	761.305664	1.439977
348.182770	742.209900	2340.312744	760.636963	1.153059
348.549194	731.658875	2322.851563	746.147949	0.910580
348.915558	732.624817	2330.281982	741.764160	0.572047
349.281921	727.423645	2331.396240	740.575256	0.819940
349.648193	721.999512	2351.086670	738.717712	1.026231
350.014526	722.965515	2371.074219	745.330627	1.357017
350.380737	725.194519	2401.017822	745.999329	1.241468
350.746948	730.841553	2438.986572	754.024109	1.357177
351.113159	726.457703	2464.026611	750.829041	1.402611
351.479309	723.708496	2482.528076	748.674316	1.419465
351.845428	722.816895	2496.943115	741.912659	1.076348
352.211517	730.841553	2537.289063	745.256287	0.797960
352.577576	727.200745	2572.508789	754.023987	1.453591
352.943604	727.869446	2598.886475	748.302734	1.092095
353.309601	723.782898	2627.121582	748.302734	1.288254
353.675537	730.470032	2678.241699	748.897156	0.946062
354.041473	727.423645	2737.832275	749.045715	1.075506
354.407379	730.990173	2779.664795	749.640137	0.910343
354.773254	733.813660	2830.339111	748.377014	0.694642
355.139038	725.491760	2874.177734	759.670959	1.590702
355.504913	725.268860	2949.074951	765.318054	1.800930
355.870636	720.142029	3007.997070	762.345886	1.844691
356.236389	725.566101	3068.776611	757.516174	1.363517
356.602081	718.432922	3120.714111	757.367676	1.620741
356.967804	720.587708	3175.401123	754.915710	1.398396
357.333405	720.959290	3246.285889	754.023987	1.309324
357.699036	715.906738	3330.545166	742.209900	1.005996
358.064606	716.203918	3415.398682	740.129395	0.886393
358.430176	717.615723	3485.391846	736.562805	0.684560
358.795654	727.275085	3517.193604	740.129395	0.460741
359.161163	727.052063	3540.153320	742.730042	0.557320
359.526581	727.497864	3544.239502	744.364685	0.598806
359.892029	732.179016	3581.837158	748.451355	0.571028
360.257416	729.875671	3638.306885	746.965332	0.587590
360.622772	731.510254	3736.163818	744.513245	0.432762
360.988098	723.411316	3836.992188	735.819824	0.398529
361.353394	722.816895	3967.913330	740.798096	0.554104
361.718658	721.850891	4110.352051	749.937439	0.828878
362.083893	720.364929	4258.511719	746.296570	0.732916
362.449097	719.844727	4351.093262	749.045715	0.804158
362.814209	714.272034	4358.969238	747.634033	0.915357
363.179382	721.776672	4269.285645	752.760925	0.873409
363.544434	723.857117	4122.834961	749.491638	0.754183
363.909546	731.881836	3960.409180	742.135559	0.317598
364.274536	726.680664	3817.302002	750.234558	0.762109
364.639587	728.835388	3710.157959	748.079773	0.645498
365.004517	726.829163	3639.421143	750.160217	0.801041
365.369507	730.841553	3597.589111	741.169617	0.360271
365.734344	726.011902	3582.951416	744.810486	0.657997
366.099274	726.754883	3580.128174	747.113831	0.713505
366.464081	724.005676	3585.923828	749.565918	0.893116
366.828918	731.584534	3583.322998	742.581360	0.385618
367.193665	730.841553	3585.329102	744.141785	0.465941
367.558411	728.761047	3586.072266	748.971436	0.707322
367.923126	728.909668	3585.106201	756.996094	0.983351
368.287781	737.008728	3590.233154	758.407898	0.750000
368.652435	735.968445	3580.945313	752.537903	0.582411
369.017059	736.711487	3578.790771	751.126221	0.507190
369.381653	728.835388	3566.159180	750.234558	0.754203
369.746185	731.064514	3574.629639	752.909485	0.768225
370.110687	724.451599	3585.923584	754.915588	1.064627
370.475220	725.491760	3618.022461	755.287109	1.030079
370.839661	720.141907	3652.573242	759.819580	1.353064
371.204041	723.039795	3705.253906	761.305664	1.283136
371.568451	716.724060	3745.600342	765.169434	1.599450
371.932770	722.073792	3782.157471	762.122986	1.308761
372.297150	719.324646	3791.519531	759.893982	1.320533
372.661377	720.662109	3808.608643	752.760925	1.039487
373.025696	714.420654	3827.258789	749.863098	1.138589
373.389862	720.736389	3841.748047	749.343018	0.916582
373.754059	721.702332	3844.719971	758.705078	1.184839
374.118225	731.807434	3860.917969	759.076599	0.871467
374.482361	727.423645	3887.221436	756.921814	0.933546
374.846436	727.497986	3932.174561	751.349121	0.744260
375.210510	720.587830	3974.155518	747.188171	0.817575
375.574524	722.222473	4056.705811	748.302673	0.782136
375.938538	721.330811	4155.156738	743.844543	0.655646
376.302460	727.720886	4245.806152	748.822815	0.599813
376.666412	727.943665	4338.164551	757.293274	0.812959
377.030304	728.686768	4413.582031	763.237488	0.937631
377.394196	721.776672	4515.970703	775.200195	1.408033
377.757996	723.039795	4579.351074	773.342712	1.304431
378.121796	722.965515	4624.898926	769.107483	1.182541
378.485565	729.875671	4628.911133	755.138489	0.647925
378.849304	719.324646	4609.072266	749.640198	0.779371
379.212982	717.912842	4559.883789	757.367676	1.026942
379.576630	714.272034	4475.624512	767.547119	1.416381
379.940277	717.764343	4411.204102	777.577942	1.619455
380.303864	726.086182	4368.183105	778.469666	1.438278
380.667450	725.640320	4379.327637	780.327209	1.496759
381.030945	725.714661	4390.547363	778.841125	1.449629
381.394501	724.228699	4421.532227	778.469543	1.467038
381.757935	730.767273	4436.021484	779.435547	1.313493
382.121399	733.962219	4445.977539	779.361267	1.223030
382.484741	733.293640	4468.640137	788.649109	1.481937
382.848145	723.782776	4501.779297	797.862610	1.960823
383.211487	724.451477	4539.673340	798.679932	1.945587
383.574768	716.649719	4596.218262	798.828613	2.118248
383.938019	719.324646	4655.065430	790.209412	1.801053
384.301270	718.507324	4729.442871	802.543762	2.095183
384.664459	722.742615	4785.541016	801.726379	1.944073
385.027649	721.107910	4818.085449	812.425964	2.228913
385.390778	725.045898	4877.750488	813.986328	2.141747
385.753876	725.194580	4892.091309	820.524902	2.287802
386.116943	732.104736	4928.722168	825.280273	2.220253
386.479980	727.869446	4926.716309	836.128601	2.578307
386.842987	733.665039	4987.719238	849.651611	2.726495
387.205994	730.767273	5037.278809	866.741211	3.157403
387.568909	725.045959	5100.139160	876.177673	3.454365
387.931793	718.804504	5130.454590	889.849304	3.877116
388.294678	718.135742	5167.902832	899.285828	4.071002
388.657471	720.513489	5171.766113	909.465332	4.244914
389.020294	726.309082	5179.939453	929.006897	4.551294
389.383057	727.646484	5178.825195	935.174011	4.662305
389.745819	730.767273	5207.951660	949.811707	4.892459
390.108521	727.423645	5228.607910	964.375000	5.264201
390.471191	726.011902	5286.415527	982.281982	5.619460
390.833801	721.925232	5363.987793	1002.640869	6.047218
391.196442	716.798340	5472.395020	1018.244446	6.338765
391.558960	708.625000	5561.484375	1043.433105	6.899192
391.921509	708.625000	5656.665527	1059.259644	7.086333
392.284027	706.544617	5756.826172	1073.302734	7.262132
392.646484	713.306152	5859.884277	1105.327271	7.617122
393.008911	719.101746	5897.704590	1137.054565	8.070764
393.371307	722.816895	5889.084473	1163.952148	8.538761
393.733673	734.408142	5845.543457	1194.564819	9.003023
394.096008	736.117004	5824.812988	1224.063110	9.588824
394.458344	736.414246	5844.726563	1260.322754	10.256000
394.820587	726.457703	5876.007813	1276.297974	10.677443
395.182831	726.234802	5914.273438	1302.006714	11.098065
395.545013	729.281189	5898.075684	1324.817505	11.521765
395.907196	732.550476	5876.750488	1347.331177	11.950948
396.269287	735.374023	5824.144531	1371.553833	12.501640
396.631409	735.002502	5767.154297	1397.114136	13.157624
396.993469	731.138733	5708.009277	1431.516235	14.072648
397.355530	725.566101	5642.103027	1456.927734	14.875544
397.717499	720.364929	5626.499512	1498.240112	15.855153
398.079468	719.324646	5612.232910	1525.360474	16.473553
398.441376	720.290527	5618.845703	1563.032104	17.203880
398.803284	726.011902	5621.595215	1598.920288	17.830528
399.165131	727.572205	5639.279785	1641.792969	18.613094
399.526978	727.126404	5651.093750	1682.733765	19.407265
399.888763	723.262695	5661.941406	1714.906860	20.079140
400.250519	724.302917	5684.455078	1748.714478	20.652826
400.612244	729.652771	5726.807129	1793.147583	21.282009
400.973938	726.086182	5731.117188	1828.218384	22.020487
401.335602	724.823059	5727.699219	1871.462524	22.919605
401.697205	725.343079	5768.417480	1919.239258	23.673977
402.058807	731.361633	5843.166016	1963.969360	24.112967
402.420349	728.983948	5940.725098	2014.718140	24.669954
402.781860	724.302917	6006.037109	2058.259521	25.256033
403.143341	719.250305	6070.309082	2120.970947	26.195204
403.504822	717.987244	6137.479004	2180.190430	26.980448
403.866241	711.151367	6247.669434	2241.713135	27.644844
404.227631	712.488770	6360.460938	2301.972656	28.142559
404.588959	715.312317	6501.933594	2370.108154	28.596928
404.950287	715.683838	6629.585938	2426.058105	28.921246
405.311554	717.987244	6712.582031	2474.726318	29.305384
405.672821	719.844727	6754.265625	2517.450684	29.789204
406.034027	719.696106	6745.126465	2552.298584	30.414469
406.395203	720.959290	6715.257324	2565.524414	30.771997
406.756348	718.953125	6665.919922	2579.864990	31.291782
407.117493	724.600098	6634.044434	2589.449707	31.557106
407.478516	723.262695	6638.725098	2635.591797	32.327637
407.839600	725.045898	6689.994141	2663.901367	32.504147
408.200592	726.234802	6708.049316	2706.625244	33.106850
408.561554	725.046082	6693.560547	2720.222656	33.428360
408.922485	721.553772	6674.539063	2764.878174	34.324368
409.283417	718.953125	6681.671875	2801.955811	34.933773
409.644257	717.169922	6756.644043	2854.190430	35.384216
410.005096	720.959290	6853.162598	2888.815430	35.351997
410.365906	722.148132	6922.339355	2934.437500	35.680984
410.726715	727.795166	7015.217285	2999.897705	36.137268
411.087433	725.120178	7061.804688	3043.736572	36.590370
411.448120	725.714661	7138.782715	3089.655518	36.861313
411.808807	721.553711	7166.052246	3112.243896	37.096607
412.169434	717.615723	7154.162598	3119.971436	37.323673
412.530029	719.621887	7150.670410	3120.342529	37.330162
412.890564	732.104675	7135.142090	3130.670898	37.459816
413.251099	735.448303	7156.540527	3163.661377	37.816200
413.611572	730.767273	7194.880859	3207.648438	38.317413
413.972076	724.971680	7225.568359	3230.013672	38.535568
414.332489	722.965515	7262.645996	3260.180420	38.797230
414.692871	722.296814	7324.391113	3297.777588	39.010056
415.053223	719.473328	7422.099121	3346.743164	39.197620
415.413574	725.343201	7568.921387	3417.107666	39.332706
415.773834	728.018066	7688.027832	3480.042236	39.540524
416.134094	727.052185	7808.026855	3548.846680	39.850368
416.494263	724.525879	7887.382324	3610.443359	40.290035
416.854462	724.080078	8059.838379	3695.965820	40.512318
417.214630	726.903503	8273.162109	3789.290283	40.581524
417.574738	722.445374	8500.305664	3880.979736	40.609299
417.934784	725.863281	8692.898438	3989.239014	40.960979
418.294861	732.996399	8928.438477	4119.863281	41.326225
418.654846	737.900330	9249.500000	4266.462402	41.455921
419.014832	739.832214	9575.762695	4400.802246	41.432762
419.374756	730.098450	9917.407227	4541.233887	41.482613
419.734680	726.160461	10268.117188	4697.269531	41.617344
420.094543	717.318542	10637.030273	4845.949219	41.620472
420.454376	716.203918	10928.147461	4984.152344	41.793694
420.814148	721.479431	11216.813477	5117.302734	41.883595
421.173920	720.216309	11521.602539	5271.258301	42.133869
421.533691	719.101746	11896.459961	5418.897949	42.047470
421.893341	717.541443	12194.785156	5541.199707	42.028019
422.253021	724.971680	12432.034180	5631.328613	41.909378
422.612640	728.315247	12524.614258	5685.421387	42.022552
422.972260	726.903503	12556.269531	5707.489746	42.103577
423.331757	725.417480	12493.260742	5708.604004	42.345791
423.691315	729.801270	12497.940430	5729.259766	42.483002
424.050781	732.178955	12553.148438	5782.237793	42.721188
424.410248	730.618652	12631.760742	5824.962402	42.805500
424.769653	720.736328	12724.563477	5868.800781	42.886860
425.128998	717.095520	12766.842773	5900.974121	43.020641
425.488373	717.987122	12744.997070	5895.475098	43.048836
425.847656	722.222473	12655.315430	5852.825684	42.994747
426.206940	724.302917	12541.407227	5794.126465	42.902420
426.566193	719.176086	12383.218750	5717.148438	42.849400
426.925385	716.426941	12157.784180	5648.418457	43.106701
427.284576	712.265930	11863.840820	5527.082031	43.176105
427.643677	717.021301	11630.456055	5429.968750	43.184822
428.002777	720.439148	11410.891602	5346.377930	43.271687
428.361847	726.680603	11180.479492	5258.552246	43.351433
428.720856	727.200684	10941.670898	5195.915039	43.748859
429.079865	726.903503	10762.675781	5125.401855	43.828201
429.438812	725.268860	10633.313477	5083.792480	43.989742
429.797760	728.092468	10543.779297	5059.644043	44.128872
430.156616	725.789063	10446.590820	5008.672363	44.058952
430.515503	728.984070	10378.975586	5001.167480	44.271374
430.874268	732.699219	10349.476563	4994.777832	44.319199
431.233093	735.745605	10364.932617	5034.083984	44.638641
431.591827	729.206848	10415.458008	5050.355957	44.611160
431.950562	726.903503	10448.894531	5080.671387	44.782677
432.309204	721.405090	10492.287109	5103.481934	44.848324
432.667877	724.154297	10552.546875	5158.688965	45.119633
433.026459	721.702332	10658.131836	5213.227539	45.202610
433.385010	725.194580	10750.042969	5261.747070	45.253078
433.743561	726.383484	10903.626953	5313.685059	45.074108
434.102051	722.445374	11035.291992	5366.885254	45.035480
434.460510	730.247253	11185.606445	5438.884766	45.035637
434.818939	722.816895	11271.203125	5468.679688	44.991360
435.177338	718.433044	11331.387695	5479.528809	44.861168
435.535675	712.265930	11346.247070	5488.147949	44.911510
435.894012	714.643616	11312.218750	5496.395020	45.121185
436.252289	710.928467	11329.233398	5523.515625	45.323498
436.610535	706.841797	11311.846680	5534.810059	45.525375
436.968719	712.860352	11409.331055	5603.837402	45.725147
437.326935	718.284363	11488.538086	5655.700684	45.843082
437.685028	722.371094	11608.387695	5691.885254	45.650436
438.043152	715.980957	11684.176758	5728.591309	45.701324
438.401215	717.987122	11849.500000	5802.373535	45.675610
438.759277	713.529053	12044.842773	5901.567871	45.784977
439.117249	721.107910	12344.430664	6031.746094	45.689503
439.475250	724.600098	12549.804688	6135.992676	45.761513
439.833130	730.767273	12814.024414	6274.938965	45.883091
440.191071	734.779602	12992.648438	6371.681152	45.985981
440.548889	730.915833	13226.924805	6497.476074	46.147217
440.906708	730.321472	13462.539063	6603.505371	46.128525
441.264496	720.662109	13657.657227	6690.811035	46.147881
441.622223	728.538147	13836.058594	6740.520020	45.866661
441.979950	724.897278	13927.301758	6782.724121	45.884270
442.337616	730.321472	13985.778320	6817.571777	45.922600
442.695251	723.411316	13912.144531	6811.479004	46.161125
443.052887	725.789063	13795.859375	6783.615723	46.348846
443.410461	719.324646	13699.563477	6743.714844	46.412010
443.768005	718.210144	13602.301758	6703.145996	46.452137
444.125458	717.764343	13520.643555	6664.582031	46.449066
444.482941	726.383484	13514.178711	6686.947754	46.611355
444.840393	738.049011	13601.039063	6744.681152	46.697014
445.197754	740.203796	13754.696289	6875.007813	47.138252
445.555084	736.117126	13909.246094	6962.982910	47.269451
445.912415	726.011902	14179.411133	7108.838379	47.443970
446.269714	724.451477	14453.661133	7181.803223	47.033672
446.626953	723.262695	14740.991211	7320.972656	47.066898
446.984161	716.426819	14963.230469	7432.427246	47.140400
447.341309	709.293762	15168.676758	7555.695313	47.349194
447.698456	711.820007	15332.664063	7607.484375	47.163246
448.055542	715.832458	15455.559570	7662.468262	47.128658
448.412598	723.411316	15442.557617	7660.536621	47.129944
448.769653	724.451477	15393.666992	7653.923340	47.238186
449.126617	733.293640	15197.284180	7561.341797	47.207226
449.483582	733.219238	15048.604492	7511.930176	47.352627
449.840515	726.457764	14786.687500	7422.767090	47.625893
450.197388	719.176025	14614.007813	7360.130371	47.794418
450.554230	722.668274	14483.235352	7289.839844	47.724567
450.911041	725.491760	14394.815430	7228.020020	47.570229
451.267822	725.937683	14322.293945	7206.546875	47.664310
451.624573	724.674500	14185.801758	7161.816895	47.820236
451.981262	716.575439	14086.012695	7146.732910	48.095943
452.337921	717.615662	13967.351563	7091.972168	48.109306
452.694580	714.123474	13902.187500	7079.266113	48.264420
453.051147	716.649719	13931.536133	7091.674316	48.241234
453.407715	716.501160	13896.762695	7090.411621	48.359516
453.764221	719.696106	13948.179688	7111.513672	48.318596
454.120728	723.411316	13827.364258	7058.833496	48.347412
454.477142	721.627991	13806.784180	7038.919922	48.278309
454.833557	722.816895	13694.808594	6982.970215	48.258999
455.189911	723.857178	13571.093750	6944.406250	48.419353
455.546265	727.497986	13421.523438	6901.979980	48.640850
455.902557	727.646545	13309.549805	6871.961426	48.834541
456.258820	720.959290	13323.964844	6897.150391	49.005699
456.615051	718.061462	13378.429688	6947.007324	49.200352
456.971252	722.965515	13363.493164	6969.074707	49.413361
457.327393	730.990234	13458.601563	7024.058594	49.444221
457.683502	733.962341	13635.291992	7098.287109	49.330765
458.039612	729.429871	13994.174805	7254.174316	49.188618
458.395630	728.983948	14305.651367	7424.476563	49.316174
458.751648	728.538086	14641.424805	7599.682129	49.386906
459.107605	721.256531	15080.406250	7844.138184	49.605179
459.463562	720.662109	15574.221680	8078.638184	49.536785
459.819458	717.392822	16056.594727	8309.124023	49.492348
460.175323	716.798340	16471.501953	8507.586914	49.450558
460.531158	718.432922	16925.490234	8709.839844	49.308189
460.886932	719.919006	17259.408203	8874.866211	49.305923
461.242676	719.547546	17508.248047	8968.635742	49.134758
461.598419	716.501160	17497.845703	8955.632813	49.096973
461.954102	716.724060	17263.123047	8854.729492	49.182941
462.309723	729.949951	16859.138672	8661.839844	49.177238
462.665344	733.888000	16372.602539	8428.677734	49.203465
463.020905	737.380188	15941.277344	8238.537109	49.337067
463.376373	730.841614	15580.389648	8097.882813	49.611214
463.731873	726.829285	15266.014648	7989.326172	49.951195
464.087341	726.011902	15035.081055	7879.729004	49.994289
464.442749	726.160583	14889.745117	7813.451660	50.038822
464.798126	726.234863	14784.085938	7760.696777	50.039383
465.153503	723.336914	14841.372070	7799.185547	50.119217
465.508820	716.426819	14851.776367	7816.943848	50.232342
465.864105	712.117249	14946.734375	7898.825684	50.487545
466.219330	714.494934	15146.238281	8008.198730	50.539310
466.574524	718.581543	15344.477539	8091.640625	50.410988
466.929657	722.891113	15539.226563	8158.364746	50.184296
467.284790	725.640381	15693.403320	8253.843750	50.296116
467.639893	724.154297	15821.204102	8353.855469	50.537697
467.994934	724.897278	16082.971680	8478.088867	50.482838
468.349945	723.411316	16210.698242	8495.475586	50.183510
468.704926	720.736328	16287.899414	8523.562500	50.123623
469.059875	719.176025	16139.516602	8469.692383	50.261642
469.414764	715.089355	15990.243164	8428.974609	50.499557
469.769653	719.547546	15840.820313	8347.464844	50.444942
470.124451	720.067627	15734.937500	8299.465820	50.479282
470.479248	717.541321	15620.437500	8241.807617	50.488617
470.834015	717.169922	15533.429688	8205.174805	50.539104
471.188721	722.371094	15553.342773	8234.451172	50.651302
471.543365	726.234863	15604.834961	8256.147461	50.609013
471.898010	729.058350	15686.195313	8320.344727	50.753605
472.252625	724.080078	15822.838867	8379.192383	50.700275
472.607178	726.903503	15983.183594	8517.692383	51.066113
472.961700	726.011902	16173.622070	8609.976563	51.036793
473.316193	728.166687	16413.619141	8719.424805	50.946941
473.670654	727.572266	16589.494141	8789.120117	50.823273
474.025055	728.389465	16808.685547	8915.955078	50.916759
474.379456	726.457581	17004.919922	9024.957031	50.978397
474.733795	718.878845	17188.669922	9120.732422	51.013721
475.088104	713.306091	17378.886719	9232.706055	51.119736
475.442383	713.826233	17377.845703	9280.038086	51.405437
475.796570	721.776672	17457.572266	9333.460938	51.456680
476.150787	725.566101	17524.371094	9364.446289	51.425564
476.504944	723.114075	17705.447266	9456.729492	51.427650
476.859070	719.473206	17901.310547	9534.749023	51.305779
477.213135	726.606262	18121.320313	9639.663086	51.240028
477.567200	729.875549	18423.955078	9790.869141	51.209179
477.921173	728.315247	18732.904297	9989.852539	51.439869
478.275146	721.256531	19141.123047	10214.915039	51.540318
478.629089	722.371094	19444.353516	10388.040039	51.627380
478.983002	723.262695	19814.753906	10571.344727	51.583614
479.336823	722.816895	20138.861328	10719.133789	51.484825
479.690643	721.925232	20502.349609	10913.880859	51.525467
480.044403	724.823059	20908.710938	11115.166992	51.478405
480.398163	723.559875	21426.675781	11441.429688	51.769360
480.751862	720.587708	22152.166016	11823.272461	51.805260
481.105499	722.742493	23046.326172	12342.127930	52.049824
481.459137	727.200684	24208.419922	12982.989258	52.194008
481.812744	728.018066	25597.287109	13808.343750	52.596344
482.166290	723.782898	27302.978516	14774.799805	52.864719
482.519806	724.005676	29321.337891	15934.367188	53.188042
482.873291	727.869446	31688.771484	17197.068359	53.193539
483.226715	729.206970	34352.972656	18635.791016	53.255737
483.580139	718.878723	37052.539063	20066.564453	53.250031
483.933502	721.999512	39992.996094	21626.625000	53.231716
484.286804	731.435974	42836.859375	23092.468750	53.107254
484.640106	737.305847	45566.074219	24488.837891	52.982788
484.993347	730.693054	47640.675781	25555.380859	52.919838
485.346558	721.033630	48884.656250	26195.423828	52.891354
485.699738	721.479492	49043.066406	26239.857422	52.809483
486.052887	718.804504	48244.457031	25824.505859	52.825581
486.405975	719.473206	46833.300781	25103.250000	52.877365
486.759064	719.993347	45016.156250	24175.060547	52.950558
487.112061	732.699158	43216.621094	23212.392578	52.913414
487.464996	729.652649	41803.679688	22415.794922	52.797703
487.817963	725.789001	41069.566406	21976.740234	52.674667
488.170868	712.934570	40851.710938	21800.568359	52.536808
488.523743	718.210144	40998.085938	21849.607422	52.461426
488.876587	710.408386	41222.480469	21915.810547	52.343418
489.229401	716.426758	41287.644531	21914.101563	52.248062
489.582153	705.058411	40882.699219	21738.970703	52.352283
489.934845	710.631165	40110.468750	21406.095703	52.526779
490.287537	706.990417	39139.625000	20975.509766	52.737785
490.640198	718.061523	38262.410156	20542.474609	52.802658
490.992798	718.953125	37500.656250	20132.992188	52.781784
491.345337	727.497986	37025.417969	19883.408203	52.774124
491.697876	732.253357	36762.089844	19729.751953	52.727127
492.050354	746.222229	36981.800781	19785.923828	52.544216
492.402832	745.033386	37332.363281	19892.548828	52.333736
492.755219	742.878601	37589.671875	19920.931641	52.048092
493.107605	729.504150	37402.425781	19831.693359	52.087994
493.459930	722.222473	36855.933594	19512.564453	52.002247
493.812225	718.655945	35841.402344	18972.458984	51.971458
494.164490	717.838562	34416.058594	18243.173828	52.006714
494.516724	723.857117	32655.154297	17412.544922	52.264359
494.868896	720.513489	30925.312500	16539.490234	52.372395
495.221039	725.714661	29468.830078	15778.034180	52.368435
495.573120	717.244141	28261.708984	15112.059570	52.260284
495.925201	732.401855	27520.837891	14783.046875	52.450413
496.277222	737.305847	27037.943359	14549.737305	52.517479
496.629211	739.757874	26861.177734	14478.778320	52.596760
496.981140	722.816895	26752.470703	14411.163086	52.587505
497.333069	722.371094	26822.835938	14417.180664	52.469601
497.684967	727.646545	26881.833984	14447.125000	52.456146
498.036804	726.754883	26952.867188	14486.875977	52.467251
498.388580	722.891174	26927.009766	14494.678711	52.555809
498.740326	713.529053	26929.833984	14492.002930	52.556889
499.092072	712.117249	26795.937500	14401.502930	52.482288
499.443756	715.015076	26567.607422	14268.574219	52.426308
499.795410	721.999512	26296.103516	14125.616211	52.410896
500.147003	733.665100	25981.208984	13963.190430	52.399258
500.498566	728.538147	25673.001953	13806.784180	52.429455
500.850098	731.956116	25353.275391	13613.000977	52.316635
501.201599	732.773438	25087.794922	13498.204102	52.413960
501.553009	739.980774	24815.921875	13366.242188	52.443481
501.904449	736.265625	24599.701172	13296.026367	52.631821
502.255859	736.191345	24443.812500	13201.067383	52.577507
502.607178	730.470032	24357.546875	13199.581055	52.774670
502.958405	734.110840	24267.865234	13174.245117	52.860817
503.309692	722.816895	24186.353516	13156.262695	52.990498
503.660919	719.324707	24213.025391	13134.492188	52.844666
504.012115	717.021301	24239.330078	13138.653320	52.807877
504.363251	728.761047	24314.080078	13183.977539	52.809196
504.714294	727.646545	24314.822266	13205.526367	52.901119
505.065369	728.835388	24387.119141	13230.340820	52.841984
505.416443	726.160461	24451.390625	13231.084961	52.707283
505.767395	736.117126	24518.783203	13261.250977	52.664970
506.118317	733.813660	24511.947266	13248.323242	52.630329
506.469238	727.423584	24516.259766	13283.171875	52.780003
506.820160	718.433044	24515.068359	13293.648438	52.844513
507.170929	726.606262	24578.896484	13341.946289	52.889427
507.521729	727.497864	24640.044922	13358.960938	52.823578
507.872498	722.891113	24748.677734	13412.831055	52.817997
508.223236	715.832336	24864.439453	13470.117188	52.815819
508.573883	715.015137	25005.763672	13542.117188	52.806530
508.924500	725.268860	25156.968750	13612.926758	52.749741
509.275116	728.761047	25318.650391	13711.081055	52.795361
509.625702	729.429871	25512.138672	13834.573242	52.880188
509.976196	729.949890	25750.203125	13968.167969	52.910007
510.326660	728.983948	26007.291016	14124.799805	52.993324
510.677124	732.624756	26257.837891	14256.018555	52.980534
511.027557	736.860046	26456.822266	14399.644531	53.121323
511.377869	733.888000	26658.257813	14511.469727	53.145294
511.728180	736.265625	26780.853516	14596.769531	53.218365
512.078430	728.909668	26911.775391	14662.453125	53.216267
512.428650	722.891174	26987.416016	14702.055664	53.224506
512.778931	715.535217	27081.853516	14743.963867	53.205868
513.129028	716.724060	27152.072266	14747.679688	53.076496
513.479126	718.581604	27236.554688	14776.656250	53.013382
513.829285	726.160461	27317.244141	14783.417969	52.864555
514.179382	727.943665	27342.880859	14799.022461	52.869106
514.529297	729.206848	27331.810547	14780.668945	52.819874
514.879272	721.256409	27344.068359	14841.448242	53.037941
515.229187	715.683777	27276.826172	14820.718750	53.104023
515.579163	719.324646	27295.400391	14866.339844	53.232147
515.928955	715.535156	27295.548828	14852.743164	53.187363
516.278748	718.210144	27469.937500	14936.629883	53.149540
516.628540	715.238037	27678.281250	15049.644531	53.163162
516.978333	720.959290	27983.740234	15235.698242	53.240128
517.327942	725.194519	28340.468750	15478.075195	53.422905
517.677612	726.309082	28801.218750	15738.133789	53.470604
518.027222	724.971680	29323.939453	16008.075195	53.439350
518.376831	725.640381	29946.375000	16332.851563	53.411427
518.726379	724.748718	30522.517578	16640.318359	53.411949
519.075867	724.302917	31028.445313	16891.087891	53.348434
519.425293	727.052063	31512.078125	17117.712891	53.242313
519.774658	724.600159	31866.724609	17253.537109	53.075817
520.124084	730.247131	32076.781250	17375.693359	53.101391
520.473389	725.640381	32032.201172	17342.255859	53.077103
520.822693	727.869446	31863.531250	17264.609375	53.111897
521.171997	730.395691	31540.763672	17115.113281	53.179234
521.521240	731.733154	31202.312500	16952.390625	53.233829
521.870361	732.550476	30808.734375	16770.642578	53.324890
522.219482	729.058289	30542.802734	16586.894531	53.189682
522.568604	725.566101	30234.447266	16405.445313	53.136135
522.917664	715.832336	30026.994141	16288.790039	53.129787
523.266724	715.237976	29900.751953	16238.710938	53.188965
523.615662	715.683777	30034.718750	16347.563477	53.316486
523.964600	728.315247	30330.443359	16531.017578	53.383667
524.313538	726.309082	30793.351563	16797.541016	53.451324
524.662354	732.773438	31304.033203	17111.693359	53.576202
525.011169	737.008728	32028.562500	17504.531250	53.584820
525.359985	741.020996	32827.984375	17987.945313	53.750565
525.708740	736.414246	33832.332031	18528.943359	53.760494
526.057434	738.643311	34949.773438	19182.437500	53.911682
526.406067	730.692932	36279.269531	19924.572266	53.993382
526.754700	724.748779	37780.261719	20765.529297	54.083134
527.103333	720.067688	39501.332031	21756.134766	54.242855
527.451782	721.182190	41415.371094	22880.632813	54.453602
527.800293	732.773438	43362.917969	23991.904297	54.560291
528.148743	722.148132	45291.449219	25114.617188	54.729305
528.497131	720.736328	47091.136719	26186.062500	54.917202
528.845642	714.940735	48792.449219	27226.447266	55.143261
529.193909	716.946960	50341.136719	28106.490234	55.193932
529.542175	711.597168	51640.390625	28814.818359	55.181400
529.890503	707.733398	52523.328125	29330.625000	55.239918
530.238770	714.197754	52831.531250	29509.025391	55.250004
530.586914	727.200684	52720.824219	29368.968750	55.087074
530.934998	722.593933	51970.144531	28847.068359	54.879646
531.283142	722.445313	50811.105469	28117.634766	54.693398
531.631226	722.222412	49007.175781	27059.712891	54.545959
531.979248	732.847717	47010.144531	25875.404297	54.330219
532.327148	732.401917	44964.074219	24708.404297	54.205505
532.675110	730.915833	43314.472656	23764.462891	54.090237
533.023071	730.544250	42253.281250	23163.650391	54.026073
533.370850	731.213074	41752.777344	22827.281250	53.864521
533.718689	723.114075	41808.730469	22802.017578	53.738766
534.066467	718.135925	42037.582031	22861.164063	53.589848
534.414246	719.176086	42262.347656	22969.943359	53.560589
534.761963	724.600098	42373.429688	23030.724609	53.557629
535.109619	731.881836	42431.609375	23051.007813	53.523434
535.457153	734.110840	42218.363281	22926.773438	53.496593
535.804749	739.534973	41639.246094	22650.664063	53.572823
536.152344	733.813660	40845.320313	22243.484375	53.624687
536.499817	728.686829	39882.875000	21743.875000	53.672897
536.847229	724.451477	38920.878906	21157.701172	53.495190
537.194641	722.148132	37995.363281	20606.078125	53.346432
537.542114	720.662109	37349.750000	20160.853516	53.073101
537.889404	720.513489	36892.714844	19860.001953	52.912144
538.236694	722.371094	36538.363281	19683.087891	52.939247
538.583984	725.566101	36284.691406	19593.033203	53.059425
538.931213	726.086182	36114.761719	19582.109375	53.282646
539.278381	722.891113	36002.714844	19591.474609	53.482647
539.625488	718.210144	35900.921875	19597.341797	53.660252
539.972595	717.467102	35950.035156	19721.054688	53.937565
540.319641	709.888184	36259.953125	19926.205078	54.054234
540.666687	710.556946	36799.242188	20266.958984	54.189846
541.013611	710.408386	37688.347656	20712.404297	54.091702
541.360596	717.095520	38732.746094	21232.523438	53.965740
541.707458	715.981018	40031.851563	21842.771484	53.736038
542.054260	718.210144	41243.730469	22450.861328	53.627075
542.401062	724.451599	42419.644531	23056.875000	53.561150
542.747864	726.160461	43312.097656	23530.630859	53.549297
543.094666	726.309082	43824.343750	23763.046875	53.451946
543.441284	728.092346	43770.027344	23711.111328	53.396809
543.787903	727.572266	43307.937500	23436.562500	53.332069
544.134460	728.389587	42395.277344	22908.048828	53.230904
544.481079	722.668274	41192.460938	22221.712891	53.123684
544.827637	726.829285	39689.691406	21386.478516	53.023949
545.174072	723.857117	38105.480469	20541.580078	53.014610
545.520508	723.485596	36716.839844	19797.140625	52.992153
545.866943	718.730225	35478.957031	19159.921875	53.052563
546.213318	722.296692	34539.097656	18657.041016	53.035011
546.559631	723.262695	33726.527344	18215.162109	53.000507
546.905823	723.337097	33061.441406	17812.740234	52.846024
547.252136	720.736389	32523.861328	17516.419922	52.811424
547.598389	718.507324	32056.275391	17264.757813	52.799709
547.944458	716.575500	31740.859375	17108.126953	52.834583
548.290588	715.089355	31368.306641	16879.349609	52.732670
548.636658	719.473328	30905.771484	16604.205078	52.622322
548.982727	726.680664	30299.685547	16275.415039	52.577461
549.328735	730.841614	29731.789063	15975.902344	52.567459
549.674622	726.903503	29099.916016	15641.911133	52.567589
550.020569	726.531982	28502.748047	15302.645508	52.476955
550.366455	729.578430	27778.072266	14923.922852	52.477394
550.712280	728.538147	27131.341797	14587.629883	52.490986
551.058044	726.903503	26562.703125	14284.698242	52.476780
551.403748	721.405090	26057.443359	14051.238281	52.612144
551.749512	723.782776	25730.140625	13879.079102	52.607807
552.095154	722.371094	25497.275391	13756.108398	52.608627
552.440735	732.699158	25416.880859	13669.249023	52.408260
552.786316	733.219238	25338.492188	13631.131836	52.419300
553.131897	732.624817	25334.330078	13639.527344	52.463448
553.477417	717.318420	25356.396484	13660.925781	52.532841
553.822815	716.575439	25389.833984	13660.926758	52.463081
554.168213	718.061523	25414.650391	13627.491211	52.272114
554.513672	721.330872	25383.517578	13583.726563	52.154316
554.859009	719.324646	25273.177734	13546.278320	52.240086
555.204285	719.621887	25099.906250	13485.795898	52.362694
555.549500	715.758118	24898.544922	13375.752930	52.351265
555.894714	724.302917	24720.218750	13262.144531	52.249897
556.239990	722.816895	24462.685547	13151.506836	52.353657
556.585022	730.395752	24209.015625	13055.136719	52.493465
556.930115	724.525879	23925.552734	12902.295898	52.488060
557.275146	728.538269	23680.203125	12744.625000	52.353882
557.620178	724.377258	23486.125000	12620.020508	52.261555
557.965149	723.039734	23303.193359	12530.335938	52.290588
558.310059	720.439148	23138.312500	12459.450195	52.364517
558.654968	723.039795	22969.201172	12404.541992	52.510189
558.999756	718.210144	22886.130859	12368.208008	52.553410
559.344604	722.222473	22848.013672	12327.043945	52.449295
559.689331	724.971680	22796.890625	12266.562500	52.290836
560.033997	729.578430	22684.916016	12225.843750	52.362053
560.378723	725.789001	22645.015625	12191.887695	52.310688
560.723389	720.736389	22634.687500	12192.481445	52.349049
561.067932	718.433044	22713.896484	12217.002930	52.277008
561.412476	721.627991	22689.599609	12234.389648	52.407032
561.757019	726.011902	22717.460938	12230.821289	52.314922
562.101501	731.956055	22710.179688	12217.670898	52.259525
562.445862	730.098450	22733.437500	12221.832031	52.227222
562.790222	728.389465	22733.958984	12219.676758	52.219902
563.134644	728.463806	22720.955078	12215.070313	52.229671
563.478943	734.036438	22735.146484	12206.004883	52.142685
563.823181	727.200684	22770.664063	12200.730469	52.049576
564.167358	727.349304	22807.740234	12213.434570	52.019394
564.511536	721.999512	22849.796875	12237.956055	52.042946
564.855774	731.956055	22830.476563	12255.862305	52.147865
565.199768	729.132568	22896.531250	12261.879883	52.025711
565.543823	721.850891	22951.960938	12292.715820	52.050419
565.887817	717.912903	23140.244141	12366.127930	51.949169
566.231812	719.919128	23267.525391	12458.708008	52.062244
566.575745	728.315247	23499.646484	12565.852539	51.984386
566.919617	724.154297	23689.787109	12643.350586	51.900143
567.263428	725.714661	23885.351563	12717.950195	51.780758
567.607239	721.702332	24058.404297	12783.487305	51.685905
567.950989	724.525818	24132.408203	12859.944336	51.843300
568.294678	719.844727	24209.757813	12900.883789	51.856464
568.638367	717.689941	24096.521484	12867.299805	51.968418
568.981995	716.129639	24022.218750	12805.256836	51.871109
569.325623	726.234802	23867.000000	12727.015625	51.859913
569.669128	733.813660	23757.923828	12650.929688	51.759293
570.012573	734.482422	23614.000000	12579.524414	51.771381
570.356140	727.200745	23580.562500	12549.803711	51.732445
570.699524	717.987122	23511.906250	12540.664063	51.867676
571.042908	723.782776	23520.677734	12559.090820	51.916317
571.386230	718.358704	23580.640625	12573.803711	51.855915
571.729492	727.275085	23690.310547	12628.713867	51.828682
572.072815	721.850891	23848.646484	12697.442383	51.782322
572.416016	726.086243	23908.978516	12751.757813	51.873043
572.759094	723.336975	24048.671875	12771.300781	51.651840
573.102234	722.816895	24117.548828	12800.352539	51.625019
573.445374	718.878906	24194.376953	12823.609375	51.563251
573.788391	715.906738	24226.177734	12868.934570	51.692417
574.131409	717.169861	24279.083984	12851.918945	51.501541
574.474365	719.250305	24297.138672	12861.429688	51.498165
574.817261	721.256531	24192.890625	12811.274414	51.509056
575.160156	721.330811	24023.630859	12757.702148	51.653145
575.502930	718.433044	23805.775391	12619.722656	51.548985
575.845703	720.810730	23636.734375	12522.757813	51.501076
576.188477	735.002502	23419.177734	12378.909180	51.330524
576.531250	734.036621	23223.242188	12292.344727	51.394917
576.873901	728.389587	22974.548828	12169.002930	51.427361
577.216431	715.609558	22722.439453	12046.625000	51.488632
577.559082	716.649719	22459.705078	11884.867188	51.364529
577.901611	717.541321	22224.017578	11727.272461	51.192631
578.244080	718.061523	22005.345703	11595.534180	51.098450
578.586487	726.977844	21728.271484	11471.077148	51.159229
578.928955	767.472839	21454.093750	11372.922852	51.267193
579.271301	763.460449	21100.857422	11207.227539	51.352531
579.613647	755.658691	20740.341797	11000.887695	51.265404
579.955872	716.278259	20392.455078	10778.426758	51.138737
580.298157	717.912903	20104.978516	10634.577148	51.150925
580.640320	721.033508	19884.968750	10547.271484	51.274635
580.982483	723.559875	19662.728516	10417.910156	51.186783
581.324524	723.336975	19465.677734	10319.831055	51.202221
581.666626	729.058289	19282.892578	10220.191406	51.154564
582.008728	727.646484	19133.544922	10177.393555	51.340862
582.350647	730.470032	19011.169922	10113.417969	51.327076
582.692566	727.423645	18953.435547	10070.024414	51.259708
583.034424	723.782776	18910.042969	10014.594727	51.086983
583.376343	720.959290	18843.023438	9976.625977	51.074020
583.718201	719.027527	18774.662109	9930.632813	51.017899
584.059937	719.993347	18675.466797	9899.127930	51.121655
584.401611	715.015137	18606.218750	9870.448242	51.172821
584.743347	712.191589	18529.685547	9827.575195	51.159740
585.085022	707.882019	18476.189453	9775.860352	51.034569
585.426514	715.015137	18363.916016	9728.975586	51.073784
585.768127	714.643555	18261.898438	9677.558594	51.078732
586.109619	714.420654	18156.537109	9628.147461	51.104614
586.451172	708.625061	18144.873047	9579.552734	50.876358
586.792542	711.448547	18121.466797	9544.854492	50.737492
587.133850	721.999573	18121.914063	9535.268555	50.651218
587.475220	725.045959	18100.216797	9523.750977	50.639534
587.816589	725.491760	18054.966797	9527.020508	50.789356
588.157776	722.668274	18072.353516	9559.268555	50.932339
588.498962	729.132629	18123.400391	9577.546875	50.869713
588.840210	720.142029	18153.492188	9598.202148	50.925732
589.181335	726.754883	18217.320313	9622.350586	50.859390
589.522400	724.377197	18224.525391	9648.208008	50.992889
589.863403	729.875671	18306.408203	9687.217773	50.961937
590.204407	726.754883	18288.576172	9650.437500	50.812969
590.545410	729.132568	18367.039063	9642.264648	50.533955
590.886353	741.987000	18389.849609	9638.995117	50.414078
591.227112	737.825989	18399.210938	9619.825195	50.290501
591.567932	732.179016	18358.269531	9601.100586	50.317013
591.908752	728.240967	18278.171875	9562.313477	50.336792
592.249512	730.470032	18282.705078	9568.257813	50.351357
592.590149	731.436035	18207.064453	9557.039063	50.502350
592.930786	729.504150	18162.111328	9532.667969	50.498264
593.271423	723.559875	18046.568359	9474.265625	50.514935
593.612000	723.411316	17934.818359	9400.928711	50.417248
593.952576	718.804504	17897.814453	9346.614258	50.222973
594.292969	719.250305	17882.732422	9348.842773	50.278797
594.633484	717.541321	17962.904297	9388.074219	50.277473
594.973877	718.358704	18033.791016	9451.305664	50.434475
595.314209	728.761169	18145.615234	9503.020508	50.377983
595.654480	729.652771	18286.642578	9581.929688	50.420242
595.994812	731.361755	18443.496094	9657.421875	50.395172
596.335022	725.566101	18642.626953	9775.563477	50.510502
596.675171	727.275085	18764.037109	9849.940430	50.578175
597.015320	722.519714	18923.044922	9901.505859	50.432533
597.355408	728.315247	19015.031250	9914.731445	50.235458
597.695496	722.073914	19173.148438	9937.839844	49.947041
598.035461	720.142029	19187.044922	9965.628906	50.065178
598.375366	711.299988	19227.539063	9970.086914	50.003609
598.715271	720.810730	19185.484375	9972.911133	50.107037
599.055176	730.841492	19076.556641	9909.976563	50.034218
599.395081	730.098450	18905.212891	9829.581055	50.065609
599.734802	731.956055	18651.990234	9664.628906	49.847408
600.074524	726.680603	18374.691406	9503.912109	49.734959
600.414246	730.395691	18018.560547	9348.842773	49.851719
600.753906	728.166687	17672.457031	9183.221680	49.899136
601.093506	726.531982	17320.412109	9010.988281	49.924767
601.433044	728.761047	17075.287109	8863.348633	49.763401
601.772583	732.996399	16888.710938	8777.380859	49.792809
602.112122	739.014893	16850.072266	8728.786133	49.591850
602.451538	730.395813	16836.402344	8709.319336	49.540047
602.790894	728.315369	16900.005859	8717.938477	49.404995
603.130310	728.315247	16994.962891	8798.780273	49.613571
603.469604	732.104736	17149.812500	8892.920898	49.707405
603.808838	720.513489	17357.933594	9028.597656	49.936131
604.148010	723.708496	17604.693359	9146.367188	49.894356
604.487305	727.943787	17835.626953	9242.217773	49.768715
604.826416	734.110840	18046.349609	9330.712891	49.656212
605.165527	725.789001	18246.296875	9425.820313	49.656273
605.504456	723.485596	18442.380859	9499.304688	49.528030
605.843445	726.309082	18580.064453	9549.905273	49.421509
606.182434	729.504150	18687.208984	9561.868164	49.184261
606.521423	732.104736	18645.228516	9573.756836	49.358521
606.860229	729.578430	18548.337891	9522.190430	49.344692
607.199036	730.024231	18376.994141	9428.124023	49.289478
607.537903	728.761047	18198.966797	9323.579102	49.197010
607.876648	727.572266	17945.294922	9207.964844	49.253857
608.215271	720.885010	17642.212891	9079.124023	49.394699
608.553955	717.615723	17330.960938	8940.995117	49.498631
608.892578	725.937683	17085.689453	8822.483398	49.490639
609.231140	726.234863	16892.947266	8718.755859	49.438133
609.569641	725.491699	16780.304688	8634.496094	49.262516
609.908081	716.352539	16749.988281	8577.876953	49.031452
610.246521	724.525818	16790.185547	8567.400391	48.817631
610.584961	728.463867	16829.123047	8571.561523	48.712898
610.923340	726.754883	16829.492188	8583.079102	48.788750
611.261597	723.559875	16762.546875	8571.414063	48.929859
611.599854	718.135742	16723.091797	8525.047852	48.778091
611.938110	721.627991	16651.166016	8466.126953	48.617222
612.276245	720.364807	16511.031250	8411.959961	48.709759
612.614319	723.782776	16244.061523	8303.625977	48.838322
612.952393	723.782898	15944.843750	8155.244141	48.823547
613.290466	728.612488	15622.742188	7973.202637	48.640575
613.628479	722.891174	15321.518555	7830.837891	48.689144
613.966370	727.795105	15020.666992	7724.733887	48.954044
614.304260	720.959290	14788.543945	7615.508301	49.010181
614.642151	722.073914	14581.686523	7505.317871	48.942524
614.979980	715.015137	14417.699219	7406.123535	48.830643
615.317749	714.420654	14259.210938	7332.341309	48.859531
615.655396	723.114075	14167.968750	7280.774902	48.774502
615.993164	718.953125	14052.575195	7210.558594	48.685986
616.330811	724.823059	14006.879883	7172.664063	48.545502
616.668396	711.820129	13922.916992	7150.224609	48.734821
617.005859	723.559875	13938.745117	7146.881348	48.605610
617.343445	720.662109	13938.000977	7141.011719	48.575207
617.680908	730.990173	13984.515625	7143.018066	48.379791
618.018311	726.531982	13994.843750	7161.890625	48.501713
618.355652	724.005676	14019.140625	7160.032715	48.408886
618.692993	725.789001	14038.980469	7154.088379	48.285187
619.030273	727.497864	14045.370117	7159.067871	48.292774
619.367554	733.665039	14033.182617	7142.349121	48.187344
619.704712	729.875671	13996.625977	7143.389160	48.342766
620.041870	733.144958	13989.566406	7126.374512	48.227413
620.379028	727.572266	13983.920898	7130.535156	48.301105
620.716064	730.544373	13966.534180	7101.630859	48.134567
621.053040	720.662109	13905.233398	7079.711426	48.230991
621.389954	718.284363	13814.137695	7057.197754	48.403973
621.726929	714.494934	13728.765625	7023.835938	48.480171
622.063843	719.176025	13662.188477	6979.254395	48.366467
622.400635	723.782776	13623.254883	6930.585938	48.116726
622.737427	727.275085	13600.444336	6890.388184	47.875648
623.074219	724.600159	13540.928711	6864.531250	47.907101
623.410889	728.092346	13486.539063	6839.268066	47.899059
623.747559	722.891174	13466.328125	6831.764160	47.937408
624.084167	734.333801	13464.768555	6812.445313	47.744728
624.420715	725.343201	13444.112305	6794.166504	47.715488
624.757324	727.646545	13421.151367	6798.401855	47.825684
625.093750	723.039734	13433.411133	6799.292969	47.805477
625.430176	728.686768	13456.073242	6816.085938	47.829140
625.766602	736.340027	13462.463867	6811.998535	47.741627
626.102905	729.652649	13516.036133	6851.230469	47.875755
626.439209	724.377197	13601.929688	6912.604980	48.054375
626.775452	716.055359	13714.276367	6955.775391	48.004417
627.111694	715.237976	13789.171875	6961.942871	47.779842
627.447876	718.581604	13858.424805	6953.843262	47.453091
627.783997	716.203918	13925.445313	6983.712402	47.447906
628.120056	719.324646	14022.112305	7017.966309	47.348282
628.456055	721.627991	14068.625977	7026.287598	47.236538
628.792053	721.182190	14053.022461	7004.294434	47.128620
629.128052	719.398926	13962.596680	6956.220703	47.094532
629.463928	718.730225	13858.200195	6918.400391	47.183563
629.799744	726.011902	13752.690430	6866.463379	47.137508
630.135559	722.891113	13635.812500	6816.457520	47.189678
630.471375	718.433044	13492.706055	6756.271973	47.265614
630.807068	721.256531	13346.477539	6688.953613	47.268063
631.142700	724.080078	13236.731445	6619.629395	47.116707
631.478333	729.652771	13102.838867	6526.230957	46.847900
631.813965	719.993408	12986.109375	6466.937500	46.852192
632.149475	715.683838	12792.997070	6403.705566	47.096745
632.484924	717.615723	12713.641602	6379.779785	47.200333
632.820435	723.485596	12605.828125	6340.399902	47.271099
633.155884	732.699158	12558.942383	6312.388184	47.180569
633.491150	742.284180	12498.534180	6276.500000	47.074669
633.826477	745.776428	12454.027344	6234.443848	46.878628
634.161804	736.265686	12386.040039	6196.178223	46.867111
634.497009	722.593994	12286.252930	6161.775879	47.036854
634.832153	708.253601	12186.834961	6117.193848	47.122028
635.167297	707.882080	12130.586914	6091.039551	47.126816
635.502380	711.597168	12080.136719	6048.539063	46.944836
635.837463	718.878845	12008.359375	6014.879395	46.910931
636.172424	725.343079	11925.289063	5967.251465	46.802975
636.507324	726.309082	11832.485352	5923.710449	46.797398
636.842224	727.720886	11761.229492	5878.533691	46.683365
637.177124	730.470032	11660.401367	5815.005371	46.519367
637.511963	726.309082	11538.840820	5746.646484	46.430733
637.846741	721.330811	11405.020508	5691.885254	46.524700
638.181396	709.813904	11251.808594	5636.976074	46.738422
638.516113	707.882019	11151.278320	5605.322754	46.895096
638.850769	717.689941	11029.421875	5549.076172	46.853294
639.185303	726.532043	10980.827148	5518.017578	46.726620
639.519836	725.566101	10914.475586	5469.645996	46.561218
639.854370	715.683838	10826.872070	5428.407715	46.608997
640.188843	717.764343	10715.715820	5378.699707	46.618908
640.523254	720.067688	10588.954102	5317.771484	46.587864
640.857605	723.931396	10525.575195	5276.979492	46.451881
641.191895	716.055359	10454.319336	5239.604980	46.451298
641.526184	716.352539	10411.965820	5214.341797	46.392002
641.860413	712.340149	10340.040039	5173.475586	46.336456
642.194580	713.454773	10264.995117	5141.153809	46.355865
642.528748	715.312317	10165.206055	5108.014648	46.484146
642.862793	720.662109	10119.956055	5075.841797	46.335178
643.196838	723.039795	10083.547852	5048.572266	46.210445
643.530823	730.544373	10049.815430	5018.331543	46.009895
643.864746	730.247131	9970.831055	5010.975098	46.325298
644.198669	736.117004	9907.896484	4973.601074	46.201328
644.532532	728.983948	9873.642578	4951.384766	46.173412
644.866333	732.327637	9840.354492	4922.332520	46.003429
645.200073	732.179016	9838.794922	4922.257813	46.011368
645.533813	729.058289	9816.503906	4899.669922	45.894215
645.867554	723.411316	9814.051758	4884.512207	45.773464
646.201172	721.033508	9775.636719	4855.533691	45.661858
646.534729	724.080017	9797.333008	4879.682129	45.800575
646.868225	721.627991	9813.011719	4882.357422	45.765636
647.201782	712.265930	9816.950195	4881.242676	45.789356
647.535217	713.008972	9790.944336	4854.568359	45.622261
647.868591	718.953125	9795.253906	4856.871582	45.590363
648.201965	729.281189	9812.268555	4867.273926	45.557617
648.535278	728.612488	9807.364258	4854.865723	45.449566
648.868591	728.761047	9783.736328	4848.549805	45.497513
649.201782	720.662109	9746.734375	4829.379395	45.520546
649.534912	722.742493	9721.992188	4840.450684	45.756123
649.868103	717.392761	9695.390625	4804.934082	45.528427
650.201172	719.993408	9674.437500	4786.507324	45.413357
650.534180	718.953125	9636.541992	4759.015137	45.304420
650.867188	720.959290	9607.563477	4753.441895	45.377090
651.200134	724.080017	9568.407227	4744.971191	45.462940
651.533020	721.107910	9532.816406	4734.049316	45.541012
651.865845	730.544434	9493.659180	4704.848145	45.352634
652.198608	735.225403	9461.411133	4665.393555	45.038788
652.531433	735.968445	9429.015625	4626.087402	44.749775
652.864136	729.058289	9357.833008	4603.350586	44.899681
653.196777	1342.947388	9988.440430	4985.786621	42.135704
653.529358	1369.473511	9957.307617	4979.768066	42.039639
653.861938	1370.216431	9914.658203	4966.319824	42.087051
654.194519	754.246887	9174.602539	4529.419434	44.833885
654.526978	740.872375	9110.851563	4493.902832	44.839184
654.859375	737.083008	9049.774414	4457.345703	44.754009
655.191833	733.665100	9017.675781	4445.977051	44.812981
655.524170	725.863281	8954.145508	4426.436035	44.973820
655.856445	730.395752	8930.963867	4398.869629	44.734386
656.188660	751.646301	8909.194336	4412.243652	44.873749
656.520874	750.606140	8872.414063	4387.946777	44.784863
656.853088	748.897156	8860.154297	4380.665527	44.774418
657.185181	726.532043	8800.860352	4333.111328	44.667236
657.517212	720.513489	8821.665039	4322.188965	44.458809
657.849243	719.176025	8854.358398	4338.164063	44.485641
658.181274	719.919128	8941.738281	4377.470215	44.485909
658.513123	716.278259	8977.032227	4408.231934	44.692696
658.844971	712.265869	9031.049805	4431.934082	44.714085
659.176819	717.764343	9081.055664	4447.983887	44.602291
659.508667	724.525879	9172.299805	4479.191406	44.445621
659.840393	726.977844	9257.227539	4500.293457	44.234528
660.172058	729.206848	9327.741211	4518.645996	44.070759
660.503662	725.417480	9383.914063	4523.475098	43.865097
660.835266	728.835449	9434.290039	4533.654785	43.706150
661.166931	719.844727	9412.593750	4521.766602	43.736702
661.498413	721.850891	9368.829102	4520.503418	43.930405
661.829773	721.405090	9270.081055	4489.964844	44.083549
662.161194	728.092346	9165.314453	4447.092285	44.078491
662.492615	728.389465	9041.452148	4367.365723	43.774197
662.823975	741.020996	8878.803711	4310.152344	43.858768
663.155212	738.940613	8737.405273	4232.134277	43.673302
663.486450	740.575256	8580.032227	4183.094238	43.912724
663.817627	731.287415	8454.385742	4118.376465	43.856609
664.148743	729.727051	8314.176758	4075.058594	44.107769
664.479858	724.005676	8211.862305	4020.668701	44.026794
664.810913	712.191589	8110.513184	3957.585938	43.866627
665.141907	713.751953	8045.275391	3920.657471	43.741325
665.472778	717.467102	7966.291504	3889.301758	43.756542
665.803711	732.104736	7904.769531	3878.750732	43.869968
666.134583	730.544434	7853.722656	3849.995361	43.792965
666.465454	729.950012	7811.667480	3821.091797	43.649609
666.796143	719.101746	7779.865723	3787.878174	43.462383
667.126831	722.891174	7754.157715	3776.807373	43.433372
667.457458	729.132629	7736.324707	3765.067383	43.325985
667.788147	735.522644	7713.885254	3772.497803	43.519878
668.118774	731.584656	7681.711426	3753.253174	43.476448
668.449219	720.290588	7685.576172	3745.600342	43.434109
668.779663	720.736328	7691.074219	3737.352783	43.277908
669.110107	723.262695	7668.932129	3733.489014	43.339615
669.440552	732.624817	7618.480469	3736.757813	43.627594
669.770874	729.504150	7577.911621	3719.742920	43.663273
670.101135	724.823059	7561.268066	3696.337646	43.465790
670.431396	727.497864	7528.723145	3657.477295	43.080173
670.761597	729.058350	7469.875488	3623.520752	42.939339
671.091797	731.584656	7443.869629	3616.759033	42.983490
671.421875	720.067688	7411.845215	3601.675781	43.061924
671.751892	717.764343	7412.364746	3582.951904	42.798485
672.081909	717.764343	7369.863770	3575.447021	42.959106
672.411865	720.141907	7311.907715	3566.381836	43.178719
672.741821	716.352539	7256.329590	3549.292236	43.317272
673.071716	714.272156	7203.871582	3509.020264	43.065029
673.401550	717.169922	7182.250000	3475.955811	42.672108
673.731262	723.485596	7141.902832	3461.689453	42.661671
674.060974	727.052063	7130.460449	3440.958984	42.382225
674.390625	722.445313	7098.063965	3416.513428	42.255791
674.720276	716.798340	7061.656250	3402.916016	42.335346
675.049927	719.250305	7015.811035	3399.869873	42.572762
675.379395	726.383362	6991.886230	3398.383545	42.646221
675.708923	732.550537	6940.468750	3370.742920	42.497219
676.038330	733.219238	6901.459473	3339.833008	42.258629
676.367737	735.002502	6844.321777	3317.839111	42.276997
676.697083	741.095398	6801.151855	3313.901367	42.455147
677.026428	740.649597	6753.077637	3297.034424	42.518341
677.355652	731.287354	6733.238281	3271.177490	42.317741
677.684875	728.909668	6762.216309	3259.363281	41.941406
678.013977	718.655945	6739.554688	3255.499268	42.133961
678.343079	719.844727	6741.560547	3263.598389	42.243004
678.672180	708.179199	6725.808594	3242.125000	42.108704
679.001221	704.166809	6773.807129	3241.530518	41.804188
679.330139	709.145203	6781.683594	3257.431641	41.964104
679.659058	711.522766	6800.927734	3273.183594	42.067509
679.987976	720.216248	6823.887207	3289.678955	42.097004
680.316772	714.494934	6881.546387	3294.285400	41.831833
680.645630	711.820068	6925.087891	3308.328857	41.789745
680.974304	717.467102	6970.189941	3316.650391	41.568825
681.302979	722.519714	6996.493652	3333.666016	41.618698
681.631653	728.240967	7036.468262	3347.040283	41.514027
681.960266	721.553711	7078.820313	3350.830078	41.358597
682.288757	720.290588	7098.658691	3342.582031	41.112263
682.617249	717.244141	7088.107910	3347.040283	41.278488
682.945679	721.925293	7060.467285	3344.142578	41.369408
683.274109	733.070618	7037.656250	3340.799072	41.362411
683.602478	745.033386	7001.173340	3299.486572	40.831135
683.930725	733.516418	6926.500000	3272.291748	40.994385
684.259033	726.531982	6839.416504	3236.180664	41.055061
684.587280	721.033630	6775.665527	3217.307861	41.229164
684.915344	731.436035	6718.674316	3195.239990	41.150925
685.243469	733.962341	6664.359375	3163.884033	40.974014
685.571533	735.076843	6584.186035	3125.989502	40.876526
685.899536	733.590820	6517.611328	3091.067383	40.758442
686.227539	732.178955	6444.869629	3061.718018	40.778316
686.555420	733.442200	6408.609863	3047.005859	40.766441
686.883301	730.395752	6394.120605	3035.340576	40.696625
687.211121	725.937683	6400.957031	3018.325195	40.394352
687.538940	713.751953	6396.869629	3014.460938	40.483219
687.866638	718.061523	6373.539063	2995.588623	40.271172
688.194336	717.615662	6363.804688	2997.000244	40.370319
688.521973	725.268860	6344.783691	2983.328857	40.182476
688.849609	718.210144	6331.854980	2988.678467	40.445526
689.177063	716.798340	6328.363281	2982.288330	40.371803
689.504578	717.541321	6313.799316	2981.099365	40.447708
689.832031	715.981018	6279.769043	2951.601563	40.181629
690.159485	715.386658	6201.676270	2921.137451	40.204781
690.486816	706.024475	6115.410645	2884.580078	40.273621
690.814087	719.919128	6041.925293	2852.258545	40.066456
691.141296	721.330811	5934.261230	2822.166016	40.300465
691.468506	722.073914	5831.648926	2781.373779	40.302761
691.795715	716.872620	5719.451660	2741.696289	40.475597
692.122803	720.959290	5645.595215	2709.448486	40.378403
692.449829	730.990173	5592.691406	2683.368408	40.158333
692.776855	730.767273	5552.122559	2655.802002	39.927250
693.103821	723.336914	5502.116699	2624.594971	39.785431
693.430664	715.460876	5428.036621	2585.288818	39.677406
693.757568	710.482666	5344.892090	2559.208740	39.891300
694.084351	715.906738	5282.552246	2533.128418	39.793362
694.411133	722.891174	5256.843262	2522.131592	39.683712
694.737854	726.234863	5214.342285	2512.397949	39.797691
695.064575	722.519714	5198.292969	2507.196533	39.874153
695.391174	720.142029	5153.190918	2506.899658	40.305389
695.717773	729.132629	5136.621582	2498.057617	40.134533
696.044250	721.776611	5112.770020	2470.565430	39.826725
696.370789	720.959290	5115.519531	2445.228271	39.236443
696.697205	701.417725	5115.593262	2438.318115	39.348236
697.023621	708.699280	5146.726074	2456.150635	39.374512
697.349915	717.467041	5194.726074	2479.927734	39.364727
697.676208	728.761047	5280.174316	2505.636475	39.040085
698.002380	729.429871	5363.616211	2539.592529	39.061066
698.328674	724.451477	5459.317871	2568.644775	38.949219
698.654724	721.553711	5550.413574	2592.124512	38.737316
698.980896	724.525879	5634.078125	2623.331787	38.675747
699.306946	729.429871	5701.173340	2663.455322	38.900345
699.632935	737.603027	5769.160156	2710.786133	39.216152
699.958862	730.915833	5802.894043	2728.173096	39.378273
700.284729	720.810730	5816.268066	2724.234863	39.317844
700.610596	715.535156	5780.603027	2691.244629	39.006573
700.936340	726.829285	5709.792969	2663.381104	38.863453
701.262146	728.686768	5603.020020	2619.319580	38.787518
701.587830	728.835388	5501.818848	2570.948486	38.594582
701.913513	727.274963	5387.913086	2511.208984	38.276604
702.239075	727.646484	5261.375488	2455.482178	38.110695
702.564697	723.782776	5118.714355	2406.442139	38.286362
702.890137	716.129639	4995.223145	2355.322021	38.306999
703.215698	716.724121	4898.927246	2312.746338	38.162235
703.541016	713.974854	4804.859863	2268.684814	38.004246
703.866455	719.473206	4731.820313	2242.753174	37.964809
704.191711	719.473206	4645.777832	2211.100342	37.990612
704.517029	727.275085	4575.561523	2180.636230	37.766449
704.842163	729.429871	4519.982910	2144.228027	37.324318
705.167419	723.931396	4477.110840	2124.983643	37.329742
705.492493	720.067688	4436.243652	2112.797852	37.477509
705.817566	708.327820	4370.857910	2089.243896	37.703884
706.142578	710.556946	4345.148926	2069.553711	37.390629
706.467590	718.432922	4327.910645	2055.362061	37.039410
706.792480	724.674377	4323.601074	2059.374268	37.086056
707.117371	720.736328	4323.972656	2059.968506	37.167480
707.442200	718.730225	4327.464355	2060.340088	37.176743
707.766907	714.792175	4327.167480	2052.686768	37.036423
708.091675	718.358704	4304.876465	2049.566162	37.116993
708.416321	710.854065	4280.653809	2056.847900	37.705025
708.741028	716.203918	4290.981934	2062.346436	37.656677
709.065552	725.937561	4311.043457	2059.671387	37.202076
709.390137	726.754883	4349.384277	2056.773682	36.714184
709.714600	726.086182	4374.572754	2056.179443	36.456028
710.039063	712.117249	4406.522949	2076.389648	36.928062
710.363403	723.039795	4445.680176	2088.129150	36.669922
710.687744	722.073792	4486.546875	2107.745117	36.809174
711.012085	728.240906	4533.282715	2110.271484	36.321033
711.336304	724.674377	4567.165527	2133.082520	36.653519
711.660461	726.903503	4618.285645	2132.190918	36.112808
711.984619	729.949951	4648.378418	2146.605713	36.153671
712.308716	725.417480	4669.926270	2137.169189	35.790306
712.632751	722.668274	4659.226563	2150.543701	36.272179
712.956726	726.606262	4660.861328	2137.912354	35.872257
713.280701	725.343079	4623.783691	2129.813232	36.026463
713.604553	734.556641	4578.533691	2114.358398	35.895161
713.928467	731.287354	4508.837891	2099.646240	36.223442
714.252258	734.779602	4444.120117	2076.760986	36.178436
714.575989	728.315247	4385.791992	2052.241211	36.197796
714.899719	727.720886	4311.638184	2032.179565	36.397568
715.223267	724.525818	4276.493652	2007.511108	36.120411
715.546936	720.290527	4231.391113	1989.232422	36.140858
715.870422	720.513489	4191.788086	1969.021973	35.966862
716.193970	718.135803	4144.605957	1957.505249	36.170441
716.517395	723.708496	4117.336426	1945.468140	36.001579
716.840820	718.135742	4091.776367	1933.208130	36.016651
717.164124	723.039795	4060.940674	1913.220703	35.656567
717.487488	720.513489	4029.139404	1897.914429	35.585796
717.810730	718.655945	3993.622803	1890.484375	35.781384
718.133972	718.878845	3950.452881	1876.738281	35.829578
718.457092	717.244141	3893.239502	1863.586548	36.093956
718.780212	716.203918	3850.589844	1833.196655	35.636730
719.103210	714.123535	3798.875244	1807.116333	35.432117
719.426208	711.745789	3759.643311	1777.543945	34.968304
719.749207	728.538269	3719.965820	1768.850586	34.776447
720.072083	728.092346	3687.049805	1763.797852	35.002380
720.394958	728.315247	3647.000732	1753.618530	35.128937
720.717773	720.662109	3591.570313	1725.829468	35.012173
721.040527	717.021240	3535.769287	1705.396118	35.064320
721.363281	720.587830	3497.057617	1692.021484	34.988087
721.685913	724.897278	3470.977295	1686.671875	35.023544
722.008545	727.349304	3448.240967	1674.708984	34.817986
722.331055	718.804504	3412.500977	1661.706055	35.004002
722.653503	709.070862	3369.628174	1640.529785	35.009918
722.976013	705.875793	3360.860596	1637.854858	35.102989
723.298401	719.621887	3342.730713	1635.477173	34.914879
723.620789	723.931458	3336.935303	1632.133423	34.757008
723.943115	731.287354	3296.365967	1625.074829	34.844448
724.265381	722.891174	3291.833252	1607.910767	34.450741
724.587585	723.559875	3284.923584	1617.644531	34.906586
724.909790	724.228699	3302.756104	1613.260742	34.478287
725.231873	732.179016	3296.068604	1612.369141	34.330265
725.553894	732.253357	3305.133545	1602.709595	33.831978
725.875916	929.750000	3525.589844	1808.751343	33.861923
726.197937	931.013184	3533.020264	1812.837891	33.890175
726.519775	924.846008	3531.682617	1803.178589	33.693424
726.841675	720.290527	3323.337891	1600.406372	33.810982
727.163513	715.981018	3332.551514	1602.189575	33.869087
727.485291	721.182129	3349.120361	1622.177124	34.285244
727.806946	724.748718	3371.411377	1629.904419	34.199890
728.128662	719.398926	3401.429932	1624.554688	33.748894
728.450256	721.405090	3424.463623	1628.492554	33.557816
728.771790	720.736328	3436.203369	1626.114868	33.341541
729.093323	725.789001	3443.931396	1643.353149	33.757030
729.414795	723.485535	3455.151123	1631.167603	33.228157
729.736145	722.222412	3457.974365	1620.988159	32.852604
730.057495	718.432922	3454.184814	1617.941772	32.879765
730.378845	721.330811	3457.008545	1620.022095	32.850773
730.700134	727.423645	3454.482422	1620.988159	32.766602
731.021301	733.144958	3459.237549	1620.393677	32.546535
731.342468	733.367859	3449.355469	1616.232788	32.506222
731.663574	725.268860	3454.705078	1615.341187	32.610115
731.984680	719.919128	3447.125977	1603.304077	32.391563
732.305664	709.516785	3453.144775	1605.235962	32.647255
732.626648	710.779846	3458.494873	1610.214233	32.733902
732.947571	712.414490	3458.791748	1616.827148	32.931114
733.268433	714.866516	3462.581055	1616.232788	32.804218
733.589233	722.965515	3462.878174	1608.579590	32.322712
733.909973	731.138855	3450.692627	1602.709595	32.048302
734.230713	741.541199	3420.526123	1605.161621	32.236855
734.551331	737.083008	3367.696533	1594.462036	32.592361
734.871948	726.457703	3328.390381	1578.189819	32.734596
735.192505	721.330811	3292.724854	1555.453125	32.438526
735.513062	723.114075	3239.375732	1554.190063	33.028202
735.833435	727.497986	3191.747803	1543.044556	33.095127
736.153931	727.349304	3145.308594	1518.450562	32.717724
736.474304	728.538147	3121.828857	1496.159546	32.073887
736.794617	731.956055	3101.172607	1484.568359	31.766294
737.114807	736.488586	3072.268799	1480.036011	31.832935
737.434998	732.550476	3054.956299	1468.296021	31.680319
737.755188	732.327576	3040.393311	1460.940063	31.568100
738.075256	728.092285	3035.860596	1460.419922	31.733152
738.395325	728.240967	3035.786377	1456.407715	31.555901
738.715271	729.949951	3045.520264	1458.042358	31.443329
739.035278	728.984070	3064.169922	1455.813354	31.125116
739.355164	729.801331	3078.510498	1454.178711	30.841509
739.675049	720.587830	3095.674072	1445.039429	30.502119
739.994873	718.210144	3107.042236	1458.785278	31.001558
740.314636	717.987305	3112.094971	1455.292969	30.796679
740.634277	717.690002	3099.835205	1451.280762	30.795383
740.953979	715.460938	3069.222656	1429.732788	30.345970
741.273499	713.528992	3050.126953	1423.862915	30.400349
741.593140	713.603333	3006.288330	1425.571899	31.053919
741.912598	718.358704	2969.285156	1412.717651	30.847694
742.232117	711.968567	2911.106445	1401.497925	31.354530
742.551453	711.597168	2876.704102	1379.281372	30.838394
742.870850	708.253479	2843.713623	1368.061523	30.897697
743.190063	715.312256	2812.283447	1354.910156	30.501034
743.509338	720.141907	2783.528564	1340.495361	30.064817
743.828552	722.445313	2755.293701	1315.901245	29.193319
744.147705	722.296692	2740.135742	1316.198486	29.432564
744.466797	720.884949	2720.445557	1316.049927	29.764790
744.785828	723.485596	2699.120361	1320.805176	30.234312
745.104858	727.275085	2667.541748	1313.820679	30.230154
745.423706	734.408203	2647.703125	1303.343994	29.735916
745.742615	734.556702	2637.152100	1307.059204	30.090607
746.061401	731.956238	2636.929199	1309.585449	30.322174
746.380249	724.005798	2615.604492	1311.888794	31.078632
746.698975	724.674377	2601.115234	1304.904297	30.921833
747.017639	724.897278	2579.047607	1288.483398	30.395924
747.336304	724.823059	2555.493408	1280.904663	30.375845
747.654907	722.891113	2541.895996	1274.291626	30.313305
747.973389	720.587708	2541.524414	1274.291626	30.407640
748.291931	720.216309	2547.840088	1272.879883	30.239460
748.610352	724.823059	2556.162354	1268.644653	29.695293
748.928711	727.275085	2567.159180	1264.037964	29.173735
749.247070	728.538147	2574.218018	1254.675659	28.506433
749.565308	726.903564	2558.019775	1255.715942	28.879236
749.883545	729.949951	2533.574219	1255.939087	29.162899
750.201782	731.584656	2530.973633	1251.555176	28.897062
750.519836	724.005676	2521.982666	1243.753296	28.907356
750.837952	715.609436	2517.598877	1232.682251	28.694551
751.155884	710.482605	2493.896484	1229.264160	29.089241
751.473877	714.272156	2483.642822	1224.583008	28.841377
751.791809	716.649719	2469.376709	1225.771973	29.047436
752.109619	720.067688	2475.023682	1232.161987	29.179893
752.427490	719.324707	2469.079346	1226.143433	28.965132
752.745300	728.240967	2460.831787	1231.419067	29.041946
753.062988	729.281250	2445.302490	1220.199341	28.607925
753.380615	726.977783	2442.478760	1216.409790	28.529976
753.698303	721.999512	2438.837891	1196.942505	27.663815
754.015808	722.668213	2431.184814	1195.456421	27.672440
754.333374	726.680603	2413.575195	1197.908569	27.934643
754.650757	724.451477	2409.860107	1200.509155	28.245831
754.968262	721.702332	2405.104736	1201.772095	28.517826
755.285583	728.835388	2416.621826	1200.434692	27.941883
755.602905	734.853821	2404.733154	1196.050903	27.618586
755.920105	732.773438	2399.680664	1192.484375	27.578676
756.237305	727.572266	2391.804443	1188.323364	27.685507
756.554443	724.971680	2379.842041	1183.567993	27.711918
756.871582	722.668274	2365.575684	1180.893188	27.891096
757.188599	712.191589	2350.269287	1184.162476	28.812487
757.505615	709.516602	2364.386963	1182.527710	28.582970
757.822510	714.866455	2389.204102	1187.060181	28.201822
758.139465	718.655945	2413.798096	1184.979858	27.509430
758.456238	721.999512	2422.714600	1188.397827	27.423660
758.773010	726.606262	2437.723633	1190.329712	27.100620
759.089783	733.144958	2441.810303	1198.577271	27.239525
759.406433	727.646545	2452.510010	1207.864990	27.840954
759.723145	718.581604	2449.314941	1196.942505	27.639202
760.039673	717.095520	2457.116455	1190.923950	27.231190
760.356201	722.148132	2469.079346	1183.196411	26.391897
760.672668	728.686768	2472.868896	1198.502930	26.936188
760.989136	728.686768	2471.159912	1199.840332	27.039358
761.305481	723.337097	2452.955811	1207.865112	28.013575
761.621826	724.228699	2454.070313	1206.453247	27.876804
761.938049	727.275085	2461.797852	1207.716431	27.698763
762.254333	738.569031	2497.240234	1210.391357	26.828342
762.570496	731.733154	2528.075928	1209.202515	26.580080
762.886597	720.662109	2594.428223	1225.177612	26.925213
763.202637	711.820068	2665.461426	1252.743896	27.687981
763.518677	713.603333	2792.221924	1281.870483	27.338692
763.834656	719.696106	2929.681885	1310.774292	26.745790
764.150574	718.061462	3060.380615	1332.545044	26.233982
764.466370	719.844727	3155.859375	1368.581665	26.631077
764.782288	721.182190	3188.181396	1377.275024	26.594772
765.097961	727.275085	3222.137451	1385.225586	26.372217
765.413696	726.309082	3194.422607	1365.238037	25.887341
765.729309	723.708496	3134.534424	1351.714966	26.049433
766.044861	714.643616	3014.089844	1317.312866	26.209320
766.360474	713.677734	2872.766357	1279.790039	26.219967
766.675903	710.482666	2739.764404	1239.443848	26.066423
766.991394	713.677673	2615.827393	1201.697876	25.656246
767.306763	713.826355	2529.413086	1179.258423	25.635353
767.622131	718.284424	2440.547119	1154.292725	25.316015
767.937378	723.337097	2381.996582	1135.048340	24.821928
768.252625	727.052185	2314.901123	1117.067017	24.562466
768.567810	730.544250	2262.072021	1108.819580	24.699213
768.882996	731.436035	2214.221191	1108.893921	25.456007
769.197998	730.544434	2178.333008	1099.160278	25.460613
769.513062	724.674500	2153.961914	1089.203613	25.504257
769.828064	722.371094	2112.203613	1074.120117	25.308735
770.142944	719.250305	2084.042725	1062.157349	25.125216
770.457825	717.244141	2058.259766	1055.916016	25.254879
770.772705	716.129578	2033.590942	1046.182251	25.052170
771.087402	715.758118	2007.956665	1040.683838	25.145187
771.402100	717.169861	1979.349976	1031.619019	24.913176
771.716736	714.717957	1956.242065	1026.640625	25.124172
772.031372	714.197754	1933.876831	1023.371399	25.348770
772.345947	721.479431	1926.669434	1023.520020	25.061659
772.660461	728.686707	1919.907837	1018.095886	24.295168
772.974854	733.739319	1904.824585	1024.337280	24.814417
773.289246	730.767273	1887.066284	1016.832703	24.739744
773.603638	722.222412	1879.487305	1020.993652	25.817015
773.917908	718.581543	1875.177856	1000.634766	24.386488
774.232178	722.668213	1857.865234	997.662598	24.224375
774.546265	723.634094	1838.472290	994.839111	24.326851
774.860474	720.587830	1824.131836	1000.931946	25.403982
775.174561	713.454651	1810.831665	1006.355957	26.691038
775.488586	718.210144	1802.955566	1001.303406	26.097670
775.802551	721.627991	1788.392212	998.702820	25.973391
776.116516	729.429871	1783.414063	986.888672	24.427198
776.430359	724.377258	1764.466797	972.028137	23.810534
776.744202	728.761047	1759.116821	967.570007	23.177332
777.057922	715.535217	1747.599976	963.186218	23.995686
777.371704	717.987122	1740.318359	969.353333	24.587551
777.685303	716.426758	1729.916016	967.124207	24.736074
777.998962	726.011902	1724.491821	967.941589	24.229799
778.312500	723.634277	1719.216309	966.009583	24.345087
778.626038	723.857178	1709.110962	965.415283	24.517349
778.939453	724.897278	1701.680786	970.022034	25.095097
779.252869	731.807434	1710.374390	971.805359	24.525448
779.566223	731.138855	1710.225708	973.068542	24.709726
779.879578	726.977844	1715.946899	972.102539	24.785881
780.192749	721.182129	1703.166992	968.164368	25.151329
780.505920	728.835388	1703.984253	957.836365	23.483694
780.819031	729.504089	1690.015503	944.387512	22.371773
781.132141	749.268616	1702.572632	954.641418	21.543264
781.445190	745.702087	1698.931641	965.935364	23.103909
781.758118	754.395508	1695.736694	969.056152	22.803703
782.071045	734.259460	1674.560425	951.223450	23.073887
782.383911	729.652649	1656.579102	936.957336	22.364740
782.696838	719.547546	1638.449219	927.372253	22.616642
783.009583	718.135742	1620.616699	928.486816	23.308090
783.322266	710.928467	1611.700317	930.864502	24.416397
783.634888	708.625000	1610.734375	928.041016	24.322552
783.947510	712.043030	1607.762329	922.022461	23.442549
784.260132	720.290527	1602.412476	920.833679	22.734175
784.572571	726.457703	1594.907837	929.750000	23.408632
784.885010	728.315247	1583.168091	927.075012	23.250757
785.197449	731.213135	1568.530396	916.375488	22.113764
785.509766	727.498047	1557.756470	904.189758	21.281532
785.822083	728.315247	1553.446899	896.610901	20.396219
786.134277	725.937561	1546.462524	900.846191	21.316673
786.446533	732.550537	1540.369751	909.168152	21.863508
786.758606	730.024231	1542.747437	914.666504	22.718962
787.070740	727.423645	1561.397339	911.248596	22.042057
787.382690	717.987122	1569.347778	905.675781	22.045729
787.694641	717.318420	1570.090820	902.183594	21.678137
788.006653	715.312317	1579.898560	907.756348	22.258512
788.318481	719.696106	1594.536499	918.678772	22.745026
788.630310	718.061523	1618.387695	930.790100	23.627945
788.942017	720.587830	1627.972656	924.920227	22.518826
789.253784	723.559875	1656.876343	925.143127	21.598597
789.565430	727.943665	1663.117676	923.508484	20.912132
789.877014	734.779602	1653.384155	930.790222	21.337868
790.188538	735.522644	1638.226440	927.000732	21.211618
790.500061	731.584534	1620.393677	920.907959	21.300797
790.811462	730.247070	1611.625977	920.239197	21.556236
791.122925	728.240967	1592.010132	913.031799	21.393543
791.434204	728.315247	1569.793579	903.521057	20.821192
791.745483	726.903564	1551.069336	894.381836	20.320946
792.056702	722.445313	1524.394531	879.224060	19.549709
792.367920	719.621826	1508.196655	882.270508	20.625650
792.678955	715.683777	1482.636597	879.447021	21.352453
792.990112	719.175964	1477.360962	885.911377	21.991388
793.301086	722.891174	1467.627319	882.121887	21.380823
793.612122	728.092468	1473.125854	876.995056	19.986029
793.922974	728.686829	1456.853516	871.793762	19.653046
794.233826	727.869446	1450.463501	870.084900	19.681238
794.544556	727.423645	1448.234375	871.347961	19.967005
794.855286	723.931396	1452.395386	865.032227	19.369637
795.166016	734.110901	1461.905884	866.666931	18.213375
795.476624	726.086182	1464.209351	869.267517	19.398027
795.787292	724.451599	1462.500488	877.960938	20.799345
796.097778	714.866455	1467.032837	880.190125	21.979668
796.408264	725.268860	1476.543579	880.635925	20.680460
796.718689	732.624817	1500.840698	887.843262	20.205055
797.029053	734.705261	1506.487671	885.094055	19.485907
797.339355	726.977844	1506.413452	881.007324	19.761669
797.649658	726.754944	1506.339233	878.778320	19.500570
797.959839	724.005676	1505.001587	876.474915	19.522411
798.270020	725.343262	1503.292603	880.635925	19.961796
798.580078	729.652771	1497.720093	879.521301	19.512421
798.890137	726.606262	1492.295898	882.716309	20.388163
799.200195	725.714661	1473.497070	881.824707	20.876400
799.510071	717.690002	1444.742065	876.697754	21.870201
799.820007	718.581604	1426.537720	871.273682	21.568014
800.129883	720.885010	1422.376953	860.053955	19.838995
800.439575	722.742615	1420.222168	856.041687	19.111538
800.749329	721.999512	1420.667969	860.797058	19.866011
801.058960	720.662109	1411.603027	861.837219	20.432299
801.368591	725.566101	1401.720703	861.985901	20.175829
801.678162	725.566101	1387.380371	853.292480	19.299429
801.987671	722.816833	1381.287476	857.304871	20.424303
802.297119	715.238037	1379.950073	863.249023	22.266933
802.606506	716.278259	1368.878906	866.146790	22.964815
802.915894	721.107910	1360.334229	857.973572	21.411142
803.225159	716.501160	1365.758423	855.893005	21.469431
803.534424	715.163757	1371.999634	847.199646	20.101809
803.843628	716.501160	1364.792358	854.629883	21.306585
804.152771	722.371094	1357.733643	841.329773	18.722961
804.461792	727.943787	1359.219727	856.338867	20.338980
804.770874	721.628113	1366.575562	850.097412	19.919344
805.079773	720.587830	1370.290649	859.979736	21.454718
805.388733	721.330811	1372.519897	850.171692	19.785479
805.697571	726.532043	1377.423828	852.772278	19.394964
806.006470	730.470032	1381.807739	849.057190	18.206709
806.315125	725.863281	1382.179199	848.908691	18.747894
806.623901	724.674500	1390.946899	851.063416	18.969557
806.932495	714.049133	1389.163696	854.927185	20.867281
807.241150	719.993408	1392.209961	854.109802	19.951368
807.549622	717.838562	1390.129517	845.416321	18.976570
807.858154	725.788879	1380.544556	837.614563	17.078995
808.166565	721.850891	1369.547729	839.397766	18.148441
808.474915	722.742615	1355.950317	848.760010	19.901432
808.783264	726.754883	1352.606812	854.629883	20.432150
809.091492	726.977844	1346.068115	849.131531	19.731159
809.399719	730.841553	1334.476807	845.936523	19.066973
809.707825	725.789001	1322.588379	837.911804	18.787352
810.015930	726.309082	1314.192017	839.917969	19.325087
810.323975	715.832336	1316.124146	837.094482	20.200533
810.632080	712.934570	1308.991089	837.317383	20.867620
810.939880	714.717834	1301.709351	835.682800	20.607618
811.247864	719.101746	1302.303833	830.630127	19.123453
811.555664	724.451599	1301.114868	825.057434	17.446201
811.863464	725.566101	1295.913818	816.884216	16.010954
812.171143	728.909668	1281.722046	820.896484	16.639790
812.478882	730.247070	1279.344238	822.828369	16.860640
812.786438	729.504089	1278.155396	830.927429	18.485937
813.094055	729.355469	1272.136841	828.178162	18.206722
813.401489	725.417480	1271.542480	819.559021	17.238094
813.708984	720.067688	1266.341309	811.980164	16.825356
814.016357	724.451599	1266.118286	813.317566	16.406025
814.323730	724.005798	1264.037720	824.760254	18.657129
814.630981	724.748779	1270.279175	822.233948	17.869797
814.938232	719.547546	1273.920044	824.017090	18.844648
815.245361	716.352539	1267.975952	823.422668	19.410004
815.552490	722.371094	1261.065796	826.246277	19.282755
815.859619	723.039795	1260.545532	816.141113	17.320992
816.166565	735.151184	1261.511475	822.679749	16.629021
816.473572	727.349304	1267.752808	823.794250	17.846840
816.780457	725.194519	1266.935669	825.577454	18.529686
817.087341	718.878723	1265.821167	815.398010	17.647064
817.394043	717.615662	1272.434082	812.054443	17.021566
817.700806	712.860291	1275.777710	816.289734	18.373821
818.007507	714.346375	1284.396851	822.605469	18.991142
818.314209	709.739563	1287.963379	828.846863	20.598824
818.620667	714.494934	1298.737305	823.199890	18.606140
818.927246	715.535217	1304.681519	823.348450	18.299908
819.233704	722.519714	1319.839355	823.571350	16.917515
819.540161	725.268860	1351.417969	838.431885	18.072855
819.846497	721.405090	1401.126465	844.376160	18.091394
820.152832	724.748718	1445.633789	855.224304	18.099360
820.458984	726.903564	1488.432129	856.264465	16.987005
820.765259	722.296692	1542.301758	860.351257	16.835819
821.071350	722.073914	1629.978882	873.874329	16.719858
821.377502	715.758118	1776.429565	900.474609	17.415054
821.683472	719.919006	2043.547852	947.582520	17.199951
821.989441	714.717834	2474.949463	1018.021484	17.230894
822.295349	717.764343	3067.365234	1111.420044	16.754152
822.601196	722.073914	3710.751953	1219.604858	16.647192
822.907043	721.850891	4281.916992	1309.213989	16.498657
823.212769	727.646545	4648.898438	1367.244507	16.311066
823.518494	729.578430	4781.751465	1386.786011	16.218645
823.824097	737.603088	4709.529297	1357.807739	15.614707
824.129700	725.491760	4499.401367	1312.037476	15.542124
824.435242	716.724060	4227.898926	1256.607666	15.376153
824.740723	714.569275	3949.932373	1221.165161	15.658085
825.046082	717.467041	3678.430420	1179.852905	15.616061
825.351501	720.142029	3395.337158	1134.899780	15.503832
825.656799	720.810730	3091.141846	1087.791748	15.482268
825.962036	724.823059	2783.974365	1047.593994	15.674950
826.267212	728.389587	2546.205811	1008.808044	15.426118
826.572449	728.018066	2378.727295	985.105469	15.574360
826.877502	730.618652	2334.814453	978.566833	15.456229
827.182495	735.671204	2395.965576	992.981506	15.497871
827.487488	735.374023	2511.134766	1007.099121	15.301898
827.792419	731.435974	2605.276123	1020.473633	15.424884
828.097290	722.891113	2629.721924	1012.671814	15.196980
828.402100	727.869446	2590.415771	1008.213623	15.051661
828.706848	732.699158	2517.450684	994.244690	14.654451
829.011597	736.117004	2393.885010	987.408936	15.158449
829.316223	733.813660	2264.375732	964.375061	15.063839
829.620789	734.333801	2140.438477	937.848938	14.473682
829.925354	738.717590	2024.303345	913.403381	13.588032
830.229797	734.705322	1912.997681	899.508728	13.986631
830.534302	737.231628	1796.045288	896.982422	15.087715
830.838562	725.937561	1677.606812	879.744202	16.161776
831.142944	720.885010	1560.282837	855.818787	16.075069
831.447144	712.042969	1461.757324	828.921143	15.589694
831.751404	715.683838	1393.770508	823.645691	15.921542
832.055542	724.228699	1357.882324	824.685852	15.853639
832.359619	724.228699	1334.179688	823.274109	16.238256
832.663635	725.268860	1344.359253	824.314392	15.998557
832.967651	723.039734	1372.817017	827.360840	16.054901
833.271545	722.668274	1434.339844	838.060364	16.214233
833.575439	721.033508	1502.326782	851.286316	16.671436
833.879211	722.148132	1607.762329	863.843445	15.999666
834.183044	723.336975	1705.173218	873.948547	15.339786
834.486694	726.086182	1807.116577	873.948547	13.677910
834.790344	720.439209	1860.242798	883.979492	14.348111
835.093933	720.067688	1864.032349	881.824707	14.140038
835.397522	722.073914	1826.138062	880.338684	14.334743
835.700928	721.999512	1772.937378	860.797058	13.207017
836.004395	725.045959	1727.241211	859.533875	13.419333
836.307739	722.445313	1674.040405	850.840393	13.492617
836.611023	731.064453	1611.477173	853.663879	13.925222
836.914307	726.829163	1547.354126	841.775574	14.008886
837.217529	723.931458	1473.868652	832.859192	14.524914
837.520691	719.324707	1402.984009	821.267883	14.911401
837.823730	720.810730	1323.480103	811.014160	14.967316
838.126831	723.485657	1264.557983	809.602478	15.915954
838.429749	726.829285	1218.118774	800.314636	14.957648
838.732727	722.816895	1189.958130	803.212402	17.210108
839.035522	717.467102	1174.800293	792.735657	16.458143
839.338379	708.699402	1166.255493	786.940125	17.099701
839.641113	710.036804	1169.301880	780.029968	15.240254
839.943848	713.974854	1180.447266	789.317871	16.151655
840.246460	716.055359	1195.456421	802.246521	17.978926
840.549072	717.392761	1212.248901	802.097900	17.117125
840.851563	720.959290	1218.861938	804.104004	16.698990
841.154053	725.045898	1230.675903	805.590149	15.929484
841.456482	728.389587	1226.143555	808.339355	16.062105
841.758850	724.080017	1217.450073	800.908997	15.572283
842.061157	720.067627	1189.735107	791.769836	15.266590
842.363403	720.810608	1173.314331	789.837891	15.254522
842.665588	717.021240	1152.286621	784.562439	15.517245
842.967712	720.067688	1134.602539	780.104248	14.482874
843.269775	712.711731	1118.850342	778.023743	16.081213
843.571777	718.135803	1099.828979	776.983582	15.417561
843.873840	721.925232	1082.070557	779.286926	15.927375
844.175659	727.052063	1066.392578	780.178528	15.655798
844.477600	732.624817	1052.572266	789.169250	17.673038
844.779297	730.321472	1041.872681	790.803894	19.413317
845.081116	720.959290	1028.572510	786.642883	21.352655
845.382751	719.250427	1021.885315	779.286926	19.837931
845.684387	717.987244	1007.321960	768.290039	17.385675
845.985962	722.073792	991.421204	766.655457	16.551733
846.287537	720.216309	982.133301	759.968262	15.177310
846.588989	722.668213	979.458435	762.940369	15.682900
846.890381	732.773438	972.696960	758.407898	10.684430
847.191711	732.030457	970.839355	762.345947	12.694456
847.493042	728.463867	973.439941	759.745361	12.769204
847.794250	726.011902	977.080811	763.609070	14.974840
848.095459	723.485596	973.811462	765.095154	16.622156
848.396606	724.080017	967.495789	760.265442	14.865686
848.697693	719.101746	963.632019	761.751465	17.441488
848.998657	720.067688	960.214050	756.921875	15.346552
849.299622	730.172852	962.220215	759.448181	12.616101
849.600464	732.401917	963.037598	751.869202	8.440708
849.901367	725.714661	952.337952	746.370850	9.114769
850.202087	709.888184	944.313293	744.810486	14.896997
850.502808	710.408386	940.598145	747.708313	16.203991
850.803467	713.974854	947.136780	749.491638	15.232669
851.104065	722.668213	953.303955	758.779358	15.657220
851.404663	719.473206	949.960266	756.401672	16.021927
851.705139	721.999512	953.303955	750.085999	12.142649
852.005615	719.027405	953.749756	739.460754	8.705328
852.306030	722.148132	958.950928	740.278015	7.656110
852.606384	727.497864	953.155273	750.457520	10.174563
852.906616	728.761047	946.245178	750.606140	10.044454
853.206909	724.897400	941.564148	754.989929	13.888854
853.506958	723.857117	942.009949	744.587585	9.502728
853.807129	724.228699	937.625977	748.079773	11.176841
854.107178	731.807556	942.901550	737.677429	2.780692
854.407166	732.847839	938.666260	747.782532	7.256247
854.707092	735.151123	938.963440	750.457458	7.510015
855.007019	732.476257	937.848938	756.401672	11.649755
855.306763	726.457703	936.214294	753.355286	12.823236
855.606567	724.377197	936.585754	751.126221	12.605063
855.906250	729.429749	926.480652	744.290344	7.541501
856.205933	735.596924	926.034851	750.011658	7.569256
856.505493	736.934387	928.561096	747.039551	5.273359
856.805054	736.414307	936.808777	749.863037	6.711129
857.104492	736.191345	940.152344	744.141785	3.898020
857.403931	732.699158	940.523865	750.531799	8.580617
857.703308	719.473206	930.641602	759.373840	18.895174
858.002563	712.488770	933.093567	754.841309	19.198376
858.301819	714.197754	926.257751	755.658691	19.551514
858.601013	717.615723	926.777832	749.342957	15.168729
858.900208	725.566101	925.960449	758.407898	16.388584
859.199219	731.658875	925.366028	751.126282	10.049916
859.498291	737.454529	929.527039	748.154114	5.570597
859.797302	724.748779	928.338196	745.999329	10.437944
860.096191	720.513489	939.334961	755.064270	15.789484
860.395020	713.900574	943.050110	762.717468	21.303511
860.693787	719.770447	935.842773	760.562683	18.878973
860.992554	710.408386	923.880066	748.228333	17.716610
861.291260	715.386536	922.914063	740.575256	12.137532
861.589844	717.690002	930.492920	738.717590	9.881249
861.888428	724.154297	932.796326	746.890930	10.897437
862.186890	727.572266	931.830383	751.051941	11.495100
862.485413	728.538147	931.830383	754.692688	12.865489
862.783813	732.476257	928.858398	753.726807	10.821019
863.082153	730.098572	929.304138	749.491516	9.735142
863.380371	725.120300	925.514648	743.250183	9.047103
863.678589	728.092346	925.068909	744.959045	8.562795
863.976746	726.606262	915.781067	749.640137	12.175974
864.274902	724.154297	920.684998	751.943542	14.139900
864.572937	716.724060	930.567200	754.172607	17.512157
864.870911	725.863281	940.375244	751.051941	11.742310
865.168884	728.166687	935.174072	751.720520	11.378258
865.466736	730.098572	930.492981	744.067383	6.970659
865.764587	718.507324	927.892395	741.987000	11.213634
866.062317	720.736389	931.830383	742.135559	10.137271
866.360107	717.764343	938.666260	744.141785	11.940793
866.657715	717.912903	940.226563	749.194336	14.070855
866.955322	717.615723	943.495911	747.485352	13.223660
867.252808	716.946960	935.322693	742.804260	11.840738
867.550293	717.244141	938.294739	745.256287	12.672277
867.847717	715.981018	935.768494	748.971375	15.010117
868.145081	718.878906	936.660156	757.962097	17.946077
868.442383	720.364929	928.338196	758.630798	18.399418
868.739624	721.033630	930.195801	764.054932	20.568396
869.036804	716.278259	927.075012	757.664856	19.633413
869.333984	712.191589	926.183411	748.674255	17.048626
869.631042	710.928467	918.381653	739.757874	13.896825
869.928101	709.368103	920.090637	741.987000	15.479548
870.224976	714.569275	924.325867	746.965271	15.444567
870.521851	724.823059	950.703308	762.568848	16.710531
870.818726	728.686829	948.251282	761.751465	15.059194
871.115479	725.268860	953.601074	762.197266	16.173103
871.412231	720.810730	936.288574	750.160217	13.620652
871.708862	720.587830	939.632263	747.856934	12.449120
872.005493	721.627991	940.821106	747.188171	11.661033
872.302063	719.696106	933.910950	744.141785	11.411757
872.598572	721.107910	936.585876	756.476013	16.413792
872.895020	728.612488	927.372314	751.200500	11.364476
873.191406	734.259521	930.864563	756.698914	11.413437
873.487671	733.888000	933.910950	740.278015	3.194641
873.783997	726.309082	944.981995	746.222229	9.106362
874.080200	719.696106	948.920105	742.209900	9.821744
874.376343	718.507324	947.285461	748.079773	12.926256
874.672424	721.925293	937.551758	743.993103	10.234277
874.968445	721.033630	934.951172	749.417236	13.268480
875.264465	724.228577	942.232727	751.051941	12.304061
875.560364	724.823059	953.526855	757.219055	14.165045
875.856201	717.095520	953.303894	753.355286	15.350754
876.152039	715.609558	952.560852	756.253113	17.152704
876.447754	709.962463	954.864258	750.234558	16.444181
876.743469	724.451477	957.241943	745.776367	9.160551
877.039063	722.519714	951.966492	746.445129	10.427436
877.334595	730.395752	942.529968	745.404846	7.075282
877.630127	718.804504	945.279236	745.776367	11.909436
877.925537	720.959290	946.988220	735.819824	6.574616
878.221008	710.779785	954.418457	738.940491	11.558389
878.516296	721.330811	953.155273	739.312073	7.756413
878.811646	721.107910	963.483398	744.067444	9.472713
879.106812	725.788879	981.093201	753.281006	10.768374
879.401978	719.324524	998.108459	756.476013	13.326266
879.697083	717.392761	1019.433350	759.299500	13.874538
879.992126	720.216248	1031.024536	753.281006	10.638313
880.287109	717.690002	1071.965454	756.921875	11.073833
880.582031	714.123474	1138.466309	762.717468	11.451589
880.876892	705.652893	1249.920288	767.918640	11.440286
881.171753	713.157532	1431.441895	785.528320	10.075506
881.466492	719.250305	1685.780273	815.249451	9.932351
881.761230	726.309082	2018.953613	849.874512	9.559119
882.055786	719.547546	2341.501709	877.515137	9.739338
882.350403	717.912903	2597.548828	898.840027	9.625647
882.644958	714.420654	2729.881836	910.356934	9.721660
882.939453	711.820068	2766.884766	914.740784	9.874176
883.233826	707.138977	2722.005859	905.824463	9.860973
883.528137	709.888184	2644.656738	902.480774	9.954296
883.822449	719.027405	2564.261475	890.740967	9.305787
884.116577	724.971680	2476.212402	879.298340	8.812418
884.410828	720.216309	2372.262939	865.180847	8.774845
884.704956	718.135803	2225.292236	862.877502	9.603628
884.999023	722.593933	2037.454956	852.698059	9.894896
885.292969	733.516418	1823.314453	829.812805	8.836167
885.586914	738.717590	1618.684692	800.611816	7.033698
885.880798	731.213074	1465.918457	788.946289	7.858009
886.174622	732.253357	1359.739746	781.887512	7.909997
886.468384	730.470032	1278.155396	781.738953	9.361017
886.762085	731.435974	1222.354126	771.039307	8.067197
887.055664	718.804504	1172.571289	763.089050	9.759318
887.349304	718.284424	1143.147339	758.110657	9.373902
887.642822	722.296814	1108.968140	751.794983	7.628745
887.936340	725.640381	1094.553345	748.451355	6.183294
888.229736	716.649719	1069.959106	739.312073	6.414309
888.523071	715.237976	1050.491821	736.711426	6.405131
888.816284	718.358704	1036.522949	745.702148	8.594129
889.109619	724.600159	1028.201050	754.395508	9.813986
889.402710	724.451477	1021.736633	759.522461	11.797086
889.695862	718.581604	999.520203	752.092102	11.928051
889.988892	714.717834	979.755676	746.667969	12.054933
890.281921	715.312317	962.517456	747.633911	13.074807
>>>>>End Processed Spectral Data<<<<<
