Jaz Data File
++++++++++++++++++++++++++++++++++++
Date: Fri Jun 04 17:04:53 2021
User: jaz
Dark Spectrum Present: Yes
Reference Spectrum Present: Yes
Processed Spectrum Present: Yes
Spectrometers: JAZA3586
Integration Time (usec): 122000 (JAZA3586)
Spectra Averaged: 10 (JAZA3586)
Boxcar Smoothing: 1 (JAZA3586)
Correct for Electrical Dark: No (JAZA3586)
Strobe/Lamp Enabled: Yes (JAZA3586)
Correct for Detector Non-linearity: No (JAZA3586)
Correct for Stray Light: No (JAZA3586)
Number of Pixels in Processed Spectrum: 2048
>>>>>Begin Processed Spectral Data<<<<<
W	D	R	S	P
191.335022	0.000000	0.000000	0.000000	0.000000
191.713211	230.487015	226.177490	224.988647	127.586403
192.091385	464.540619	461.122711	460.751190	110.869835
192.469528	699.262878	689.975098	693.318665	64.000366
192.847641	705.429993	700.228821	704.464111	18.570456
193.225739	712.637390	707.064697	713.231873	-10.667776
193.603790	720.067688	719.101746	722.148132	-215.379761
193.981842	730.247070	730.024231	732.550537	-1033.689453
194.359863	731.956055	737.157288	735.225403	62.857178
194.737854	743.324402	750.606140	744.438965	15.306276
195.115829	747.708252	749.045715	751.349121	272.221954
195.493774	751.200500	747.485352	749.194336	53.999573
195.871704	747.262451	748.451355	744.661865	-218.738129
196.249603	749.342957	748.897156	739.906494	2116.744141
196.627457	749.342957	748.599915	737.603088	1579.973755
197.005310	751.051941	736.711487	737.677429	93.264214
197.383133	746.073547	736.488586	738.197510	82.170784
197.760910	752.835144	744.438965	745.404846	88.496178
198.138687	747.039551	751.572083	748.748535	37.704853
198.516449	743.695862	751.274902	742.952881	-9.803101
198.894180	736.042725	739.906555	742.209778	159.609833
199.271866	747.039551	737.677429	744.067383	31.746735
199.649536	740.575256	732.327637	744.587585	-48.648327
200.027191	736.488586	738.049011	741.318176	309.504822
200.404816	724.154297	736.191406	736.340027	101.234688
200.782410	728.018066	753.726807	743.027161	58.381290
201.159988	731.807434	764.575012	745.627747	42.176788
201.537537	730.395752	777.132141	743.324402	27.662920
201.915070	730.172852	772.450989	740.129395	23.550098
202.292557	730.395752	769.999084	740.649597	25.891369
202.670029	734.036560	770.593506	747.262512	36.179039
203.047485	739.089111	774.828796	748.079773	25.155962
203.424911	743.027161	773.862854	747.931152	15.903621
203.802292	745.850769	771.782410	742.358459	-13.467368
204.179688	744.067383	772.079590	738.197571	-20.954479
204.557037	738.643372	773.268372	731.807556	-19.742428
204.934357	734.631042	775.125977	738.048889	8.440184
205.311661	729.727051	779.138367	742.358582	25.564045
205.688934	724.377197	775.200256	749.937317	50.292366
206.066177	722.965515	764.872253	745.330627	53.368774
206.443390	727.126465	762.494446	744.884766	50.210106
206.820587	730.098572	770.519226	740.872375	26.654203
207.197769	727.052063	775.868958	742.581360	31.811317
207.574921	730.990173	770.965027	740.055115	22.676609
207.952042	729.058289	761.602844	735.968445	21.232910
208.329147	729.355469	759.893860	736.042725	21.897865
208.706223	763.980530	802.617920	787.460266	60.769466
209.083267	763.089050	805.664368	797.788330	81.500931
209.460297	765.466614	806.630371	798.159851	79.422386
209.837280	723.337097	754.172607	741.020996	57.349136
210.214264	721.330872	751.497742	734.556641	43.842033
210.591217	715.163757	755.955872	734.928223	48.451683
210.968124	718.730225	770.147705	739.832275	41.040615
211.345016	724.525879	775.571777	737.454590	25.327620
211.721893	733.442200	771.039368	736.191406	7.312270
212.098724	733.070618	762.717468	732.847839	-0.751440
212.475555	735.968506	771.633789	739.832214	10.833248
212.852356	737.528809	771.485168	734.631042	-8.533795
213.229126	738.048889	778.023743	737.454407	-1.487141
213.605865	733.219238	765.169434	731.807434	-4.418766
213.982590	727.720886	772.228210	734.185242	14.524251
214.359283	718.655945	767.918640	734.779602	32.729954
214.735931	723.262695	760.711243	734.705322	30.555595
215.112579	714.569275	755.064209	733.813660	47.522945
215.489197	721.033630	757.590576	728.612488	20.731647
215.865799	718.433044	761.974426	726.309082	18.088625
216.242355	727.200684	759.299500	721.776672	-16.897854
216.618896	730.395752	755.732910	729.058350	-5.278423
216.995407	730.470032	754.469788	725.343201	-21.362013
217.371902	726.754883	761.677185	730.470032	10.638328
217.748367	720.513489	772.451111	727.572266	13.590874
218.124802	722.965515	772.896973	731.584656	17.261946
218.501236	726.606262	765.466614	724.228577	-6.118538
218.877609	729.949890	752.612244	729.578430	-1.639106
219.253983	726.680664	755.955872	730.321472	12.436489
219.630295	723.559875	760.042480	740.426697	46.232502
220.006592	720.959290	762.420227	730.693054	23.476954
220.382889	715.163635	757.739075	725.491760	24.258411
220.759140	715.758118	752.612305	723.782898	21.774406
221.135391	714.717957	753.652527	729.355469	37.595154
221.511581	715.089355	752.537903	732.922058	47.619209
221.887772	711.968750	755.807312	734.408142	51.186424
222.263931	716.278259	766.209656	737.528809	42.559494
222.640060	724.971680	773.565674	738.866394	28.593481
223.016159	730.990173	765.318054	740.352356	27.272823
223.392212	729.875671	756.921875	737.454590	28.022116
223.768265	723.559875	757.070496	738.271790	43.902245
224.144302	719.398926	765.763855	738.420471	41.025719
224.520294	717.169922	762.494568	741.763977	54.261990
224.896286	717.392761	766.878418	747.411072	60.660629
225.272217	722.668274	773.862793	741.689758	37.155315
225.648148	728.612488	779.658386	745.033447	32.169010
226.024048	729.801270	773.714172	735.596985	13.198206
226.399902	721.107910	764.500732	732.476257	26.198681
226.775772	712.265808	763.014648	716.501160	8.345711
227.151581	713.231750	759.819641	718.061523	10.367014
227.527374	710.333984	762.122986	718.878906	16.499491
227.903137	711.968689	767.175598	726.903503	27.052437
228.278870	711.151367	777.057861	733.962219	34.610931
228.654572	716.278259	776.834961	735.894104	32.392525
229.030273	716.724121	774.680176	737.974609	36.666553
229.405930	715.386536	767.398621	732.030334	31.999868
229.781555	717.095520	760.116882	741.020996	55.613014
230.157181	722.965515	755.732971	736.042725	39.909138
230.532761	722.668274	750.977539	742.432800	69.816460
230.908325	723.634094	763.460449	733.665039	25.186701
231.283859	719.398926	764.946533	740.500916	46.329525
231.659332	721.479431	769.479004	734.408142	26.935055
232.034821	719.176086	759.150940	736.340027	42.936844
232.410263	722.593933	756.030273	731.361755	26.222433
232.785690	722.668213	757.739075	730.767334	23.093590
233.161087	717.838623	762.123047	731.436035	30.704729
233.536469	713.231750	762.791748	729.652649	33.133373
233.911804	711.968567	762.717468	732.699219	40.849461
234.287140	725.045898	759.448059	724.674500	-1.079580
234.662430	727.497864	758.630798	730.024231	8.114774
235.037704	727.126465	763.683350	730.321472	8.739824
235.412933	720.067627	763.014648	732.699158	29.411890
235.788162	717.615723	766.655457	723.411316	11.818158
236.163345	719.324646	762.123047	726.680603	17.187458
236.538513	721.925293	765.466614	732.253235	23.719864
236.913635	725.714661	763.683350	745.850769	53.033459
237.288742	723.931458	769.999023	746.965332	50.000198
237.663834	720.959290	775.348877	747.485352	48.770477
238.038879	712.711731	774.977356	742.432800	47.732708
238.413910	716.426819	764.723633	731.584656	31.384756
238.788910	718.135803	758.928040	733.739441	38.251488
239.163879	724.897400	759.076599	732.104675	21.086729
239.538834	718.061523	760.488342	736.042786	42.381828
239.913757	723.114075	772.525391	737.157288	28.421045
240.288651	726.531982	778.989746	737.083008	20.113373
240.663528	732.104736	784.265198	741.987000	18.945889
241.038361	726.383484	771.410828	732.030457	12.541207
241.413177	718.804504	769.701843	736.042725	33.868607
241.787979	721.850891	766.729736	737.528809	34.933868
242.162735	719.919006	772.748291	744.067444	45.710323
242.537476	718.804504	764.946472	743.844543	54.267384
242.912170	713.454773	771.113586	744.438965	53.737129
243.286865	715.237976	769.850403	740.203674	45.714317
243.661514	714.272034	777.577942	741.169617	42.488266
244.036148	720.141907	782.556213	738.494690	29.404770
244.410751	716.649719	785.231140	739.683594	33.586174
244.785339	720.810730	785.825684	730.172852	14.399951
245.159882	716.724060	775.794739	736.860046	34.087955
245.534378	717.615662	774.085754	744.067383	46.841999
245.908890	714.569275	765.838196	754.915588	78.695457
246.283356	713.380432	770.667908	743.547363	52.658859
246.657791	716.946960	766.432617	737.825989	42.192081
247.032196	718.878906	782.927795	737.974609	29.814260
247.406586	715.906738	777.057800	736.934387	34.386402
247.780960	718.061523	784.785339	737.603088	29.287241
248.155289	716.352539	772.228210	729.206848	23.005198
248.529602	715.163635	773.937195	725.566101	17.699226
248.903870	714.569275	770.073425	725.343201	19.411028
249.278122	713.603333	769.627625	733.219238	35.013214
249.652344	715.683838	769.330383	736.637207	39.058189
250.026550	721.033630	773.268494	742.209900	40.540489
250.400711	731.138855	779.064026	742.581360	23.875772
250.774857	733.070618	785.379700	747.411072	27.414846
251.148987	718.432922	782.779114	742.061340	36.720772
251.523071	713.751953	781.441650	729.727051	23.600487
251.897125	718.358704	778.989746	727.943848	15.808971
252.271164	725.120300	772.451111	719.919128	-10.988977
252.645187	720.439148	767.621399	725.789001	11.338699
253.019165	709.368103	763.088928	728.686768	35.961220
253.393112	710.111084	777.132141	745.181946	52.328125
253.767044	714.494934	787.608887	754.469788	54.674725
254.140930	716.129578	795.039124	758.184998	53.295731
254.514801	715.089355	792.512756	752.017822	47.696777
254.888657	715.683777	782.927795	736.934387	31.602232
255.262466	727.869446	778.321045	732.773438	9.720191
255.636276	731.956116	777.726563	741.243958	20.292225
256.010010	735.299744	776.834961	752.389343	41.144844
256.383759	732.401855	776.834961	756.401672	54.013367
256.757446	729.132568	776.612000	744.959167	33.333591
257.131134	722.891113	785.454041	753.578125	49.049835
257.504791	720.810730	780.104248	743.918762	38.972275
257.878418	715.609558	773.416992	741.318176	44.472858
258.252014	720.884949	769.999084	730.470032	19.515936
258.625580	722.668274	783.893738	741.318176	30.461023
258.999115	729.132629	794.296082	747.113831	27.593998
259.372650	721.850891	804.401306	743.993164	26.822727
259.746124	716.278259	798.308411	738.866211	27.536158
260.119598	715.460938	806.927551	739.683594	26.482512
260.493042	721.925232	803.955383	744.884766	27.989140
260.866425	725.640320	810.865540	748.451355	26.765593
261.239838	724.005676	805.590088	745.107666	25.865223
261.613159	722.519714	808.562195	735.596985	15.198621
261.986511	722.742615	802.469421	727.200745	5.591758
262.359802	721.999512	790.878113	725.045898	4.422835
262.733063	721.405090	777.206482	727.795166	11.451463
263.106293	714.494934	778.246643	733.962219	30.536098
263.479523	716.649719	788.723328	733.962219	24.020582
263.852692	715.237976	794.296082	737.825989	28.571407
264.225861	715.163635	787.311584	729.281250	19.567591
264.598969	716.278137	779.955627	729.727051	21.120358
264.972076	709.293762	782.556213	722.445496	17.951534
265.345154	710.408386	798.085510	730.321472	22.711838
265.718201	712.563049	803.063782	738.197571	28.325209
266.091217	728.018066	812.500244	749.417297	25.329876
266.464203	736.711487	818.815979	746.147949	11.493236
266.837158	738.940613	817.404297	741.764099	3.598463
267.210114	728.835388	811.905823	737.751770	10.733521
267.583038	727.275085	802.246521	737.380188	13.478603
267.955902	718.433044	812.946045	739.089172	21.855330
268.328766	718.581604	820.153503	737.751709	18.873434
268.701569	711.002747	818.593079	742.655701	29.419888
269.074371	717.095520	810.642761	743.473083	28.197052
269.447144	718.804504	811.237061	745.107727	28.456665
269.819885	719.844727	814.580750	738.866272	20.078472
270.192596	719.027405	823.719910	735.299805	15.543042
270.565277	719.547546	835.831238	742.507141	19.744467
270.937927	722.816833	840.512390	743.324402	17.424250
271.310577	718.507324	838.803467	742.655762	20.074158
271.683136	713.900574	832.339111	738.791992	21.016317
272.055725	712.934570	836.648682	746.742371	27.327360
272.428284	712.414551	837.317383	744.141785	25.401533
272.800812	721.628113	837.317383	739.014832	15.028809
273.173279	725.268860	842.369934	738.123230	10.977159
273.545776	732.773438	850.394714	743.844543	9.412503
273.918152	732.476257	854.109802	752.612305	16.554682
274.290558	729.652649	848.834290	756.996094	22.942665
274.662964	729.206848	849.502991	759.819641	25.447859
275.035278	716.872620	849.354431	758.259277	31.239502
275.407593	718.804504	855.224365	749.045715	22.167747
275.779907	714.272034	855.298645	747.633972	23.656485
276.152161	721.330750	860.202637	739.312073	12.948137
276.524384	721.256531	861.242859	732.624817	8.120997
276.896606	718.284363	859.905334	726.383362	5.718785
277.268799	717.467102	863.546204	732.550537	10.325525
277.640930	711.225647	860.351135	739.312073	18.834087
278.013031	717.690125	862.134460	747.485352	20.627480
278.385162	719.919128	863.471985	745.479187	17.805328
278.757233	721.851013	868.747375	742.284180	13.909920
279.129272	720.364929	873.502747	735.671204	9.995098
279.501282	718.135742	867.038513	734.259460	10.828353
279.873230	719.696106	866.295593	734.036621	9.782104
280.245178	719.770508	872.091064	728.389587	5.658514
280.617126	720.587830	878.629700	725.045959	2.820854
280.988983	720.736389	893.490234	730.247131	5.505372
281.360870	723.559875	906.418884	744.736145	11.580654
281.732697	721.479309	909.391052	743.250183	11.585691
282.104492	723.411316	910.282654	736.414307	6.958259
282.476288	727.720886	907.533447	729.578430	1.033045
282.848053	730.470032	919.198975	737.826111	3.897695
283.219757	730.247131	917.341370	740.649597	5.560014
283.591461	724.302917	922.022461	739.312073	7.591134
283.963135	720.736389	911.991516	729.578430	4.623166
284.334747	722.742615	922.988464	736.785828	7.012986
284.706360	712.860352	934.505371	746.965149	15.387126
285.077942	721.553711	951.074890	759.745300	16.639679
285.449524	714.569275	948.028503	753.726807	16.772749
285.821014	715.683777	947.656982	745.404846	12.812285
286.192535	714.940735	953.526855	741.466858	11.118050
286.563995	713.380432	965.192383	743.770264	12.068462
286.935425	714.494934	965.043762	740.203674	10.260970
287.306824	709.888184	965.117981	743.250183	13.071358
287.678223	710.705566	962.591736	740.500977	11.828918
288.049561	718.581604	964.523621	743.695984	10.211504
288.420898	720.662109	968.758789	738.494812	7.187804
288.792145	726.680664	973.365540	744.290344	7.138533
289.163452	722.816895	974.182922	742.507080	7.833272
289.534668	723.857117	977.600891	742.581360	7.379193
289.905914	717.987122	984.956848	748.451233	11.411074
290.277039	717.764343	997.811218	757.962097	14.353938
290.648193	722.148193	1011.260010	766.952637	15.497272
291.019318	729.727051	1023.742859	759.745361	10.209761
291.390381	732.253357	1021.736633	749.937317	6.108802
291.761475	727.497986	1015.941101	742.655762	5.255031
292.132507	725.714600	1013.711975	736.637207	3.792607
292.503510	723.559875	1017.129944	736.711487	4.479888
292.874481	733.962219	1020.993713	743.770203	3.417041
293.245422	733.516418	1020.547913	742.432800	3.106412
293.616364	734.408142	1026.120483	739.980774	1.910317
293.987213	719.250305	1029.835693	736.711487	5.622023
294.358093	715.832458	1049.748779	734.928284	5.718746
294.728943	709.888184	1070.182007	739.683594	8.269753
295.099731	711.448547	1094.033203	736.934387	6.661490
295.470490	715.089355	1101.240723	749.863098	9.005210
295.841248	720.959290	1111.345825	745.850769	6.376111
296.211975	716.575439	1125.389038	737.231628	5.052716
296.582642	713.900574	1131.779053	728.241028	3.431728
296.953308	716.575439	1146.862427	733.367920	3.902623
297.323883	719.176025	1147.382690	738.569031	4.528889
297.694519	716.649719	1166.181274	738.420410	4.842973
298.065063	711.597168	1170.639404	732.179016	4.483650
298.435608	715.683777	1169.450562	734.185242	4.077307
298.806122	714.569275	1152.063599	733.813660	4.398774
299.176575	716.278137	1129.327026	743.547363	6.601937
299.547028	709.442383	1123.531494	738.791992	7.087752
299.917450	708.327820	1130.664551	737.603210	6.931765
300.287872	705.058411	1136.311523	728.463928	5.427327
300.658234	711.894348	1133.933960	732.401917	4.859157
301.028564	713.454773	1128.732544	735.745544	5.367678
301.398865	720.141907	1118.776001	735.745605	3.914291
301.769135	721.405090	1120.484985	738.866211	4.375345
302.139374	727.126404	1119.147583	742.804260	3.999237
302.509583	728.983948	1130.515869	750.160339	5.273900
302.879791	727.572266	1142.032837	751.274719	5.718868
303.249939	731.436035	1147.679810	752.612305	5.087468
303.620087	722.371094	1145.450806	751.051941	6.779065
303.990173	721.850891	1131.704712	745.702148	5.819455
304.360260	717.021240	1141.364136	751.720642	8.177208
304.730286	722.296692	1152.286621	752.909485	7.119421
305.100281	726.531982	1157.116333	761.231262	8.058649
305.470276	729.281189	1153.624023	748.674133	4.570112
305.840179	733.293518	1157.859253	740.649475	1.732584
306.210144	727.943787	1163.506348	730.172852	0.511767
306.579987	733.590759	1178.441284	736.562805	0.668100
306.949890	733.070618	1179.109985	746.816711	3.081812
307.319702	735.894226	1200.286133	751.126282	3.280000
307.689484	729.652771	1199.543091	742.581360	2.751406
308.059265	731.213074	1214.329224	742.729980	2.383879
308.429016	730.172852	1223.171265	740.055115	2.004522
308.798737	728.315247	1238.477661	742.061218	2.694431
309.168396	722.593933	1257.053345	742.209900	3.670244
309.538055	726.011902	1273.994507	744.810547	3.430519
309.907684	725.937561	1290.266724	744.141785	3.225816
310.277313	719.844727	1300.297485	744.959167	4.326698
310.646851	711.374207	1314.340698	739.163513	4.608765
311.016388	709.516663	1327.418091	746.667969	6.012497
311.385895	717.764343	1336.111450	745.776367	4.530146
311.755371	716.575439	1333.436646	750.754700	5.540835
312.124817	712.860291	1330.167358	743.027161	4.886850
312.494232	712.563049	1334.328247	740.352295	4.469411
312.863617	719.027344	1329.795776	741.020996	3.600981
313.232971	727.720764	1324.000244	744.884766	2.878516
313.602295	725.491760	1318.947632	739.014832	2.278699
313.971619	729.875671	1328.235352	738.271790	1.403189
314.340820	730.767273	1338.860718	744.364563	2.236053
314.710083	739.460693	1354.092651	752.686523	2.151829
315.079285	727.943665	1370.959473	752.389343	3.801723
315.448486	730.098572	1393.918945	745.479187	2.316984
315.817596	719.696106	1393.919067	737.231628	2.600849
316.186707	721.107910	1373.560181	733.962219	1.970153
316.555786	713.083191	1353.498413	734.333801	3.318255
316.924866	712.042969	1334.402466	734.482422	3.605545
317.293884	721.405090	1337.523071	738.494690	2.773754
317.662872	726.086182	1336.037231	747.856873	3.569252
318.031830	722.073792	1354.464355	750.085938	4.429564
318.400757	719.919128	1366.575684	748.302673	4.389277
318.769684	716.203918	1378.538452	741.541199	3.825451
319.138550	723.559875	1372.742798	741.095398	2.701168
319.507416	713.380432	1379.875854	740.946716	4.136005
319.876190	706.916016	1375.714844	746.890930	5.977121
320.244995	711.076965	1395.479492	755.510071	6.492248
320.613770	722.445313	1386.563110	760.042542	5.661229
320.982483	726.977844	1387.083130	752.389343	3.849613
321.351166	716.278259	1376.160767	745.033386	4.357613
321.719818	709.070801	1377.498169	736.562805	4.112938
322.088440	707.882019	1390.501099	737.900330	4.397520
322.457062	715.980957	1405.733276	738.271790	3.231715
322.825623	721.107910	1423.194336	746.965271	3.682931
323.194183	733.665039	1440.135376	746.667969	1.840549
323.562653	735.225403	1464.432251	742.432800	0.988389
323.931183	732.922058	1502.847046	740.575195	0.994011
324.299591	718.507324	1541.335815	740.575195	2.681953
324.668060	715.312317	1560.505859	743.250183	3.305499
325.036407	716.203918	1577.818359	743.547363	3.173513
325.404755	723.337097	1577.446655	739.089172	1.844269
325.773102	724.154297	1577.298218	744.438965	2.377637
326.141388	719.547546	1577.298218	747.782654	3.291762
326.509674	717.541443	1580.864624	756.253113	4.484030
326.877899	724.005676	1594.833618	755.732971	3.643348
327.246124	732.699158	1595.799683	749.268616	1.919760
327.614288	735.151123	1602.338257	748.451355	1.533721
327.982422	723.262695	1606.944946	749.714417	2.993352
328.350525	720.885010	1610.362915	753.652527	3.683905
328.718628	724.600098	1610.585938	754.172607	3.337808
329.086700	725.789001	1613.186523	752.983704	3.064546
329.454712	722.668274	1621.136719	750.606140	3.109499
329.822693	716.352539	1631.613403	742.878601	2.898197
330.190674	720.810730	1640.381226	743.398743	2.456366
330.558563	722.593933	1649.594727	750.903320	3.053869
330.926483	721.330811	1659.922852	757.962097	3.902791
331.294312	719.919128	1682.213745	757.293274	3.883857
331.662231	719.398926	1709.482788	756.624573	3.759848
332.029999	714.866455	1726.572266	752.463623	3.716215
332.397766	716.723938	1733.259644	751.572021	3.428122
332.765503	722.519714	1748.566040	747.633972	2.447673
333.133240	728.909668	1776.801147	743.918884	1.432325
333.500916	722.816895	1809.048462	745.627747	2.099999
333.868561	718.804504	1823.760254	748.302734	2.669630
334.236176	717.541321	1832.230835	758.630798	3.686182
334.603790	724.971680	1825.171875	752.092102	2.465044
334.971344	721.553711	1826.955200	761.528564	3.616320
335.338867	720.885010	1840.775757	765.689453	4.000787
335.706360	715.981018	1860.391602	773.937195	5.064281
336.073853	713.677551	1862.323242	769.701843	4.877421
336.441284	716.278259	1869.307739	767.472839	4.440006
336.808655	717.169922	1865.741211	775.646179	5.091217
337.176086	724.748779	1844.936523	779.807129	4.915100
337.543396	720.885071	1784.825562	779.732727	5.531105
337.910706	720.142029	1746.336914	778.618164	5.698346
338.277954	721.925293	1783.934082	769.330383	4.463719
338.645264	732.179016	1862.174805	769.404724	3.294322
339.012421	730.767273	1949.406250	769.107483	3.146150
339.379669	724.748779	2005.430298	784.265198	4.647246
339.746796	721.850891	2044.810913	801.206238	5.998318
340.113953	730.544434	2072.525635	810.568359	5.963118
340.481018	726.606262	2078.469971	807.150391	5.958006
340.848114	726.309082	2082.333740	799.868835	5.424662
341.215118	720.810730	2077.801270	798.085510	5.694571
341.582153	733.367859	2084.711670	798.531433	4.822132
341.949066	730.767273	2096.525391	801.652100	5.190145
342.316010	728.909668	2109.899902	802.320801	5.315833
342.682922	724.600159	2118.073242	808.487854	6.020044
343.049835	719.770508	2132.488037	815.620911	6.784824
343.416656	727.572266	2172.314453	828.995544	7.020164
343.783478	727.126404	2213.775391	839.843689	7.581971
344.150269	731.287354	2273.291992	846.902527	7.497719
344.516998	721.479431	2325.303711	847.794128	7.875844
344.883728	723.782776	2383.334229	855.150085	7.915832
345.250427	726.829285	2420.411133	861.614319	7.958579
345.617065	731.584656	2429.847656	857.602051	7.420370
345.983704	722.593994	2429.178955	857.750671	7.919716
346.350281	713.826233	2427.395752	858.493652	8.442460
346.716827	711.894348	2430.813477	872.982666	9.371489
347.083405	708.327820	2419.296631	879.967102	10.031702
347.449860	730.024170	2404.882080	902.703796	10.310106
347.816376	732.253235	2378.578857	910.951416	10.854364
348.182770	733.293518	2372.634521	907.236328	10.610532
348.549194	712.785950	2363.643799	897.651184	11.198132
348.915558	712.042969	2378.207275	896.610901	11.077415
349.281921	724.525879	2391.581787	911.545715	11.218570
349.648193	728.463867	2404.287354	916.747009	11.235261
350.014526	731.807556	2431.853760	929.304138	11.617130
350.380737	719.696228	2463.581055	929.006897	12.002552
350.746948	722.073792	2504.596191	938.294739	12.130054
351.113159	717.764343	2523.246094	940.672546	12.346190
351.479309	720.142029	2535.729248	961.848816	13.312872
351.845428	714.049133	2560.620361	967.941589	13.749399
352.211517	712.934570	2583.654297	977.377991	14.135919
352.577576	707.584778	2615.827393	978.566833	14.200607
352.943604	711.597168	2642.130615	993.130127	14.583169
353.309601	714.643555	2677.870117	1011.111389	15.101050
353.675537	716.872620	2730.030518	1035.036987	15.804242
354.041473	715.980957	2781.968018	1043.358765	15.846072
354.407379	715.832336	2841.930664	1058.962402	16.138956
354.773254	728.761047	2897.583252	1061.340210	15.334551
355.139038	732.253235	2951.155518	1079.172729	15.634735
355.504913	727.943787	3019.811279	1097.525513	16.125790
355.870636	717.912903	3082.522705	1117.512817	16.899191
356.236389	711.002747	3139.141357	1133.785156	17.411791
356.602081	718.507324	3206.756836	1149.091553	17.304705
356.967804	723.708496	3273.555420	1160.979980	17.148932
357.333405	723.931458	3357.145752	1182.825073	17.427128
357.699036	715.683838	3429.962158	1203.481079	17.971527
358.064606	707.584900	3519.348389	1229.784302	18.571953
358.430176	704.909912	3590.010498	1251.852173	18.957476
358.795654	707.436218	3639.347412	1269.684937	19.176868
359.161163	711.522766	3637.043945	1292.718750	19.866407
359.526581	714.940735	3647.372070	1302.155151	20.024830
359.892029	720.216248	3674.566406	1319.765015	20.293762
360.257416	716.055359	3730.516357	1345.027832	20.865173
360.622772	721.033508	3817.004883	1377.349609	21.199036
360.988098	718.655945	3926.973389	1401.646606	21.288126
361.353394	722.148193	4093.262695	1433.002319	21.086620
361.718658	721.851013	4248.629883	1469.262085	21.192457
362.083893	722.593994	4386.684082	1512.060425	21.546043
362.449097	729.355530	4464.107910	1540.443970	21.717327
362.814209	726.829163	4487.810059	1553.595581	21.982733
363.179382	724.748718	4399.761230	1532.493652	21.979380
363.544434	725.120178	4251.898926	1501.806641	22.022545
363.909546	728.909668	4063.912842	1469.559204	22.208361
364.274536	731.658875	3917.387939	1455.664673	22.726534
364.639587	723.114075	3795.680420	1444.444946	23.476494
365.004517	721.925293	3723.458252	1436.197266	23.796906
365.369507	713.008972	3685.563721	1428.321167	24.063887
365.734344	718.284424	3670.702881	1423.937378	23.900845
366.099274	718.804504	3662.677734	1437.311890	24.406872
366.464081	724.823059	3642.839111	1457.299316	25.101858
366.828918	724.228699	3642.319336	1473.720215	25.684313
367.193665	723.857117	3642.022217	1478.772827	25.869534
367.558411	723.188416	3672.263428	1493.558960	26.122448
367.923126	711.151306	3677.984619	1497.719849	26.512058
368.287781	710.036804	3693.068115	1514.066528	26.953445
368.652435	707.361877	3668.473877	1508.939575	27.070158
369.017059	725.120300	3666.170654	1520.976929	27.060286
369.381653	729.058289	3654.430664	1526.772461	27.268808
369.746185	733.887939	3670.925781	1525.955078	26.968231
370.110687	731.138672	3681.699951	1532.790894	27.169481
370.475220	731.435974	3704.807861	1539.552368	27.178452
370.839661	736.117004	3733.489014	1566.747192	27.711948
371.204041	735.299805	3772.052002	1588.294922	28.089060
371.568451	729.949890	3812.918701	1606.722046	28.439217
371.932770	730.024231	3870.131592	1611.180176	28.061331
372.297150	727.646484	3893.313721	1606.944946	27.776087
372.661377	729.206848	3920.063232	1619.576538	27.903784
373.025696	725.120300	3932.620361	1641.495605	28.569767
373.389862	723.039734	3949.932617	1657.322266	28.953009
373.754059	725.937561	3963.232666	1654.201660	28.674065
374.118225	718.581543	3972.966553	1656.059082	28.806597
374.482361	724.154297	4007.368896	1667.056030	28.718859
374.846436	723.857117	4044.222656	1681.024780	28.827177
375.210510	732.104736	4112.878418	1698.857422	28.595606
375.574524	733.962219	4185.546387	1723.674438	28.674143
375.938538	726.680664	4264.901855	1749.829102	28.917028
376.302460	728.166687	4350.647461	1786.088867	29.204355
376.666412	718.061523	4461.209961	1813.283569	29.259380
377.030304	721.851013	4553.939941	1844.565063	29.297705
377.394196	714.717957	4636.267090	1860.465820	29.216715
377.757996	723.782776	4714.656738	1888.032227	29.172796
378.121796	722.891174	4779.671387	1902.223999	29.070660
378.485565	728.018066	4798.023926	1912.849243	29.111290
378.849304	721.182190	4764.810547	1905.864868	29.297514
379.212982	722.668274	4704.997070	1887.809204	29.257776
379.576630	719.398926	4624.006836	1880.156128	29.727880
379.940277	718.358704	4554.311035	1864.701172	29.884171
380.303864	710.259583	4499.104004	1862.546387	30.412621
380.667450	709.070801	4498.286621	1847.239868	30.037062
381.030945	711.745789	4500.887207	1845.085327	29.910196
381.394501	717.318420	4539.004395	1860.911743	29.923788
381.757935	718.358704	4560.849609	1880.304688	30.239395
382.121399	720.216248	4565.382324	1898.062988	30.631882
382.484741	719.993347	4583.437500	1912.700562	30.871607
382.848145	724.451477	4606.396973	1928.824219	31.024979
383.211487	719.696106	4669.108887	1958.991211	31.379225
383.574768	720.216248	4726.693359	1994.805054	31.813208
383.938019	715.832458	4791.336426	2026.755249	32.165909
384.301270	719.176086	4855.534180	2055.064453	32.296249
384.664459	721.776672	4903.235840	2076.092285	32.388592
385.027649	720.587830	4953.984863	2108.785400	32.791573
385.390778	724.228699	5000.350098	2138.209473	33.066898
385.753876	717.244141	5045.377441	2172.685791	33.627468
386.116943	717.169861	5073.315430	2199.434814	34.026981
386.479980	716.352539	5084.832031	2219.347900	34.405457
386.842987	723.262695	5123.098145	2231.756592	34.285233
387.205994	724.154358	5148.361328	2250.703613	34.504475
387.568909	720.513489	5196.509277	2280.201904	34.845623
387.931793	722.965515	5216.868652	2308.957031	35.292068
388.294678	724.005676	5265.685059	2335.854736	35.490158
388.657471	721.256592	5300.607422	2354.727539	35.670361
389.020294	724.302979	5325.350098	2365.650146	35.673340
389.383057	722.742615	5348.161621	2383.556885	35.906242
389.745819	721.182190	5354.922363	2406.145020	36.362911
390.108521	717.021240	5363.021484	2430.813721	36.887482
390.471191	713.231873	5419.565918	2455.556396	37.020844
390.833801	719.547546	5494.908691	2486.466309	37.000732
391.196442	712.785950	5624.642090	2545.908447	37.320366
391.558960	717.467041	5719.897949	2606.836670	37.769032
391.921509	714.123474	5840.713379	2673.783447	38.225407
392.284027	723.634216	5935.672363	2717.547852	38.255928
392.646484	715.535217	6025.355957	2747.789063	38.273495
393.008911	716.501160	6068.525879	2765.027100	38.275715
393.371307	710.631287	6079.225098	2773.274658	38.420551
393.733673	714.049133	6051.659668	2776.989990	38.649147
394.096008	713.603333	6013.914063	2779.887695	38.984215
394.458344	711.820129	6007.078125	2797.274414	39.383434
394.820587	720.587830	6015.771484	2822.017578	39.685680
395.182831	721.776672	6059.312500	2849.509033	39.863571
395.545013	723.857178	6078.482910	2851.886963	39.741894
395.907196	723.485657	6058.940918	2851.886719	39.891651
396.269287	722.742493	5998.310059	2831.825195	39.978310
396.631409	723.931458	5915.759277	2825.583984	40.480015
396.993469	721.107910	5840.342285	2793.782227	40.487976
397.355530	719.919128	5798.732910	2769.856689	40.362522
397.717499	717.838623	5776.664551	2764.284180	40.452972
398.079468	716.872742	5775.624512	2781.076416	40.804604
398.441376	716.575439	5770.572266	2804.555908	41.313450
398.803284	713.900574	5791.079590	2807.231201	41.230190
399.165131	713.528992	5823.029785	2827.961670	41.382370
399.526978	720.141907	5846.806152	2846.166016	41.469933
399.888763	722.593994	5863.895996	2872.320313	41.812881
400.250519	722.222473	5869.691895	2886.735107	42.050037
400.612244	730.024231	5887.450684	2909.025635	42.249783
400.973938	725.937561	5903.054199	2916.456055	42.311554
401.335602	718.135742	5918.880371	2936.369141	42.652225
401.697205	707.956299	5968.588379	2949.223633	42.604527
402.058807	713.306152	6010.718750	2983.625732	42.857140
402.420349	716.649719	6086.209473	3009.260498	42.696442
402.781860	706.990417	6158.580566	3050.052490	42.979424
403.143341	706.767517	6249.527344	3094.931396	43.086185
403.504822	707.882019	6347.235840	3147.462891	43.259933
403.866241	715.832458	6450.813965	3213.666748	43.554356
404.227631	713.008972	6572.001465	3267.387695	43.597572
404.588959	717.244141	6701.213379	3325.269531	43.583534
404.950287	712.711731	6810.513184	3357.516846	43.373096
405.311554	713.454773	6898.189941	3386.346436	43.217560
405.672821	715.460938	6957.781250	3406.333984	43.106937
406.034027	716.575378	6958.152344	3423.646484	43.371586
406.395203	717.169861	6928.580078	3406.556885	43.297527
406.756348	712.414551	6880.729004	3394.668213	43.484386
407.117493	710.631287	6859.479004	3377.355713	43.369499
407.478516	716.724060	6842.760254	3389.913086	43.636520
407.839600	724.451477	6856.060547	3399.646484	43.629578
408.200592	736.711426	6854.054688	3415.919189	43.796917
408.561554	730.767273	6851.082031	3432.785889	44.148357
408.922485	726.160461	6863.416504	3439.175781	44.205673
409.283417	719.398926	6888.159668	3445.639893	44.194305
409.644257	720.736328	6970.486816	3476.030029	44.086460
410.005096	721.033508	7047.613281	3522.840576	44.286285
410.365906	719.250305	7117.309082	3555.682617	44.332703
410.726715	721.925232	7198.224609	3588.004150	44.254887
411.087433	718.358704	7252.763184	3621.217529	44.424232
411.448120	717.838562	7339.994141	3666.096436	44.521118
411.808807	720.142029	7363.622559	3694.925537	44.777485
412.169434	727.869446	7373.876465	3689.204346	44.558109
412.530029	733.070618	7377.814453	3689.650146	44.495014
412.890564	720.141907	7367.188965	3671.074463	44.394642
413.251099	718.358704	7364.811035	3677.761719	44.526058
413.611572	717.318420	7390.074219	3689.427002	44.540947
413.972076	728.092346	7435.398926	3724.200928	44.669327
414.332489	726.457703	7487.113281	3753.699219	44.777336
414.692871	720.959290	7576.275879	3785.129150	44.697716
415.053223	717.764343	7669.452637	3829.041992	44.755711
415.413574	713.306152	7822.961426	3902.081787	44.851341
415.773834	717.318420	7917.920410	3974.081055	45.229034
416.134094	720.513489	8051.220215	4046.229248	45.366920
416.494263	717.615662	8160.519531	4102.921875	45.483673
416.854462	718.730225	8349.397461	4196.915039	45.581661
417.214630	719.027405	8553.581055	4276.716309	45.410233
417.574738	725.343201	8772.477539	4375.389648	45.358337
417.934784	729.875671	8990.407227	4469.308594	45.268673
418.294861	723.337097	9240.137695	4601.864746	45.539722
418.654846	716.575500	9558.079102	4730.408203	45.397625
419.014832	716.724121	9877.952148	4877.750488	45.419960
419.374756	718.730225	10237.354492	5033.266113	45.327309
419.734680	732.922058	10581.004883	5229.202637	45.656406
420.094543	726.160461	10927.034180	5396.309082	45.781845
420.454376	725.120300	11228.032227	5549.818848	45.936771
420.814148	715.981018	11559.497070	5683.118652	45.807446
421.173920	715.386658	11920.906250	5834.992676	45.688251
421.533691	717.987244	12291.676758	5998.013184	45.620941
421.893341	721.330872	12594.088867	6130.643066	45.560703
422.253021	722.742615	12816.253906	6232.214844	45.557255
422.612640	723.262695	12927.261719	6282.814941	45.555168
422.972260	725.268860	12945.539063	6290.542969	45.541332
423.331757	724.079895	12912.030273	6295.224121	45.710262
423.691315	732.922058	12908.461914	6324.498535	45.924671
424.050781	739.386292	12956.610352	6367.371582	46.065994
424.410248	739.237793	13025.192383	6383.941406	45.944363
424.769653	732.401917	13120.895508	6417.897949	45.893364
425.128998	723.188477	13201.141602	6461.958984	45.991280
425.488373	727.572266	13199.209961	6472.064453	46.060448
425.847656	722.816895	13100.757813	6393.377441	45.811821
426.206940	724.302979	12962.333008	6310.678223	45.647663
426.566193	719.473328	12743.140625	6234.146973	45.865158
426.925385	715.683777	12529.296875	6166.902832	46.143539
427.284576	714.792175	12237.510742	6042.520020	46.236729
427.643677	722.742615	12006.874023	5931.585938	46.160778
428.002777	731.733215	11777.575195	5823.625000	46.097813
428.361847	727.720886	11525.096680	5726.511230	46.296345
428.720856	719.473206	11282.348633	5628.505371	46.474396
429.079865	715.015076	11079.723633	5556.357422	46.709873
429.438812	719.473328	10963.588867	5513.187500	46.794811
429.797760	717.912903	10911.131836	5480.643066	46.724495
430.156616	720.067688	10807.850586	5431.677246	46.706093
430.515503	723.708496	10723.887695	5402.921875	46.791294
430.874268	729.058350	10689.783203	5386.798340	46.761059
431.233093	726.234802	10712.817383	5410.724121	46.907829
431.591827	720.587830	10724.186523	5440.147949	47.178623
431.950562	722.742493	10733.770508	5461.992188	47.340286
432.309204	718.358704	10798.414063	5492.085449	47.358135
432.667877	718.210144	10929.855469	5525.373047	47.075302
433.026459	714.346375	11049.038086	5586.820801	47.146782
433.385010	721.182129	11150.312500	5626.944824	47.039036
433.743561	722.296692	11300.403320	5682.003418	46.886524
434.102051	723.559875	11435.932617	5743.154785	46.857914
434.460510	723.039734	11606.828125	5828.306152	46.907074
434.818939	721.330750	11670.727539	5872.441406	47.044701
435.177338	717.541321	11730.467773	5893.171875	46.995956
435.535675	717.392822	11705.500977	5883.512207	47.015545
435.894012	719.770508	11664.338867	5871.400879	47.070202
436.252289	721.107910	11667.831055	5885.593262	47.178371
436.610535	719.844727	11648.957031	5898.521973	47.384243
436.968719	730.618652	11755.953125	5954.843262	47.383823
437.326935	732.401917	11857.526367	6026.024902	47.582600
437.685028	739.237793	11981.015625	6075.733887	47.470219
438.043152	731.807556	12061.784180	6129.380371	47.639751
438.401215	731.138733	12212.246094	6189.193848	47.539448
438.759277	722.593933	12397.929688	6271.298340	47.525009
439.117249	724.525818	12676.862305	6411.061035	47.576763
439.475250	722.222473	12889.515625	6523.630371	47.680347
439.833130	731.138733	13180.708008	6687.095703	47.840668
440.191071	732.847839	13388.831055	6787.775879	47.842415
440.548889	733.070618	13634.176758	6881.175293	47.655636
440.906708	725.268860	13872.094727	6995.898438	47.696907
441.264496	716.946960	14076.426758	7077.557129	47.611214
441.622223	723.188416	14273.403320	7153.791504	47.457573
441.979950	726.457703	14351.198242	7183.512207	47.392132
442.337616	732.401855	14424.609375	7230.248535	47.456532
442.695251	735.299744	14342.356445	7229.729004	47.728390
443.052887	728.018066	14218.717773	7184.330566	47.857510
443.410461	718.061462	14091.362305	7131.129395	47.954262
443.768005	715.163635	13973.742188	7090.411621	48.083950
444.125458	726.457703	13913.333008	7075.847656	48.149315
444.482941	730.544373	13915.190430	7073.693359	48.110119
444.840393	726.829285	13994.249023	7125.333496	48.227196
445.197754	715.163757	14194.344727	7224.899902	48.294746
445.555084	713.157532	14387.458008	7341.777344	48.475018
445.912415	702.829407	14676.421875	7493.355469	48.595417
446.269714	709.888184	14878.749023	7590.468750	48.561279
446.626953	710.333984	15178.485352	7726.294434	48.492447
446.984161	720.290527	15436.167969	7846.070313	48.422394
447.341309	722.816895	15668.364258	7953.585938	48.380760
447.698456	724.080017	15840.449219	8035.393066	48.366859
448.055542	727.423584	16005.028320	8109.844238	48.321850
448.412598	730.990173	16030.589844	8117.869141	48.281517
448.769653	733.813660	15932.213867	8075.442871	48.305279
449.126617	729.355530	15712.203125	7960.496094	48.262791
449.483582	726.160461	15554.532227	7909.078613	48.440369
449.840515	727.646545	15353.541992	7812.782715	48.442410
450.197388	726.309082	15152.032227	7730.455078	48.553173
450.554230	726.606262	14989.831055	7658.826660	48.602055
450.911041	726.457703	14853.782227	7611.050781	48.732464
451.267822	724.005676	14756.965820	7601.392090	49.008808
451.624573	715.089355	14626.862305	7540.463379	49.061855
451.981262	712.414551	14549.585938	7503.683105	49.079887
452.337921	715.535156	14444.522461	7432.575684	48.925972
452.694580	721.627991	14404.401367	7405.157715	48.846310
453.051147	719.324646	14404.624023	7421.058594	48.970310
453.407715	720.216309	14388.870117	7411.324707	48.952209
453.764221	722.668213	14430.331055	7454.345703	49.108864
454.120728	730.618652	14278.234375	7388.513672	49.144405
454.477142	728.686829	14235.137695	7388.365234	49.307388
454.833557	727.126465	14092.700195	7336.056641	49.447411
455.189911	721.479492	14005.096680	7290.509277	49.452118
455.546265	723.931458	13853.147461	7233.816406	49.583195
455.902557	731.658875	13733.965820	7173.779297	49.545982
456.258820	726.532043	13737.979492	7195.921387	49.720749
456.615051	723.485596	13795.042969	7229.431641	49.771774
456.971252	717.244202	13810.127930	7253.060059	49.918842
457.327393	721.256531	13907.090820	7325.134277	50.083126
457.683502	721.033691	14068.700195	7431.164063	50.271938
458.039612	719.844788	14404.176758	7604.289063	50.308952
458.395630	719.770508	14727.096680	7774.962402	50.367870
458.751648	715.460938	15093.483398	7953.884277	50.343662
459.107605	716.278259	15578.084961	8229.621094	50.554707
459.463562	715.089355	16120.569336	8486.485352	50.445660
459.819458	720.216309	16598.113281	8702.112305	50.270489
460.175323	718.953125	17054.109375	8886.084961	49.997269
460.531158	714.717834	17476.150391	9088.559570	49.958988
460.886932	709.962463	17840.677734	9264.804688	49.938614
461.242676	705.355713	18062.992188	9377.375000	49.960831
461.598419	717.169861	18080.230469	9382.278320	49.905422
461.954102	721.033630	17877.681641	9280.038086	49.887394
462.309723	726.309082	17431.417969	9067.533203	49.932175
462.665344	714.197754	16919.472656	8846.853516	50.185238
463.020905	719.324707	16445.496094	8668.006836	50.544292
463.376373	718.581604	16068.484375	8529.061523	50.882931
463.731873	719.919006	15752.176758	8380.827148	50.963123
464.087341	713.677673	15537.741211	8256.889648	50.884914
464.442749	716.055359	15425.320313	8184.964844	50.776909
464.798126	715.758118	15345.815430	8143.652344	50.771461
465.153503	716.724060	15385.270508	8158.661621	50.733978
465.508820	714.569275	15409.046875	8151.900391	50.613102
465.864105	721.553711	15494.272461	8201.088867	50.630730
466.219330	725.863342	15673.565430	8296.418945	50.646954
466.574524	730.470032	15803.445313	8394.572266	50.846642
466.929657	725.343201	15982.737305	8467.760742	50.745346
467.284790	725.268860	16165.448242	8562.645508	50.759621
467.639893	723.188416	16380.554688	8660.577148	50.694279
467.994934	724.748718	16620.107422	8782.285156	50.691128
468.349945	725.194519	16730.521484	8841.355469	50.709126
468.704926	721.330811	16804.601563	8871.596680	50.675426
469.059875	724.154297	16657.035156	8821.961914	50.824505
469.414764	721.851013	16508.205078	8748.328125	50.844398
469.769653	722.296692	16331.070313	8693.046875	51.065830
470.124451	718.284424	16236.928711	8661.541992	51.185257
470.479248	719.696106	16070.862305	8610.942383	51.404865
470.834015	715.386536	15990.391602	8538.720703	51.216572
471.188721	711.374207	16049.610352	8552.764648	51.123158
471.543365	710.705505	16116.184570	8595.784180	51.183598
471.898010	710.185364	16199.627930	8685.245117	51.487068
472.252625	713.231750	16289.979492	8732.129883	51.479923
472.607178	704.315430	16511.625000	8821.887695	51.353283
472.961700	702.606506	16693.369141	8901.020508	51.269688
473.316193	707.361877	16934.630859	9057.204102	51.455620
473.670654	717.095520	17110.505859	9170.218750	51.564152
474.025055	724.600098	17379.927734	9301.808594	51.498287
474.379456	717.764343	17589.980469	9410.067383	51.518440
474.733795	724.302979	17769.646484	9527.836914	51.647736
475.088104	728.092346	17906.880859	9601.917969	51.655708
475.442383	738.494812	17908.666016	9601.100586	51.616287
475.796570	731.361633	17973.828125	9618.635742	51.542942
476.150787	725.640381	18069.083984	9676.591797	51.610001
476.504944	723.634277	18251.794922	9777.643555	51.654079
476.859070	731.361633	18448.919922	9881.592773	51.644989
477.213135	735.299805	18647.306641	10013.628906	51.799492
477.567200	726.086182	18960.271484	10197.677734	51.944145
477.921173	722.296814	19336.984375	10358.915039	51.768894
478.275146	717.169861	19762.443359	10572.980469	51.749378
478.629089	730.618652	20095.392578	10697.362305	51.468426
478.983002	731.435974	20490.089844	10906.227539	51.495369
479.336823	729.058289	20860.193359	11084.034180	51.437614
479.690643	720.810730	21228.660156	11307.461914	51.622437
480.044403	718.878906	21614.884766	11545.156250	51.810272
480.398163	723.262695	22142.359375	11859.828125	51.993626
480.751862	721.628113	22894.599609	12270.351563	52.084694
481.105499	717.912903	23808.226563	12763.499023	52.167267
481.459137	719.993408	24988.375000	13390.019531	52.207958
481.812744	720.810730	26433.046875	14220.872070	52.504425
482.166290	730.544434	28209.771484	15213.629883	52.705582
482.519806	727.795166	30341.294922	16374.757813	52.837261
482.873291	729.727051	32770.546875	17667.478516	52.863041
483.226715	719.844788	35465.433594	19136.292969	53.003696
483.580139	719.027527	38193.453125	20611.947266	53.083988
483.933502	719.027405	41202.191406	22173.343750	52.995651
484.286804	725.789063	44150.894531	23703.087891	52.912476
484.640106	724.525879	46969.718750	25232.681641	52.996117
484.993347	724.674500	49013.937500	26374.123047	53.116261
485.346558	717.169861	50221.359375	27074.648438	53.242924
485.699738	721.479431	50366.027344	27177.630859	53.291153
486.052887	720.439148	49661.265625	26827.962891	53.345078
486.405975	718.730164	48318.468750	26081.294922	53.282990
486.759064	715.312256	46491.359375	25072.787109	53.210087
487.112061	711.894348	44614.625000	24042.056641	53.140572
487.464996	712.191589	43118.984375	23197.978516	53.024021
487.817963	716.872620	42362.207031	22699.257813	52.784744
488.170868	722.816895	42171.996094	22525.166016	52.600197
488.523743	719.696106	42340.886719	22564.474609	52.484753
488.876587	713.751953	42549.230469	22635.953125	52.400982
489.229401	715.237976	42512.226563	22661.958984	52.507900
489.582153	724.600098	42125.109375	22526.802734	52.661682
489.934845	726.829285	41400.359375	22228.031250	52.862885
490.287537	723.485596	40527.753906	21766.611328	52.866501
490.640198	725.863281	39586.558594	21267.517578	52.859718
490.992798	723.782898	38688.089844	20822.667969	52.941528
491.345337	725.417480	38184.167969	20541.060547	52.899902
491.697876	720.736328	37948.332031	20406.275391	52.878891
492.050354	733.293518	38199.027344	20478.794922	52.702827
492.402832	733.145020	38489.773438	20578.062500	52.560089
492.755219	739.906555	38755.703125	20650.732422	52.375137
493.107605	729.206970	38652.574219	20571.376953	52.321751
493.459930	727.126465	38156.230469	20296.310547	52.283333
493.812225	722.668274	37079.882813	19769.353516	52.387638
494.164490	721.405090	35593.457031	19011.021484	52.447781
494.516724	714.420654	33823.566406	18122.285156	52.577213
494.868896	716.798340	32044.236328	17217.277344	52.671013
495.221039	716.352539	30520.736328	16408.046875	52.648949
495.573120	723.708496	29204.908203	15759.458008	52.791843
495.925201	722.742615	28403.851563	15329.468750	52.767853
496.277222	726.606262	27862.703125	15040.356445	52.748005
496.629211	723.411316	27694.333984	14896.284180	52.548717
496.981140	717.838562	27590.828125	14851.997070	52.596149
497.333069	714.420654	27669.591797	14891.081055	52.593472
497.684967	718.061523	27755.632813	14967.168945	52.701138
498.036804	716.203918	27881.875000	14986.190430	52.529480
498.388580	716.724121	27865.453125	14997.632813	52.602493
498.740326	712.860352	27796.500000	14957.434570	52.594753
499.092072	717.392822	27621.443359	14864.780273	52.584602
499.443756	714.866455	27398.833984	14774.799805	52.690567
499.795410	717.838623	27162.771484	14638.453125	52.640003
500.147003	723.411316	26860.062500	14497.500977	52.700287
500.498566	725.937561	26520.275391	14295.843750	52.608082
500.850098	724.525818	26159.537109	14111.870117	52.633530
501.201599	717.689941	25856.455078	13979.313477	52.753677
501.553009	717.244141	25611.181641	13846.460938	52.740620
501.904449	714.420654	25427.431641	13761.903320	52.796001
502.255859	715.237976	25248.435547	13672.518555	52.815292
502.607178	721.776611	25168.634766	13669.249023	52.961704
502.958405	721.925232	25058.220703	13617.014648	52.987072
503.309692	718.655945	24992.093750	13589.893555	53.026016
503.660919	708.402161	24988.080078	13554.227539	52.907726
504.012115	713.751953	25023.968750	13587.441406	52.955879
504.363251	712.191589	25131.039063	13600.445313	52.779942
504.714294	725.194580	25144.931641	13613.151367	52.776806
505.065369	731.287354	25186.765625	13659.367188	52.863739
505.416443	746.073547	25222.281250	13687.377930	52.872997
505.767395	741.912659	25308.992188	13732.257813	52.877041
506.118317	734.036621	25310.181641	13681.062500	52.681271
506.469238	717.467102	25347.482422	13695.032227	52.690041
506.820160	711.671387	25294.205078	13695.922852	52.819016
507.170929	715.163635	25328.685547	13767.476563	53.029034
507.521729	717.021179	25350.304688	13822.535156	53.202465
507.872498	718.358704	25487.914063	13878.929688	53.132046
508.223236	711.299988	25671.812500	13947.140625	53.027122
508.573883	715.906799	25798.720703	14027.089844	53.068935
508.924500	716.872742	25937.369141	14111.499023	53.110081
509.275116	721.405090	26103.734375	14219.682617	53.179821
509.625702	722.148132	26354.953125	14338.122070	53.119328
509.976196	723.931335	26616.720703	14467.557617	53.078972
510.326660	723.114075	26853.447266	14581.315430	53.034920
510.677124	729.281250	27069.000000	14718.773438	53.111774
511.027557	737.305847	27267.611328	14871.838867	53.276936
511.377869	747.039551	27476.697266	15006.921875	53.348541
511.728180	741.838318	27641.726563	15090.585938	53.341293
512.078430	728.240967	27807.048828	15160.578125	53.297531
512.428650	714.346375	27950.232422	15235.475586	53.316158
512.778931	712.860352	28051.431641	15263.488281	53.223808
513.129028	720.141907	28105.451172	15286.596680	53.190765
513.479126	725.640381	28120.236328	15303.389648	53.213959
513.829285	725.714661	28119.271484	15330.879883	53.316059
514.179382	723.857117	28120.833984	15347.226563	53.375851
514.529297	724.600098	28101.437500	15328.799805	53.345093
514.879272	724.971680	28188.148438	15359.858398	53.289127
515.229187	720.810730	28098.687500	15305.840820	53.273052
515.579163	719.473206	28162.515625	15368.253906	53.378849
515.928955	714.420654	28141.787109	15416.773438	53.604679
516.278748	718.433044	28331.478516	15542.495117	53.684998
516.628540	722.519714	28513.447266	15637.453125	53.668354
516.978333	730.692932	28850.927734	15804.039063	53.603199
517.327942	726.309082	29278.244141	16034.453125	53.615086
517.677612	722.296814	29751.478516	16297.558594	53.653809
518.027222	717.615723	30272.634766	16559.400391	53.600998
518.376831	714.866455	30927.021484	16894.878906	53.554646
518.726379	709.145203	31560.080078	17192.607422	53.429379
519.075867	707.064697	32137.859375	17484.544922	53.379116
519.425293	721.033630	32574.833984	17700.318359	53.303795
519.774658	726.086243	32939.140625	17863.785156	53.201099
520.124084	727.423645	33140.277344	17958.001953	53.159706
520.473389	719.919006	33100.671875	17968.107422	53.266792
520.822693	717.689941	32885.496094	17868.988281	53.318211
521.171997	724.228577	32563.763672	17717.632813	53.372025
521.521240	727.720886	32195.146484	17515.529297	53.349800
521.870361	733.442139	31813.005859	17331.185547	53.404045
522.219482	725.343201	31458.507813	17149.812500	53.442165
522.568604	721.479431	31159.736328	16957.218750	53.339909
522.917664	721.182190	30966.031250	16858.396484	53.355247
523.266724	724.525879	30892.544922	16817.083984	53.343105
523.615662	721.628113	31038.697266	16929.578125	53.461468
523.964600	714.197754	31343.115234	17137.699219	53.620903
524.313538	714.792175	31822.294922	17412.099609	53.676140
524.662354	722.965393	32426.750000	17727.738281	53.636414
525.011169	731.584656	33165.019531	18084.093750	53.501919
525.359985	727.275085	34026.484375	18567.431641	53.575314
525.708740	716.798340	35049.484375	19119.576172	53.601330
526.057434	717.392822	36188.988281	19815.421875	53.840347
526.406067	716.055359	37543.378906	20556.367188	53.873890
526.754700	717.392761	39041.250000	21463.382813	54.133358
527.103333	709.962463	40785.730469	22454.728516	54.259136
527.451782	707.882019	42682.082031	23567.859375	54.461971
527.800293	715.535156	44673.394531	24700.083984	54.562595
528.148743	716.649719	46665.300781	25840.033203	54.677082
528.497131	724.005676	48548.207031	26972.484375	54.885345
528.845642	721.330811	50240.453125	28013.240234	55.113884
529.193909	722.593933	51714.988281	28941.875000	55.340176
529.542175	719.324646	52929.613281	29755.486328	55.613869
529.890503	718.061462	53747.761719	30365.662109	55.907543
530.238770	714.569153	54091.859375	30633.671875	56.052124
530.586914	710.705505	53936.050781	30511.818359	55.990456
530.934998	715.163635	53220.066406	29984.787109	55.746456
531.283142	722.222412	52070.457031	29182.541016	55.426090
531.631226	731.807434	50339.500000	28082.865234	55.134712
531.979248	721.479431	48384.296875	26858.427734	54.837189
532.327148	716.055359	46383.769531	25640.904297	54.578709
532.675110	712.414490	44704.234375	24621.617188	54.349201
533.023071	715.460876	43598.531250	23980.609375	54.252525
533.370850	722.296814	43032.199219	23636.509766	54.158039
533.718689	721.479431	43113.410156	23630.271484	54.040459
534.066467	725.640381	43370.277344	23703.458984	53.882084
534.414246	720.290527	43674.394531	23856.447266	53.862503
534.761963	713.677673	43782.433594	23932.982422	53.912178
535.109619	717.541443	43858.441406	23973.031250	53.905903
535.457153	713.603333	43577.730469	23813.203125	53.890282
535.804749	720.885010	43049.136719	23511.384766	53.842293
536.152344	715.386536	42200.902344	23057.322266	53.854786
536.499817	723.857117	41233.925781	22522.195313	53.809677
536.847229	712.191589	40214.937500	21928.291016	53.707912
537.194641	708.922302	39241.644531	21375.925781	53.634945
537.542114	705.281433	38556.648438	21004.041016	53.627548
537.889404	716.724060	38028.578125	20726.892578	53.629517
538.236694	719.696106	37663.976563	20521.816406	53.599964
538.583984	713.974854	37394.554688	20380.494141	53.615620
538.931213	712.340149	37239.488281	20321.347656	53.683380
539.278381	706.470276	37142.968750	20315.031250	53.815708
539.625488	713.231873	37049.343750	20296.531250	53.894863
539.972595	709.293762	37118.964844	20385.619141	54.041481
540.319641	714.272156	37422.488281	20552.353516	54.042622
540.666687	714.197754	37989.121094	20891.992188	54.132359
541.013611	717.169922	38936.781250	21380.458984	54.064625
541.360596	721.925293	40047.312500	21940.703125	53.956944
541.707458	719.250305	41359.273438	22603.630859	53.849331
542.054260	718.953125	42542.691406	23235.130859	53.835880
542.401062	724.897278	43758.730469	23914.923828	53.887897
542.747864	725.640381	44688.550781	24379.017578	53.803028
543.094666	728.686829	45237.875000	24624.365234	53.687069
543.441284	725.640442	45166.246094	24594.125000	53.708729
543.787903	724.451599	44637.503906	24353.312500	53.808289
544.134460	721.702332	43729.980469	23852.662109	53.782574
544.481079	715.089355	42489.042969	23141.583984	53.685352
544.827637	720.736328	40963.832031	22263.919922	53.532623
545.174072	718.210144	39281.101563	21344.349609	53.487015
545.520508	722.593933	37806.121094	20583.935547	53.558395
545.866943	719.547546	36607.390625	19904.066406	53.456875
546.213318	728.612488	35649.257813	19386.771484	53.430164
546.559631	731.213074	34834.597656	18931.220703	53.367165
546.905823	726.309082	34113.265625	18537.638672	53.348167
547.252136	720.141907	33584.828125	18227.052734	53.269669
547.598389	714.717957	33102.230469	17928.355469	53.148994
547.944458	719.696106	32790.160156	17755.453125	53.119774
548.290588	727.275085	32391.007813	17528.087891	53.060116
548.636658	732.550476	31993.490234	17248.486328	52.832500
548.982727	730.024231	31399.587891	16924.080078	52.801712
549.328735	723.857117	30821.365234	16623.302734	52.826450
549.674622	719.696106	30097.359375	16282.625000	52.975380
550.020569	723.708496	29439.556641	15940.311523	52.990265
550.366455	720.439209	28655.140625	15553.120117	53.097691
550.712280	711.151367	27985.822266	15179.526367	53.046925
551.058044	710.854187	27366.359375	14849.473633	53.042023
551.403748	713.528992	26865.708984	14585.030273	53.041473
551.749512	720.290588	26536.919922	14430.628906	53.106617
552.095154	713.603333	26311.115234	14321.254883	53.160057
552.440735	720.810730	26258.580078	14268.872070	53.051075
552.786316	717.615723	26213.033203	14211.881836	52.928200
553.131897	722.593994	26222.619141	14182.606445	52.784309
553.477417	717.838562	26203.744141	14170.049805	52.782940
553.822815	721.850891	26183.609375	14185.726563	52.878815
554.168213	724.302979	26139.843750	14184.612305	52.960941
554.513672	721.553711	26099.500000	14154.296875	52.930775
554.859009	724.005676	26024.156250	14065.281250	52.731998
555.204285	730.024231	25902.599609	14011.411133	52.761333
555.549500	736.711487	25727.093750	13950.112305	52.873943
555.894714	733.888000	25543.492188	13886.213867	53.013046
556.239990	728.909729	25280.906250	13736.864258	52.981247
556.585022	725.714661	25067.062500	13595.836914	52.873497
556.930115	724.525879	24788.130859	13430.067383	52.799824
557.275146	722.222473	24545.009766	13292.832031	52.767166
557.620178	719.176086	24307.093750	13158.937500	52.737854
557.965149	725.566101	24097.859375	13078.691406	52.853714
558.310059	718.210144	23937.216797	13000.821289	52.898956
558.654968	722.371094	23801.390625	12911.434570	52.814476
558.999756	712.637390	23680.650391	12840.625000	52.803814
559.344604	724.451477	23630.865234	12791.734375	52.680805
559.689331	717.987244	23534.568359	12761.937500	52.785954
560.033997	723.039795	23472.080078	12729.690430	52.778709
560.378723	718.804504	23404.017578	12688.453125	52.764099
560.723389	720.290588	23419.548828	12659.176758	52.595928
561.067932	713.974915	23480.552734	12662.223633	52.481533
561.412476	711.894348	23485.232422	12662.965820	52.478348
561.757019	714.494934	23448.525391	12712.304688	52.774670
562.101501	721.850891	23474.978516	12724.860352	52.753231
562.445862	727.200684	23472.970703	12732.959961	52.782387
562.790222	728.612488	23470.224609	12672.403320	52.519547
563.134644	731.658875	23417.541016	12646.398438	52.520500
563.478943	730.247070	23437.603516	12671.289063	52.586670
563.823181	727.572266	23450.384766	12697.815430	52.679409
564.167358	719.547546	23459.005859	12730.954102	52.821865
564.511536	712.637390	23491.322266	12715.053711	52.691433
564.855774	707.510559	23489.244141	12713.418945	52.699711
565.199768	713.751953	23581.306641	12763.424805	52.693317
565.543823	721.256531	23684.216797	12808.229492	52.636822
565.887817	726.234863	23905.787109	12905.789063	52.544392
566.231812	725.417480	24059.070313	12980.165039	52.519630
566.575745	726.903564	24239.330078	13082.628906	52.549770
566.919617	728.389648	24432.515625	13182.789063	52.541065
567.263428	727.869446	24647.400391	13223.953125	52.242176
567.607239	716.649719	24853.812500	13320.323242	52.216885
567.950989	716.798340	24939.187500	13382.067383	52.287449
568.294678	714.940857	25001.900391	13447.604492	52.425930
568.638367	713.900574	24929.751953	13417.585938	52.460205
568.981995	713.231750	24830.037109	13340.682617	52.359554
569.325623	712.191589	24679.203125	13276.930664	52.425140
569.669128	715.460938	24527.179688	13224.770508	52.534256
570.012573	712.191589	24396.109375	13129.737305	52.430286
570.356140	716.203918	24260.208984	13058.851563	52.423737
570.699524	714.940735	24196.013672	12999.187500	52.315529
571.042908	714.569336	24231.826172	13024.968750	52.346237
571.386230	713.008972	24330.500000	13071.929688	52.329525
571.729492	717.318542	24460.306641	13115.172852	52.216908
572.072815	726.086182	24589.369141	13204.485352	52.291210
572.416016	725.714661	24719.994141	13233.686523	52.128975
572.759094	728.761047	24844.302734	13308.434570	52.164177
573.102234	722.148193	24939.259766	13339.343750	52.100330
573.445374	719.473328	24999.595703	13385.784180	52.167408
573.788391	710.705566	25049.826172	13395.889648	52.118496
574.131409	711.374207	25078.208984	13385.414063	52.013489
574.474365	714.494934	25064.314453	13376.645508	52.000999
574.817261	724.823059	24950.703125	13344.620117	52.092209
575.160156	723.485657	24771.634766	13288.965820	52.251343
575.502930	717.838623	24602.968750	13172.460938	52.143829
575.845703	714.717957	24400.343750	13043.397461	52.051315
576.188477	722.965515	24179.888672	12893.305664	51.883785
576.531250	729.206848	23913.216797	12750.941406	51.853561
576.873901	727.126404	23688.599609	12605.159180	51.730274
577.216431	721.628113	23490.431641	12493.706055	51.702667
577.559082	723.337097	23289.072266	12384.481445	51.676334
577.901611	724.377258	23026.859375	12252.371094	51.689285
578.244080	726.309082	22751.640625	12087.641602	51.583023
578.586487	722.668274	22444.771484	11923.877930	51.565956
578.928955	764.723633	22162.865234	11909.612305	52.083443
579.271301	762.643127	21821.072266	11768.882813	52.265244
579.613647	759.819580	21434.402344	11564.996094	52.263096
579.955872	713.454651	21085.031250	11261.320313	51.777363
580.298157	715.832336	20765.974609	11079.426758	51.688385
580.640320	715.163757	20548.044922	10952.145508	51.616211
580.982483	718.581604	20296.531250	10811.937500	51.554714
581.324524	712.786072	20058.689453	10716.458008	51.709507
581.666626	716.129639	19880.361328	10656.643555	51.870136
582.008728	716.203918	19754.640625	10587.022461	51.846786
582.350647	718.210144	19643.113281	10500.311523	51.689045
582.692566	718.953125	19559.894531	10437.377930	51.581417
583.034424	726.383362	19495.548828	10386.256836	51.466713
583.376343	717.244141	19459.140625	10367.161133	51.488476
583.718201	720.959290	19375.029297	10317.452148	51.444500
584.059937	715.683777	19305.703125	10276.363281	51.429100
584.401611	721.107910	19219.736328	10209.193359	51.290752
584.743347	719.770447	19132.728516	10189.429688	51.429317
585.085022	710.928406	19015.775391	10144.104492	51.533756
585.426514	713.008972	18966.587891	10115.795898	51.512020
585.768127	702.978027	18893.548828	10043.053711	51.345703
586.109619	704.166809	18840.570313	9981.901367	51.155312
586.451172	707.436218	18766.490234	9948.242188	51.169930
586.792542	715.832458	18754.601563	9925.729492	51.056129
587.133850	721.330872	18695.603516	9918.819336	51.170292
587.475220	726.977844	18638.539063	9880.256836	51.102634
587.816589	732.104675	18572.783203	9867.178711	51.203629
588.157776	738.791992	18642.406250	9877.729492	51.045212
588.498962	734.928223	18723.468750	9924.093750	51.083443
588.840210	718.581726	18787.146484	9953.890625	51.112576
589.181335	714.049133	18815.306641	9998.694336	51.292820
589.522400	717.095520	18847.183594	10010.062500	51.257153
589.863403	728.538269	18908.482422	10025.295898	51.137440
590.204407	739.312073	18912.419922	10018.756836	51.061405
590.545410	734.556702	18989.767578	10064.600586	51.108936
590.886353	739.237793	18991.626953	10056.500977	51.046818
591.227112	727.572266	19005.150391	10025.517578	50.870773
591.567932	724.748718	18936.716797	9963.475586	50.728874
591.908752	717.021240	18858.478516	9922.311523	50.741734
592.249512	719.696106	18850.304688	9933.752930	50.820446
592.590149	717.467102	18766.193359	9897.270508	50.861225
592.930786	719.101746	18731.119141	9871.190430	50.811016
593.271423	715.386536	18614.910156	9788.120117	50.687012
593.612000	724.451477	18542.167969	9750.077148	50.655346
593.952576	725.863281	18481.314453	9716.493164	50.635887
594.292969	732.624817	18481.908203	9711.440430	50.586918
594.633484	724.748718	18497.289063	9720.504883	50.616035
594.973877	728.686768	18568.025391	9756.022461	50.603539
595.314209	716.872620	18664.398438	9828.094727	50.765892
595.654480	720.067627	18874.080078	9929.518555	50.729565
595.994812	712.265930	19041.556641	10051.597656	50.953045
596.335022	719.473328	19233.927734	10144.178711	50.904575
596.675171	719.919128	19371.982422	10192.104492	50.783581
597.015320	726.309082	19565.392578	10224.425781	50.417088
597.355408	726.309082	19714.593750	10273.912109	50.281548
597.695496	731.956055	19856.361328	10330.679688	50.190964
598.035461	728.389587	19919.445313	10361.812500	50.197460
598.375366	725.640381	19926.205078	10387.891602	50.322746
598.715271	718.284424	19885.562500	10380.312500	50.408978
599.055176	726.011902	19765.638672	10303.186523	50.301273
599.395081	722.965515	19600.166016	10182.593750	50.111389
599.734802	730.395691	19329.925781	10024.477539	49.969448
600.074524	723.411316	19013.025391	9886.200195	50.098320
600.414246	726.383362	18602.130859	9690.412109	50.146313
600.753906	718.878845	18198.146484	9519.589844	50.349426
601.093506	718.358704	17808.728516	9320.458008	50.333023
601.433044	719.473145	17564.865234	9203.283203	50.362797
601.772583	719.101746	17406.154297	9080.238281	50.105534
602.112122	720.067688	17364.173828	9075.631836	50.201344
602.451538	724.005676	17329.326172	9062.777344	50.217468
602.790894	720.885010	17364.396484	9108.919922	50.398228
603.130310	721.702332	17477.560547	9136.336914	50.219063
603.469604	715.312317	17678.474609	9225.129883	50.166458
603.808838	718.953125	17945.222656	9322.168945	49.942421
604.148010	710.928406	18239.386719	9456.135742	49.891476
604.487305	727.200684	18511.705078	9565.732422	49.697937
604.826416	733.293518	18744.423828	9700.219727	49.785469
605.165527	737.900330	18920.373047	9778.089844	49.719254
605.504456	720.141907	19116.826172	9877.729492	49.778473
605.843445	713.974854	19249.978516	9899.500000	49.555046
606.182434	716.055359	19339.662109	9931.598633	49.483124
606.521423	724.080078	19294.708984	9899.351563	49.407436
606.860229	731.584656	19137.556641	9865.023438	49.622147
607.199036	728.018066	18946.896484	9813.606445	49.869083
607.537903	725.268799	18760.322266	9723.253906	49.891651
607.876648	716.946960	18534.515625	9579.180664	49.738735
608.215271	723.039795	18198.445313	9383.987305	49.560780
608.553955	723.188477	17846.027344	9214.354492	49.589706
608.892578	728.315247	17574.304688	9083.432617	49.597069
609.231140	722.965515	17449.177734	9022.875977	49.622173
609.569641	721.256531	17360.087891	8961.577148	49.524632
609.908081	723.188416	17304.583984	8911.347656	49.381603
610.246521	722.371094	17280.658203	8883.708008	49.288532
610.584961	725.789001	17321.673828	8897.676758	49.240448
610.923340	721.627991	17359.419922	8909.491211	49.212440
611.261597	730.841553	17356.447266	8919.967773	49.256107
611.599854	721.479431	17274.044922	8875.385742	49.260677
611.938110	718.210144	17210.666016	8829.168945	49.179817
612.276245	715.089355	17022.826172	8715.337891	49.057995
612.614319	721.107910	16790.630859	8584.491211	48.933517
612.952393	714.569275	16469.123047	8455.724609	49.135986
613.290466	715.386658	16175.851563	8320.418945	49.190189
613.628479	716.872620	15848.176758	8189.720703	49.386677
613.966370	725.863281	15568.502930	8032.347656	49.226315
614.304260	724.154297	15320.776367	7877.351563	49.005840
614.642151	724.748779	15107.304688	7752.449219	48.862667
614.979980	725.714661	14902.598633	7671.013184	48.990303
615.317749	729.355469	14699.159180	7595.001465	49.146332
615.655396	730.024231	14608.359375	7524.265625	48.955738
615.993164	724.674500	14512.137695	7475.671387	48.964752
616.330811	722.371094	14456.411133	7456.798340	49.034569
616.668396	719.176025	14373.489258	7443.795410	49.249046
617.005859	722.593994	14347.187500	7424.848145	49.192322
617.343445	729.132629	14348.375000	7410.582031	49.058891
617.680908	734.333801	14375.718750	7404.191406	48.894283
618.018311	742.209900	14416.734375	7423.361816	48.858387
618.355652	730.915833	14450.393555	7418.310059	48.743793
618.692993	735.745544	14470.008789	7424.476563	48.701054
619.030273	732.179016	14470.676758	7424.328125	48.710922
619.367554	737.454407	14476.843750	7432.501465	48.728851
619.704712	724.748718	14466.516602	7427.447754	48.776108
620.041870	727.126404	14456.413086	7410.953125	48.682983
620.379028	724.600098	14406.926758	7393.195313	48.738754
620.716064	724.228577	14375.347656	7366.595215	48.658039
621.053040	714.792175	14327.050781	7327.734863	48.580791
621.389954	712.934570	14258.765625	7284.193359	48.511299
621.726929	715.163635	14162.618164	7244.812500	48.556767
622.063843	717.987244	14088.092773	7201.048340	48.489227
622.400635	714.123535	14051.684570	7178.385254	48.466599
622.737427	718.284424	14035.856445	7162.560059	48.389267
623.074219	717.615723	13998.781250	7137.371094	48.337288
623.410889	724.377197	13928.862305	7101.333984	48.293869
623.747559	719.324646	13874.769531	7083.427246	48.376186
624.084167	727.572205	13827.661133	7063.885254	48.368473
624.420715	726.011902	13809.085938	7053.185547	48.361523
624.757324	730.172852	13787.093750	7036.393066	48.297913
625.093750	723.262695	13843.340820	7052.813965	48.243244
625.430176	729.281250	13899.588867	7069.309082	48.138798
625.766602	737.900330	13938.448242	7080.231934	48.045971
626.102905	743.101563	13974.484375	7106.906738	48.096298
626.439209	744.290344	14036.007813	7122.732910	47.988098
626.775452	733.219238	14167.523438	7157.878906	47.822792
627.111694	723.559875	14232.909180	7150.745605	47.575832
627.447876	715.015137	14303.942383	7190.497559	47.652637
627.783997	713.306152	14352.387695	7224.082031	47.736172
628.120056	717.392761	14423.198242	7279.289063	47.876766
628.456055	719.027344	14488.734375	7288.873535	47.712315
628.792053	715.683777	14458.121094	7289.839355	47.838352
629.128052	713.157532	14384.932617	7264.056152	47.915493
629.463928	715.535217	14279.347656	7229.505859	48.024628
629.799744	721.925232	14197.317383	7164.714355	47.811512
630.135559	723.559875	14083.782227	7099.996094	47.727020
630.471375	715.015076	13957.692383	7014.102051	47.566566
630.807068	720.142029	13771.268555	6922.264160	47.521736
631.142700	729.281250	13648.593750	6835.924316	47.267555
631.478333	731.658936	13482.377930	6758.203613	47.264355
631.813965	723.485596	13364.905273	6720.532715	47.439663
632.149475	711.968689	13221.574219	6657.523438	47.527916
632.484924	714.197754	13116.881836	6620.446777	47.620735
632.820435	716.501038	13039.383789	6565.462402	47.464230
633.155884	718.730164	12962.554688	6522.664063	47.402950
633.491150	729.355469	12900.289063	6512.335938	47.514683
633.826477	727.200684	12847.312500	6474.887207	47.422722
634.161804	734.110840	12788.463867	6468.794922	47.573551
634.497009	725.491699	12729.691406	6398.132813	47.255474
634.832153	724.674377	12618.237305	6336.981934	47.187775
635.167297	718.804504	12542.225586	6292.771973	47.143440
635.502380	718.358704	12446.002930	6265.279785	47.297825
635.837463	726.903503	12387.006836	6248.486816	47.354500
636.172424	727.943787	12278.450195	6187.559082	47.267323
636.507324	722.073792	12200.877930	6146.246582	47.253815
636.842224	716.203918	12102.575195	6094.310059	47.232834
637.177124	715.758118	11998.997070	6059.015625	47.355705
637.511963	722.593933	11879.445313	5986.050781	47.176903
637.846741	721.627991	11756.176758	5917.394531	47.086353
638.181396	726.234802	11641.898438	5823.030762	46.692493
638.516113	728.835449	11537.950195	5774.956543	46.683941
638.850769	726.903564	11430.731445	5731.489746	46.755104
639.185303	720.885010	11349.295898	5704.368652	46.888321
639.519836	720.141907	11274.620117	5651.167480	46.719746
639.854370	720.810730	11189.692383	5588.679199	46.498459
640.188843	723.114075	11078.386719	5519.651855	46.319763
640.523254	717.169861	10956.085938	5475.441406	46.472416
640.857605	720.439209	10862.983398	5442.153809	46.553555
641.191895	716.501160	10794.031250	5414.513672	46.618690
641.526184	716.501160	10733.844727	5381.523438	46.569454
641.860413	710.779785	10692.161133	5345.857910	46.437244
642.194580	713.603333	10605.970703	5335.381348	46.720646
642.528748	716.501160	10542.886719	5301.201660	46.657040
642.862793	724.451477	10479.284180	5264.941895	46.546059
643.196838	727.795105	10452.386719	5225.041504	46.246120
643.530823	728.018066	10388.932617	5190.268066	46.188694
643.864746	725.268860	10319.384766	5165.451172	46.280262
644.198669	722.148132	10255.485352	5139.519043	46.336044
644.532532	724.748779	10196.117188	5130.305664	46.514469
644.866333	728.018066	10164.315430	5118.937500	46.532230
645.200073	733.293518	10131.027344	5095.978027	46.422733
645.533813	728.835388	10096.922852	5070.789063	46.348343
645.867554	725.045898	10064.898438	5053.401855	46.342873
646.201172	718.358704	10048.551758	5047.012207	46.394035
646.534729	726.383484	10089.864258	5049.761230	46.172768
646.868225	723.485657	10096.848633	5053.476563	46.194633
647.201782	725.789063	10097.071289	5044.337402	46.082790
647.535217	723.039795	10098.779297	5037.575684	46.018089
647.868591	734.408142	10112.600586	5047.309570	45.988621
648.201965	737.751709	10150.124023	5059.198242	45.912403
648.535278	737.231628	10135.633789	5047.978516	45.866806
648.868591	728.909729	10139.497070	5025.836426	45.660561
649.201782	722.519714	10101.826172	4997.823730	45.582306
649.534912	718.210144	10081.245117	4992.251465	45.648033
649.868103	716.426819	10013.925781	4973.155273	45.783588
650.201172	717.912903	9971.424805	4962.010254	45.864719
650.534180	717.541443	9941.480469	4934.443848	45.716934
650.867188	725.045959	9912.949219	4906.654785	45.512112
651.200134	725.120300	9872.007813	4873.292480	45.350643
651.533020	724.154297	9806.472656	4837.256348	45.286919
651.865845	726.531982	9763.526367	4824.476074	45.346321
652.198608	733.813660	9727.266602	4810.506836	45.329563
652.531433	742.432800	9688.257813	4814.444824	45.518574
652.864136	731.510315	9663.291992	4782.940430	45.359711
653.196777	1345.102173	10317.602539	5396.978027	45.158829
653.529358	1369.027466	10284.016602	5387.839355	45.079269
653.861938	1371.851074	10223.534180	5367.851563	45.143959
654.194519	751.200500	9449.671875	4704.031250	45.442822
654.526978	720.959412	9408.433594	4646.892090	45.190723
654.859375	717.169922	9342.155273	4609.295410	45.126171
655.191833	717.764343	9319.195313	4579.425293	44.895565
655.524170	713.306152	9261.313477	4573.109375	45.154419
655.856445	721.033691	9219.110352	4562.558594	45.204643
656.188660	748.302734	9201.648438	4571.474609	45.226730
656.520874	753.058105	9148.299805	4541.530762	45.126427
656.853088	746.816589	9141.537109	4519.611328	44.942467
657.185181	719.919128	9105.797852	4489.667480	44.953526
657.517212	717.764343	9140.051758	4482.014160	44.693913
657.849243	729.429871	9158.330078	4513.742188	44.896866
658.181274	734.408020	9214.428711	4541.382324	44.893456
658.513123	731.361633	9262.206055	4570.211426	44.999645
658.844971	721.702332	9343.195313	4591.313477	44.883305
659.176819	715.238037	9426.414063	4620.217285	44.827236
659.508667	714.792175	9509.782227	4651.721680	44.763317
659.840393	713.231873	9559.788086	4674.086914	44.772842
660.172058	712.785950	9608.382813	4701.727539	44.841755
660.503662	719.621826	9661.062500	4721.492188	44.756439
660.835266	721.330811	9709.359375	4738.804199	44.698051
661.166931	722.148132	9681.644531	4709.826172	44.507839
661.498413	724.525818	9632.159180	4704.773926	44.683563
661.829773	726.680603	9528.803711	4650.830078	44.581852
662.161194	727.572266	9425.597656	4606.174316	44.591755
662.492615	721.256531	9290.811523	4537.221191	44.529324
662.823975	729.132629	9148.001953	4478.745117	44.538197
663.155212	730.470032	8983.644531	4405.036621	44.523067
663.486450	731.064514	8814.085938	4322.561035	44.432598
663.817627	722.073792	8679.152344	4242.313965	44.240360
664.148743	719.027405	8549.567383	4186.437988	44.280605
664.479858	720.513489	8419.463867	4131.231445	44.301079
664.810913	720.513489	8315.514648	4092.296631	44.394772
665.141907	722.742493	8229.917969	4068.891357	44.572678
665.472778	725.120178	8173.076172	4054.030518	44.695625
665.803711	727.943787	8125.002441	4029.659424	44.635521
666.134583	724.748718	8085.770996	3989.981689	44.358414
666.465454	726.754883	8063.109375	3947.035156	43.894829
666.796143	727.349304	7998.687988	3922.886719	43.947029
667.126831	727.720886	7996.830566	3898.664063	43.622166
667.457458	727.200745	7951.505371	3887.815674	43.749748
667.788147	724.302917	7939.021973	3872.732178	43.638969
668.118774	725.343079	7880.917969	3868.645264	43.928020
668.449219	724.302917	7887.605469	3857.425781	43.738522
668.779663	729.727051	7885.524902	3852.595947	43.641102
669.110107	734.110840	7875.493652	3846.949219	43.588734
669.440552	727.052063	7826.008301	3835.135010	43.782253
669.770874	724.674500	7799.779297	3818.565674	43.729259
670.101135	720.067688	7791.753906	3798.132080	43.526600
670.431396	723.411316	7783.433105	3784.460693	43.357506
670.761597	722.519714	7736.622559	3751.469971	43.183716
671.091797	721.479431	7677.552246	3728.733643	43.232067
671.421875	717.169861	7616.919922	3706.442627	43.324364
671.751892	715.386536	7584.003906	3706.071045	43.541290
672.081909	714.940735	7572.636230	3695.520264	43.463284
672.411865	718.878845	7543.509277	3692.770752	43.575867
672.741821	719.919128	7490.754395	3648.560791	43.253769
673.071716	717.689941	7448.921875	3617.873779	43.085484
673.401550	719.621826	7420.092285	3584.363281	42.754330
673.731262	713.529053	7399.659668	3586.072266	42.962711
674.060974	718.210144	7312.205078	3568.611328	43.227226
674.390625	714.494934	7268.292480	3548.326416	43.239536
674.720276	721.182190	7229.283203	3532.277100	43.193783
675.049927	720.290527	7207.661621	3519.571289	43.149693
675.379395	723.114075	7173.407715	3507.385742	43.165039
675.708923	720.216309	7119.761230	3472.983643	43.015049
676.038330	726.309082	7089.891113	3453.664795	42.858814
676.367737	730.990173	7051.031250	3431.076904	42.722614
676.697083	738.049011	7018.189453	3441.181641	43.042549
677.026428	749.937317	6980.592285	3423.869141	42.915745
677.355652	745.256348	6934.078613	3400.612549	42.905678
677.684875	745.627869	6943.812500	3390.061523	42.664646
678.013977	729.652649	6933.335938	3385.306396	42.807697
678.343079	730.024170	6956.071777	3382.557373	42.603806
678.672180	723.336975	6926.722656	3368.885498	42.646851
679.001221	716.946960	6973.979980	3361.826904	42.270512
679.330139	715.163757	6996.790527	3381.888428	42.452770
679.659058	716.203918	7044.566406	3406.556885	42.512627
679.987976	719.993347	7046.572754	3425.429688	42.763016
680.316772	715.832458	7090.411621	3433.974609	42.640339
680.645630	711.448547	7123.179199	3443.782471	42.614613
680.974304	720.141907	7189.011719	3460.352295	42.359959
681.302979	724.525818	7207.884277	3472.463135	42.384472
681.631653	723.188416	7236.861816	3473.800781	42.228283
681.960266	715.015137	7254.545410	3491.633057	42.458981
682.288757	717.987244	7276.613281	3503.670654	42.473583
682.617249	720.216309	7282.929688	3492.153564	42.237671
682.945679	722.965515	7261.232910	3457.156982	41.818287
683.274109	722.891174	7239.388184	3441.776123	41.723106
683.602478	727.052063	7192.355469	3424.760986	41.725948
683.930725	728.686768	7116.863281	3402.841797	41.861004
684.259033	725.566101	7032.381348	3356.105225	41.709465
684.587280	722.148132	6962.981934	3322.520264	41.667061
684.915344	721.850891	6906.363281	3300.675049	41.698101
685.243469	727.275085	6849.596191	3273.629150	41.591316
685.571533	730.544373	6776.928223	3243.462158	41.560673
685.899536	724.748718	6705.597656	3210.397705	41.560135
686.227539	717.541321	6627.505859	3183.723389	41.729221
686.555420	715.535156	6603.654785	3159.500732	41.506725
686.883301	712.786072	6589.313965	3145.977295	41.405251
687.211121	720.216309	6574.453613	3130.522461	41.171993
687.538940	725.194580	6548.818848	3132.379883	41.334835
687.866638	730.544434	6535.815918	3121.383057	41.183926
688.194336	723.634216	6539.679199	3121.457275	41.227726
688.521973	719.101746	6540.645996	3114.696045	41.150494
688.849609	723.114075	6531.357910	3104.739014	41.004219
689.177063	720.587830	6532.621094	3101.395752	40.963425
689.504578	718.655945	6494.206543	3083.488525	40.945576
689.832031	715.312317	6466.490723	3078.212891	41.085506
690.159485	721.702332	6384.386719	3045.519775	41.037380
690.486816	728.166687	6310.753418	3005.173584	40.787666
690.814087	729.949951	6236.524902	2963.712891	40.565376
691.141296	730.470032	6134.878418	2930.871094	40.714931
691.468506	727.869385	6032.563965	2902.190186	40.988617
691.795715	720.364807	5894.286621	2856.791016	41.292202
692.122803	725.937561	5824.292969	2820.605469	41.085171
692.449829	718.284424	5768.492188	2774.315186	40.711803
692.776855	718.135803	5720.566406	2745.634033	40.530262
693.103821	710.036865	5652.951172	2708.111328	40.423008
693.430664	712.786072	5572.480469	2690.873047	40.703938
693.757568	721.182190	5517.273438	2655.802002	40.337429
694.084351	719.621887	5463.775879	2633.436768	40.340492
694.411133	725.120300	5415.256348	2605.127686	40.084278
694.737854	720.141907	5360.792480	2591.456055	40.324394
695.064575	725.863281	5333.375000	2583.134033	40.309628
695.391174	722.371094	5330.849121	2574.812256	40.196377
695.717773	725.937561	5303.356934	2581.127930	40.529179
696.044250	721.627991	5279.951660	2572.360352	40.601162
696.370789	717.615540	5250.750488	2570.428467	40.872665
696.697205	717.467041	5273.858398	2562.775146	40.499332
697.023621	719.324524	5319.852051	2585.808838	40.571095
697.349915	726.903503	5384.718262	2603.344482	40.285862
697.676208	722.593994	5457.312012	2622.365967	40.124290
698.002380	722.891113	5511.850098	2628.755859	39.797058
698.328674	720.884949	5598.338379	2663.380859	39.826023
698.654724	723.559875	5688.318848	2699.491943	39.799156
698.980896	726.234863	5786.250000	2743.107666	39.859028
699.306946	726.680664	5867.611816	2781.150635	39.962994
699.632935	729.875671	5940.650879	2804.927734	39.822327
699.958862	722.519714	5995.932129	2819.788330	39.770615
700.284729	720.142029	6013.467285	2796.308594	39.222351
700.610596	714.569275	5989.244629	2783.602783	39.225796
700.936340	712.414551	5913.529785	2752.321533	39.220570
701.262146	710.631287	5797.469238	2724.458008	39.588970
701.587830	711.745789	5660.158203	2675.640869	39.687374
701.913513	708.922180	5525.595703	2618.205078	39.639038
702.239075	712.265869	5391.776855	2567.530518	39.646553
702.564697	713.528992	5268.954590	2511.580566	39.470547
702.890137	721.405090	5120.869629	2460.831787	39.537239
703.215698	715.163757	4998.492676	2406.813721	39.493813
703.541016	708.773621	4888.673340	2360.300049	39.511147
703.866455	712.191589	4824.624512	2325.080811	39.219826
704.191711	722.668274	4759.163574	2300.337891	39.085136
704.517029	726.532043	4677.579102	2271.656982	39.106720
704.842163	731.213074	4623.263672	2248.251709	38.977875
705.167419	729.132568	4572.143555	2230.493408	39.067307
705.492493	735.894226	4547.103516	2213.626465	38.773315
705.817566	724.302917	4484.020996	2183.831299	38.820152
706.142578	725.343201	4457.123047	2161.168945	38.475628
706.467590	722.668274	4429.705566	2159.162842	38.750477
706.792480	724.451477	4427.401855	2165.329834	38.911633
707.117371	721.627991	4429.036621	2153.292725	38.616322
707.442200	727.497864	4436.838379	2150.469482	38.361851
707.766907	726.829163	4446.646484	2148.463135	38.217846
708.091675	719.250305	4421.829102	2160.500244	38.925571
708.416321	710.928467	4397.978027	2142.593262	38.829552
708.741028	714.346375	4399.241211	2131.745117	38.465107
709.065552	719.696106	4425.172852	2128.921631	38.030884
709.390137	722.073914	4463.438965	2144.302246	38.013618
709.714600	723.039795	4480.454590	2159.162842	38.221043
710.039063	725.640381	4507.277344	2168.227539	38.147160
710.363403	726.754944	4538.187012	2182.196533	38.186214
710.687744	722.742615	4583.437500	2199.880615	38.260937
711.012085	725.789001	4619.103027	2204.710205	37.986176
711.336304	721.553711	4655.957031	2225.960938	38.237240
711.660461	722.742493	4700.910156	2223.509033	37.725071
711.984619	722.668274	4731.374512	2246.245605	38.006710
712.308716	728.240906	4767.039551	2238.295166	37.388699
712.632751	727.943665	4769.863281	2244.313477	37.516083
712.956726	720.884949	4776.401855	2233.614014	37.300522
713.280701	724.525879	4743.931641	2230.939453	37.478516
713.604553	724.080078	4706.037109	2223.063232	37.644382
713.928467	725.863281	4656.180176	2197.428711	37.441395
714.252258	722.371094	4577.567383	2168.822021	37.519516
714.575989	721.182190	4518.348145	2140.661377	37.382595
714.899719	723.485657	4437.878418	2122.085693	37.653534
715.223267	720.439148	4388.987793	2102.395508	37.670383
715.546936	726.457703	4331.997559	2081.590576	37.584740
715.870422	724.377258	4301.607422	2047.931274	36.999405
716.193970	724.005676	4279.762207	2033.590942	36.830002
716.517395	721.627991	4262.970215	2011.523071	36.423901
716.840820	722.222412	4225.893066	2008.105347	36.701023
717.164124	720.439148	4169.645996	1988.117798	36.752762
717.487488	717.021240	4119.045898	1984.179810	37.247189
717.810730	716.501160	4096.383301	1974.149048	37.209816
718.133972	714.197754	4067.256592	1958.025391	37.095310
718.457092	715.758118	4029.362305	1934.991333	36.794773
718.780212	713.454773	3969.548828	1921.691406	37.106930
719.103210	715.758118	3912.781250	1903.932983	37.165035
719.426208	712.637390	3836.621094	1885.877441	37.555893
719.749207	722.965515	3797.983398	1868.267578	37.245377
720.072083	722.965515	3753.402100	1849.320435	37.168076
720.394958	729.132629	3716.696533	1829.035767	36.816051
720.717773	718.507324	3643.508545	1797.159790	36.876991
721.040527	720.216309	3610.666748	1774.348999	36.469494
721.363281	718.135803	3577.007568	1751.760864	36.154995
721.685913	721.107910	3556.574219	1753.098267	36.395790
722.008545	720.885010	3532.722900	1752.503906	36.688419
722.331055	715.312317	3495.719971	1748.788696	37.169956
722.653503	711.745789	3465.404541	1717.507446	36.524559
722.976013	709.442383	3442.890625	1695.513794	36.074268
723.298401	713.751953	3441.181641	1687.860474	35.715256
723.620789	713.826233	3428.550537	1687.934937	35.882416
723.943115	712.340149	3417.925049	1686.448730	36.003620
724.265381	715.758118	3393.776611	1672.331421	35.719444
724.587585	720.290527	3382.185547	1673.223022	35.799026
724.909790	720.736328	3366.730469	1674.114624	36.031006
725.231873	719.250305	3370.148438	1674.783325	36.045631
725.553894	725.343201	3385.529297	1676.417969	35.752190
725.875916	932.424866	3603.310547	1810.534302	32.877087
726.197937	939.855164	3617.130615	1819.376343	32.851353
726.519775	928.189636	3614.307373	1819.302124	33.174736
726.841675	714.717834	3401.578857	1679.018555	35.889488
727.163513	704.612732	3411.757813	1681.916382	36.100899
727.485291	713.454773	3416.959229	1685.780273	35.965374
727.806946	735.968445	3463.472656	1693.433228	35.104065
728.128662	739.386414	3480.562500	1688.009155	34.606415
728.450256	743.770203	3511.323486	1687.563354	34.102077
728.771790	734.928223	3512.438232	1692.318726	34.469379
729.093323	742.507080	3528.413086	1704.430054	34.528191
729.414795	734.185120	3534.803467	1705.916138	34.697018
729.736145	731.807434	3525.812500	1698.040039	34.582348
730.057495	723.782776	3518.010986	1689.866821	34.574272
730.378845	718.210144	3515.930420	1686.969116	34.626728
730.700134	720.810730	3505.082275	1689.495483	34.791317
731.021301	725.491699	3506.791260	1684.145508	34.467838
731.342468	734.408142	3502.555908	1688.232056	34.457119
731.663574	733.962341	3514.147217	1688.900879	34.348022
731.984680	728.166687	3503.224609	1691.873047	34.727432
732.305664	724.005676	3506.271484	1688.975098	34.682861
732.626648	718.878845	3522.171875	1692.764648	34.740780
732.947571	709.219421	3550.778564	1690.461304	34.531815
733.268433	712.860291	3569.205811	1690.906860	34.241188
733.589233	715.758118	3569.874268	1694.176270	34.280949
733.909973	731.584656	3550.629883	1689.866821	33.993149
734.230713	731.956055	3517.342529	1686.300293	34.262543
734.551331	732.476257	3468.153564	1660.294312	33.915478
734.871948	727.720886	3421.268799	1636.814575	33.750790
735.192505	725.194580	3373.417969	1611.254517	33.458656
735.513062	727.052063	3332.402588	1598.400024	33.444557
735.833435	723.114075	3281.579834	1596.542603	34.138760
736.153931	719.993347	3234.620361	1576.703735	34.069084
736.474304	715.758057	3185.803467	1566.301270	34.434315
736.794617	724.451477	3155.933838	1546.833984	33.822269
737.114807	726.829285	3131.414063	1539.181030	33.783451
737.434998	723.262695	3116.479248	1529.150024	33.673817
737.755188	716.649719	3117.816406	1533.831055	34.032677
738.075256	717.244141	3117.816406	1535.837280	34.099918
738.395325	715.609558	3112.466797	1521.199585	33.610264
738.715271	717.912903	3114.770264	1514.735352	33.244465
739.035278	714.717834	3128.813232	1509.162598	32.908588
739.355164	714.569275	3157.568359	1517.633179	32.872051
739.675049	711.448547	3161.432373	1522.388550	33.099808
739.994873	717.615723	3158.014404	1525.509155	33.104977
740.314636	723.114075	3147.686279	1521.868530	32.944138
740.634277	729.132568	3138.398438	1520.753784	32.857361
740.953979	727.052063	3128.292969	1513.769409	32.762947
741.273499	734.482361	3122.200195	1510.500000	32.500393
741.593140	732.847839	3096.714600	1485.757324	31.850760
741.912598	733.888000	3059.563232	1477.509766	31.974445
742.232117	723.114197	3002.870117	1457.299438	32.204556
742.551453	718.804504	2938.524170	1445.113770	32.720764
742.870850	715.015137	2907.985596	1436.197388	32.886089
743.190063	708.996582	2866.598877	1433.745239	33.590466
743.509338	710.779785	2857.088135	1432.259155	33.614899
743.828552	719.844727	2823.875000	1403.801270	32.506973
744.147705	732.624817	2804.630127	1394.810547	31.958689
744.466797	736.191406	2771.045654	1374.971802	31.391949
744.785828	731.956055	2737.238281	1375.640625	32.099449
745.104858	730.321472	2714.873047	1364.941040	31.977983
745.423706	729.801331	2694.736816	1367.318726	32.444698
745.742615	733.516418	2687.009277	1361.671631	32.155491
746.061401	744.959045	2670.959961	1358.476685	31.854483
746.380249	741.095398	2670.662598	1346.588257	31.379725
746.698975	728.315247	2658.476807	1341.312744	31.758869
747.017639	713.974854	2644.582764	1336.631714	32.251854
747.336304	711.894348	2621.771484	1332.545044	32.496891
747.654907	719.621826	2612.855225	1334.996948	32.503922
747.973389	721.925293	2613.969971	1330.018677	32.139484
748.291931	721.776672	2615.604492	1329.127075	32.069988
748.610352	712.265930	2606.465088	1321.994019	32.189228
748.928711	713.751953	2623.703369	1319.690552	31.725342
749.247070	724.005798	2630.985107	1327.343750	31.638412
749.565308	731.287415	2623.554688	1332.247681	31.758739
749.883545	724.525879	2588.483887	1333.288086	32.659653
750.201782	715.683838	2570.725342	1320.433594	32.600334
750.519836	716.946960	2571.096924	1303.938477	31.658257
750.837952	718.433044	2554.527588	1292.272827	31.253283
751.155884	721.925232	2537.660889	1289.152222	31.239515
751.473877	712.934570	2521.016846	1280.458862	31.388189
751.791809	714.940735	2514.998535	1269.462036	30.805748
752.109619	712.191589	2510.317627	1262.031738	30.578510
752.427490	718.358704	2504.224609	1266.861450	30.713545
752.745300	724.748718	2511.803467	1268.867554	30.447800
753.062988	729.429871	2511.060547	1270.056274	30.344473
753.380615	731.213074	2498.503418	1271.022339	30.544460
753.698303	722.445313	2485.351807	1272.434082	31.197842
754.015808	721.850891	2474.429443	1271.691040	31.373209
754.333374	725.863281	2477.846924	1263.443481	30.684088
754.650757	726.903503	2475.097900	1262.180298	30.618837
754.968262	722.148132	2479.110352	1261.214355	30.681721
755.285583	716.872742	2474.132080	1262.700439	31.061306
755.602905	722.445313	2465.215576	1258.911011	30.782352
755.920105	725.343079	2443.147705	1245.908081	30.304085
756.237305	729.727051	2424.126221	1235.579956	29.854412
756.554443	731.361633	2416.398682	1236.694458	29.989418
756.871582	727.795166	2417.141846	1245.313599	30.634235
757.188599	727.275085	2409.414307	1243.307373	30.677147
757.505615	727.497864	2421.822754	1244.347656	30.504763
757.822510	729.875671	2434.082764	1242.044312	30.053194
758.139465	725.789063	2465.587158	1248.731567	30.057655
758.456238	718.061523	2472.348633	1248.137207	30.216017
758.773010	720.513489	2478.515869	1252.000854	30.232458
759.089783	732.030334	2491.296143	1256.904663	29.834850
759.406433	737.008789	2504.967773	1257.499146	29.440184
759.723145	731.287415	2508.757080	1252.520874	29.324463
760.039673	727.349304	2514.404053	1254.304199	29.487341
760.356201	728.463867	2516.113037	1256.458984	29.535723
760.672668	736.562805	2520.348389	1264.706665	29.608034
760.989136	727.795166	2511.951904	1256.533325	29.635185
761.305481	716.649719	2506.304932	1260.842896	30.407709
761.621826	710.705566	2515.221436	1257.796509	30.317879
761.938049	720.216309	2533.648682	1274.886108	30.586737
762.254333	733.070618	2553.190186	1272.434204	29.633413
762.570496	731.807434	2590.118408	1275.109009	29.236309
762.886597	721.107910	2643.095947	1282.167725	29.191639
763.202637	716.723938	2734.117188	1301.040649	28.963945
763.518677	715.906738	2846.760010	1343.393188	29.447660
763.834656	719.250305	2981.619873	1379.207153	29.171045
764.150574	717.021301	3111.575195	1416.878540	29.227039
764.466370	721.330750	3220.800049	1440.878296	28.788013
764.782288	719.027405	3278.384766	1463.094849	29.072432
765.097961	724.154297	3312.118408	1474.686035	29.000856
765.413696	725.937500	3282.917236	1461.385864	28.762384
765.729309	732.699036	3219.834229	1426.315063	27.888151
766.044861	728.463867	3099.612061	1376.978027	27.350216
766.360474	723.708496	2950.709717	1339.083618	27.632456
766.675903	723.708496	2797.868896	1300.297485	27.798670
766.991394	720.959290	2659.962891	1264.335083	28.023453
767.306763	727.720764	2558.762451	1229.561401	27.407383
767.622131	722.148132	2479.407471	1207.419189	27.615223
767.937378	725.863281	2415.804443	1196.199463	27.831512
768.252625	725.417480	2356.139404	1184.311035	28.140516
768.567810	723.485535	2308.883057	1173.239868	28.368553
768.882996	726.754883	2265.787354	1157.264771	27.972761
769.197998	728.686768	2229.081787	1143.593140	27.653143
769.513062	729.578430	2183.459717	1125.463257	27.229513
769.828064	728.909668	2143.039063	1108.596558	26.849516
770.142944	724.302979	2117.850342	1102.949585	27.171419
770.457825	724.748718	2097.045898	1097.302490	27.148186
770.772705	717.021240	2072.897217	1099.531616	28.211309
771.087402	722.296692	2055.807617	1094.033325	27.876534
771.402100	724.823059	2026.160767	1090.986938	28.137501
771.716736	730.841614	2004.464478	1096.931030	28.743944
772.031372	726.903503	1976.229492	1094.404785	29.415966
772.345947	725.120300	1967.090210	1088.757935	29.279100
772.660461	720.141907	1944.204956	1072.114136	28.754421
772.974854	719.696106	1933.802612	1054.578491	27.582621
773.289246	716.575439	1914.632446	1052.349365	28.026541
773.603638	713.826233	1901.703735	1044.176147	27.810101
773.917908	704.464050	1886.026001	1048.708618	29.134703
774.232178	706.395935	1873.691772	1038.306274	28.434122
774.546265	708.402100	1862.992188	1040.015137	28.721279
774.860474	715.683777	1851.846680	1039.792114	28.526575
775.174561	720.587830	1846.942749	1042.690063	28.596867
775.488586	724.377258	1846.125366	1041.649902	28.283772
775.802551	725.045959	1828.367065	1042.392944	28.762886
776.116516	725.045959	1816.478516	1039.718018	28.831102
776.430359	725.863281	1814.323853	1037.414673	28.623121
776.744202	728.463867	1813.358032	1025.229004	27.354294
777.057922	724.823059	1798.571777	1015.941101	27.112305
777.371704	727.349365	1778.955688	1006.133118	26.510277
777.685303	728.018066	1767.661743	997.662598	25.936245
777.998962	732.624817	1750.646362	1004.647034	26.720675
778.312500	732.030457	1737.643188	1001.897888	26.836119
778.626038	728.315247	1727.315430	1009.030945	28.099665
778.939453	728.018066	1740.392578	1000.783386	26.943125
779.252869	732.030457	1753.767212	1010.442688	27.248920
779.566223	725.194580	1755.104492	1004.201233	27.090393
779.879578	723.782898	1749.903320	1000.560486	26.973209
780.192749	713.974792	1730.807617	989.489319	27.095362
780.505920	719.919006	1734.745605	981.538879	25.779760
780.819031	719.547546	1728.950195	974.331543	25.241066
781.132141	742.804382	1748.120117	989.712219	24.560228
781.445190	748.822815	1733.036743	989.563660	24.460215
781.758118	753.801086	1729.321655	988.820618	24.091703
782.071045	739.609192	1707.402222	968.313171	23.631496
782.383911	727.720886	1684.665527	970.765076	25.397936
782.696838	719.993347	1661.111694	975.000305	27.096163
783.009583	708.253601	1640.827148	974.405945	28.539555
783.322266	712.785950	1639.043823	967.198486	27.466707
783.634888	713.083191	1631.910645	958.059265	26.661816
783.947510	718.210144	1619.873657	954.121155	26.163975
784.260132	714.569275	1609.174194	952.560852	26.602982
784.572571	715.609558	1601.520874	952.709473	26.763391
784.885010	718.284424	1592.233032	952.560852	26.806660
785.197449	726.754883	1586.437500	952.858093	26.300777
785.509766	735.522644	1585.248657	950.108887	25.253580
785.822083	739.163391	1582.573608	943.421692	24.218143
786.134277	739.609314	1574.994751	941.489807	24.166149
786.446533	731.658875	1568.158813	952.783875	26.434551
786.758606	726.011902	1573.806030	955.087219	27.020159
787.070740	731.064514	1583.167969	950.777649	25.784796
787.382690	730.544373	1588.071899	941.266846	24.573261
787.694641	725.863281	1591.787109	934.951172	24.146221
788.006653	710.556946	1602.858398	944.684814	26.238651
788.318481	718.135803	1629.384399	948.251282	25.252766
788.630310	718.210144	1657.545044	958.950928	25.628855
788.942017	724.525879	1671.216797	957.836426	24.644850
789.253784	717.021301	1684.665527	966.975586	25.831217
789.565430	724.005676	1687.786133	974.108704	25.950207
789.877014	722.668274	1683.476685	976.783508	26.448065
790.188538	719.919006	1668.467407	970.096375	26.374760
790.500061	714.272034	1652.046753	960.214050	26.226130
790.811462	712.785950	1646.325317	951.000488	25.517353
791.122925	711.151367	1625.223511	946.839539	25.784416
791.434204	715.535156	1602.858398	942.752930	25.607103
791.745483	719.844788	1574.251831	926.777832	24.219492
792.056702	715.683777	1552.852539	911.322815	23.369127
792.367920	722.593933	1533.088013	900.697571	21.974699
792.678955	720.587830	1529.075684	908.499329	23.242340
792.990112	722.965515	1513.174805	902.257996	22.689240
793.301086	710.408386	1499.131714	906.418945	24.851624
793.612122	714.495056	1476.617798	908.425049	25.446032
793.922974	714.940735	1472.902832	908.573730	25.546528
794.233826	722.445313	1475.800659	906.567566	24.440292
794.544556	719.473328	1477.212524	900.920593	23.945873
794.855286	721.925293	1471.639648	905.081482	24.430130
795.166016	718.581543	1470.896484	907.310547	25.086435
795.476624	720.513489	1476.395020	907.830627	24.781282
795.787292	725.120300	1491.478516	910.208313	24.151632
796.097778	728.835449	1504.481445	903.298157	22.492569
796.408264	732.179016	1520.902466	906.270264	22.072533
796.718689	730.098572	1530.413208	908.499329	22.291328
797.029053	728.018066	1542.821777	909.539551	22.277941
797.339355	721.999512	1535.019897	902.480774	22.198860
797.649658	723.262695	1538.214966	900.771790	21.781532
797.959839	717.244141	1519.639160	901.366394	22.946585
798.270020	712.934570	1520.828125	905.898743	23.884851
798.580078	715.758118	1513.843628	899.805969	23.061169
798.890137	729.652771	1506.784790	898.988708	21.789854
799.200195	728.761047	1484.716919	898.245605	22.419901
799.510071	727.349304	1457.299194	898.691406	23.473131
799.820007	714.940735	1438.872070	890.963867	24.314894
800.129883	717.838562	1441.175415	883.979492	22.968681
800.439575	716.278259	1436.791626	879.149719	22.604919
800.749329	717.392761	1436.717407	884.276672	23.200083
801.058960	720.736328	1426.537964	882.642090	22.939272
801.368591	723.559875	1414.352417	884.796875	23.340872
801.678162	727.200684	1407.739258	882.196289	22.775433
801.987671	731.361633	1395.479492	876.029114	21.783405
802.297119	730.692932	1397.188354	872.016785	21.204025
802.606506	725.194519	1392.804565	868.153015	21.413473
802.915894	717.095520	1393.250366	876.029114	23.505503
803.225159	713.603271	1374.674438	874.468750	24.334064
803.534424	715.832336	1372.073853	872.388245	23.856447
803.843628	713.751953	1370.290649	869.862000	23.777737
804.152771	721.479431	1379.504272	877.366516	23.690151
804.461792	724.674500	1383.813843	876.995056	23.109007
804.770874	726.309082	1382.699341	877.589417	23.047316
805.079773	726.383362	1390.501099	873.131287	22.096674
805.388733	727.646484	1392.210083	876.920715	22.461994
805.697571	729.206848	1394.364868	879.372742	22.575974
806.006470	724.377258	1402.463745	881.081726	23.109806
806.315125	721.776672	1411.305786	882.939270	23.372849
806.623901	721.776672	1417.175781	877.589417	22.406233
806.932495	718.804504	1409.745605	874.097168	22.475529
807.241150	721.256531	1399.120239	880.190002	23.446228
807.549622	724.674377	1400.383423	874.394470	22.157480
807.858154	722.668274	1404.098633	873.725769	22.167709
808.166565	716.575500	1401.423706	865.775391	21.785833
808.474915	718.507324	1393.696167	869.193176	22.317587
808.783264	725.491760	1380.544556	867.781433	21.721863
809.091492	726.383362	1369.547729	856.115906	20.170979
809.399719	725.268799	1357.064941	857.676270	20.957310
809.707825	720.884949	1352.160889	856.338867	21.457165
810.015930	722.445313	1344.507690	859.162354	21.978027
810.323975	717.169861	1342.575806	861.168518	23.024830
810.632080	717.615662	1338.043457	856.264587	22.347311
810.939880	715.981018	1329.498657	853.589661	22.429451
811.247864	717.095520	1314.712280	845.564941	21.496958
811.555664	716.352539	1302.229492	840.066589	21.116047
811.863464	714.866516	1296.805298	845.267761	22.408070
812.171143	716.575439	1296.062378	842.444275	21.720737
812.478882	719.770508	1300.371948	849.280090	22.306108
812.786438	733.070618	1310.031250	843.261536	19.098516
813.094055	739.534973	1303.492554	847.868347	19.209490
813.401489	737.974609	1292.867310	839.174988	18.237829
813.708984	727.795105	1284.099609	840.215149	20.208364
814.016357	732.624817	1289.226563	843.335938	19.890545
814.323730	740.575195	1291.455688	854.629883	20.704071
814.630981	734.928223	1282.836426	850.097473	21.019808
814.938232	725.343201	1276.743530	845.119141	21.722137
815.245361	717.467102	1275.851929	840.140930	21.969406
815.552490	719.176086	1279.046997	851.063293	23.556717
815.859619	714.049133	1284.099609	848.685730	23.618364
816.166565	713.751953	1283.951050	844.227478	22.882450
816.473572	716.872620	1283.802368	833.453613	20.563570
816.780457	721.925232	1275.777710	836.648621	20.713709
817.087341	720.439209	1272.954224	842.444275	22.081764
817.394043	712.785950	1272.359741	846.010742	23.808262
817.700806	707.584778	1284.916870	841.849792	23.256115
818.007507	703.869629	1293.833252	837.911804	22.720413
818.314209	713.677673	1312.631958	831.967590	19.749407
818.620667	709.665344	1321.028076	841.552551	21.572660
818.927246	714.569275	1334.551147	845.862122	21.176886
819.233704	713.454773	1343.170288	851.360596	21.899702
819.540161	717.689941	1370.662231	855.075684	21.040056
819.846497	724.228577	1415.020996	865.923889	20.511995
820.152832	726.086243	1462.277710	887.100159	21.871201
820.458984	733.442200	1504.035767	893.936035	20.827301
820.765259	733.665039	1559.391235	903.892578	20.615494
821.071350	738.197510	1652.418335	916.301086	19.481461
821.377502	728.389587	1810.608765	937.403076	19.313416
821.683472	721.107910	2065.392822	986.888672	19.771164
821.989441	711.671448	2492.039063	1068.547363	20.045069
822.295349	719.770447	3082.151123	1185.648560	19.720705
822.601196	718.432922	3753.476318	1308.619507	19.445738
822.907043	720.736328	4359.786621	1412.866211	19.019520
823.212769	718.507324	4766.593750	1488.283325	19.015800
823.518494	723.188416	4939.347656	1520.902344	18.920395
823.824097	724.228577	4857.540527	1500.469116	18.780109
824.129700	725.268860	4627.202637	1444.296265	18.427464
824.435242	724.748779	4326.647949	1382.030640	18.248203
824.740723	722.296814	4043.405518	1329.424316	18.280869
825.046082	721.182312	3775.395752	1293.759033	18.747108
825.351501	728.389648	3476.698486	1234.019653	18.397860
825.656799	724.674500	3152.590576	1176.360718	18.603865
825.962036	729.801331	2834.054688	1115.729858	18.340401
826.267212	724.005676	2577.412842	1075.086060	18.942430
826.572449	733.665039	2434.454346	1052.943970	18.772398
826.877502	724.154297	2388.906738	1052.423828	19.718821
827.182495	730.098450	2454.590332	1073.154175	19.893147
827.487488	729.058289	2554.453125	1088.757690	19.705294
827.792419	733.293518	2665.610107	1100.200317	18.987923
828.097290	719.770447	2701.275635	1092.993042	18.835308
828.402100	716.055359	2666.873291	1086.305664	18.979235
828.706848	717.912903	2569.908203	1065.278076	18.756266
829.011597	720.290527	2439.804199	1046.479614	18.969845
829.316223	725.937500	2309.699951	1019.953430	18.564396
829.620789	721.850891	2179.595947	992.015625	18.533056
829.925354	725.937561	2070.816895	970.690735	18.198895
830.229797	724.080017	1946.062622	950.034607	18.490818
830.534302	733.813660	1822.200073	934.505371	18.439379
830.838562	729.058289	1685.408691	911.174255	19.042807
831.142944	727.869446	1573.657349	886.728699	18.782398
831.447144	714.494934	1479.961548	861.985840	19.268105
831.751404	718.433044	1423.120117	847.719727	18.346680
832.055542	717.541321	1385.002808	842.815735	18.768785
832.359619	724.377258	1366.278442	835.757019	17.351543
832.663635	723.336975	1372.519897	837.688904	17.614746
832.967651	726.457703	1395.256470	840.586670	17.064770
833.271545	722.371094	1449.646118	850.989014	17.684908
833.575439	722.668274	1520.902344	860.574036	17.276356
833.879211	722.222412	1625.520508	877.515137	17.191748
834.183044	723.262695	1729.767212	901.440613	17.702644
834.486694	720.513489	1818.113281	920.090515	18.183041
834.790344	727.275085	1868.713379	935.099670	18.207256
835.093933	727.423645	1868.341919	937.328796	18.397915
835.397522	730.544373	1841.072876	929.155518	17.884380
835.700928	721.925232	1785.494507	913.551941	18.017323
836.004395	731.361633	1745.445190	910.579773	17.672916
836.307739	735.076843	1694.250610	900.920471	17.290258
836.611023	729.875671	1641.421387	892.004150	17.786104
836.914307	727.423645	1564.815308	867.558594	16.734695
837.217529	723.931396	1497.348267	857.304871	17.244707
837.520691	731.138855	1424.234497	846.085022	16.584459
837.823730	723.262695	1353.126831	830.927307	17.093307
838.126831	723.559998	1282.093384	819.336121	17.147789
838.429749	723.262695	1231.864746	813.614746	17.764784
838.732727	724.005676	1204.447144	811.831543	18.280243
839.035522	720.587708	1190.775269	807.076172	18.394461
839.338379	719.324707	1186.763062	800.760437	17.421705
839.641113	721.925293	1190.701050	801.280579	16.928198
839.943848	719.547546	1194.861938	804.698425	17.914644
840.246460	714.494934	1200.583374	808.041992	19.244864
840.549072	716.798340	1219.753418	811.757141	18.880175
840.851563	723.931396	1237.957642	815.175110	17.750790
841.154053	729.058289	1249.697388	820.153503	17.496807
841.456482	727.200684	1241.598511	817.032715	17.463531
841.758850	723.857117	1228.744019	817.404297	18.528343
842.061157	719.473328	1220.719360	815.620911	19.181715
842.363403	717.095520	1198.651489	806.704651	18.608248
842.665588	710.408264	1187.654663	797.193848	18.184649
842.967712	720.662048	1156.819092	785.677002	14.906318
843.269775	721.405090	1140.992676	793.553040	17.194967
843.571777	721.925232	1110.751587	790.878235	17.733624
843.873840	715.980957	1089.500977	796.153625	21.464088
844.175659	716.872620	1063.569214	791.621155	21.560217
844.477600	727.497986	1049.302979	791.695496	19.949196
844.779297	729.206848	1051.086304	776.463440	14.681457
845.081116	732.476257	1038.083374	770.147705	12.326757
845.382751	736.934387	1032.213501	764.500671	9.335670
845.684387	732.699219	1004.498535	768.067200	13.012535
845.985962	729.206970	1004.721375	770.370605	14.940647
846.287537	720.364929	1002.863831	772.451111	18.437658
846.588989	723.857117	1002.789551	771.856628	17.208294
846.890381	726.606384	998.702942	765.243652	14.199837
847.191711	726.160461	991.718445	765.466614	14.801345
847.493042	721.702332	982.950684	764.946472	16.552885
847.794250	722.296692	978.938293	766.804016	17.342209
848.095459	723.262695	966.901306	760.414001	15.248529
848.396606	729.949951	967.347168	758.333496	11.956141
848.697693	729.058289	958.207825	754.841309	11.251614
848.998657	727.720886	958.802246	751.794922	10.417991
849.299622	730.915833	963.483398	760.859863	12.875411
849.600464	727.795166	972.771240	764.054871	14.801325
849.901367	728.835388	965.266663	763.831970	14.802011
850.202087	723.485596	954.344177	757.516174	14.740876
850.502808	727.274963	944.610535	753.281006	11.965847
850.803467	726.531982	942.901550	754.469788	12.912077
851.104065	727.869446	957.167664	761.454285	14.646794
851.404663	726.086182	956.573242	767.101318	17.794985
851.705139	721.850891	971.656677	770.593506	19.512203
852.005615	722.668274	956.201660	760.562683	16.226549
852.306030	720.736328	945.873596	752.092102	13.927402
852.606384	723.114075	932.424805	747.708252	11.750079
852.906616	719.101746	935.545593	753.875305	16.065857
853.206909	714.866394	947.211121	757.739075	18.452187
853.506958	717.838562	951.372070	755.064270	15.940200
853.807129	723.634094	948.548523	749.194336	11.364429
854.107178	732.773438	934.876892	747.113831	7.095571
854.407166	735.076843	931.384583	757.739197	11.544299
854.707092	725.194519	934.653870	761.825867	17.488523
855.007019	721.182190	943.570313	768.141541	21.115944
855.306763	718.730225	947.211121	765.169434	20.325205
855.606567	717.318420	946.022278	765.095154	20.890217
855.906250	721.850891	944.759094	767.695740	20.566694
856.205933	723.559875	936.883118	774.531555	23.894106
856.505493	726.754883	926.926453	769.181824	21.195288
856.805054	720.364929	930.047119	768.735901	23.068708
857.104492	716.946960	939.260681	759.745300	19.251326
857.403931	716.278259	944.536133	764.872253	21.289078
857.703308	711.968689	941.192566	764.723633	23.014593
858.002563	713.454773	927.372253	765.912415	24.522373
858.301819	715.089355	932.201965	763.534668	22.313450
858.601013	725.937683	930.047180	762.345886	17.837584
858.900208	724.674500	930.715820	764.723633	19.437428
859.199219	722.593994	925.663269	763.906250	20.343922
859.498291	719.696106	934.505310	761.231384	19.335894
859.797302	727.423584	939.780762	761.602844	16.095175
860.096191	739.089111	948.548523	760.488281	10.216380
860.395020	740.946716	940.449646	755.064209	7.076334
860.693787	727.795105	936.808777	748.897156	10.096015
860.992554	712.488770	925.068848	745.553528	15.554025
861.291260	712.934631	931.087402	750.977722	17.438738
861.589844	724.228577	932.573425	753.652527	14.122716
861.888428	734.185120	940.003723	750.160339	7.761796
862.186890	731.658875	938.443359	754.544128	11.067201
862.485413	725.937561	934.728210	752.686523	12.811379
862.783813	717.690002	939.260681	758.110657	18.242781
863.082153	718.284424	938.666260	751.051941	14.868520
863.380371	719.844727	942.678650	757.516296	16.905670
863.678589	729.875671	939.335022	759.299500	14.047512
863.976746	732.996399	938.740540	759.373779	12.820477
864.274902	737.305969	941.266907	748.822754	5.646564
864.572937	735.299744	944.090332	744.810364	4.555100
864.870911	728.166687	946.839600	747.039551	8.630636
865.168884	725.045959	937.477356	749.640137	11.577468
865.466736	724.971680	931.013000	749.714417	12.008629
865.764587	725.714661	925.886169	749.640137	11.952488
866.062317	725.417480	935.991394	748.005554	10.726910
866.360107	726.234802	938.071960	752.983826	12.627163
866.657715	728.984070	936.362976	746.593750	8.491549
866.955322	725.789063	937.774658	750.680420	11.742004
867.252808	722.519714	928.338196	741.987000	9.458473
867.550293	721.182312	932.053284	747.411133	12.438327
867.847717	723.188477	922.914063	745.776367	11.309463
868.145081	721.776672	929.081238	752.612244	14.874526
868.442383	714.940735	928.041016	760.191101	21.234306
868.739624	713.529053	933.539368	764.277771	23.066517
869.036804	716.203918	939.706543	769.181824	23.703482
869.333984	721.776611	938.146179	761.231445	18.234928
869.631042	719.770447	938.814880	759.893982	18.317532
869.928101	712.637451	932.350586	756.476013	19.952637
870.224976	717.689941	926.703613	752.686584	16.743710
870.521851	739.237732	939.929504	763.311829	11.995558
870.818726	745.479187	948.251282	762.791809	8.537971
871.115479	745.404846	956.573242	766.135437	9.817090
871.412231	723.559875	948.474182	754.395569	13.709974
871.708862	718.284424	945.056335	741.912598	10.419356
872.005493	706.618896	950.406067	737.380188	12.618093
872.302063	707.733398	944.981934	734.928223	11.462589
872.598572	711.225586	949.068665	743.918762	13.745691
872.895020	721.033630	946.170837	745.330566	10.792057
873.191406	730.693054	953.229553	754.469788	10.684420
873.487671	728.984070	949.365906	750.457458	9.743720
873.783997	727.126465	946.170837	757.590576	13.907735
874.080200	721.182190	941.341125	743.250183	10.023664
874.376343	729.875671	942.530029	745.330627	7.267642
874.672424	737.677429	955.087219	747.262451	4.408735
874.968445	740.946716	962.517395	757.144714	7.310533
875.264465	739.312073	963.483398	756.773132	7.789158
875.560364	737.083008	958.059326	753.652527	7.498323
875.856201	727.869446	959.842590	746.965271	8.231912
876.152039	722.742615	967.124207	750.234680	11.249646
876.447754	719.250305	965.712463	747.931213	11.637043
876.743469	725.045959	966.827087	755.510071	12.599872
877.039063	726.086182	961.477234	756.996155	13.131329
877.334595	723.782898	956.573242	754.246887	13.086449
877.630127	727.943787	949.365906	749.863098	9.899332
877.925537	730.024231	947.656921	754.989929	11.471483
878.221008	732.699036	950.183289	755.955872	10.693572
878.516296	722.296692	951.372070	757.813416	15.504383
878.811646	721.776672	969.130371	752.017883	12.225898
879.106812	719.993347	989.860840	755.287170	13.078205
879.401978	722.891113	1009.996887	751.200500	9.860264
879.697083	716.798340	1015.792480	755.658691	12.997027
879.992126	714.940735	1031.247559	769.999084	17.406628
880.287109	722.668213	1064.832397	786.494324	18.653650
880.582031	730.098450	1131.704712	791.844055	15.374662
880.876892	726.383362	1257.573608	801.726379	14.183810
881.171753	726.754944	1448.011353	824.314392	13.526320
881.466492	724.302979	1722.931519	861.688660	13.757436
881.761230	721.850891	2042.953491	894.307617	13.054000
882.055786	713.826172	2377.389893	927.446533	12.841129
882.350403	711.671387	2631.282471	957.985046	12.831435
882.644958	721.256531	2789.250000	975.148926	12.277234
882.939453	718.804504	2817.781982	970.021973	11.968564
883.233826	718.284424	2774.463623	959.916809	11.751524
883.528137	715.015076	2695.034180	944.982117	11.614386
883.822449	722.222473	2627.492676	940.152344	11.438266
884.116577	721.776611	2552.521240	931.533203	11.457447
884.410828	727.498047	2445.673828	920.982178	11.261021
884.704956	720.885071	2286.963623	903.075195	11.633524
884.999023	719.398926	2084.934326	876.846375	11.530089
885.292969	713.974854	1857.567993	853.069580	12.162955
885.586914	715.535156	1654.870117	832.859192	12.490117
885.880798	726.977783	1505.150269	823.720032	12.431980
886.174622	723.485535	1401.572266	808.562256	12.546584
886.468384	724.154297	1318.427490	792.289978	11.465381
886.762085	712.934570	1251.555054	780.252930	12.498292
887.055664	715.089355	1204.521362	775.274658	12.296969
887.349304	714.866516	1159.271118	774.382996	13.392408
887.642822	716.575439	1123.382813	769.701965	13.059381
887.936340	715.981018	1098.937256	763.386230	12.378755
888.229736	718.284363	1078.578247	755.881653	10.435173
888.523071	721.702332	1066.838501	746.370911	7.147492
888.816284	730.618652	1052.200806	755.212891	7.647887
889.109619	729.132507	1052.498047	771.930969	13.235319
889.402710	728.315186	1039.346436	775.274597	15.097972
889.695862	722.371033	1010.888489	768.958801	16.147297
889.988892	723.634216	987.037354	750.011658	10.014095
890.281921	724.005676	973.662903	737.157227	5.267843
>>>>>End Processed Spectral Data<<<<<
