Jaz Data File
++++++++++++++++++++++++++++++++++++
Date: Fri Jun 04 17:04:26 2021
User: jaz
Dark Spectrum Present: Yes
Reference Spectrum Present: Yes
Processed Spectrum Present: Yes
Spectrometers: JAZA3586
Integration Time (usec): 122000 (JAZA3586)
Spectra Averaged: 10 (JAZA3586)
Boxcar Smoothing: 1 (JAZA3586)
Correct for Electrical Dark: No (JAZA3586)
Strobe/Lamp Enabled: Yes (JAZA3586)
Correct for Detector Non-linearity: No (JAZA3586)
Correct for Stray Light: No (JAZA3586)
Number of Pixels in Processed Spectrum: 2048
>>>>>Begin Processed Spectral Data<<<<<
W	D	R	S	P
191.335022	0.000000	0.000000	0.000000	0.000000
191.713211	230.487015	226.177490	230.932846	-10.345255
192.091385	464.540619	461.122711	463.871857	19.566422
192.469528	699.262878	689.975098	692.575684	71.999924
192.847641	705.429993	700.228821	694.953369	201.428131
193.225739	712.637390	707.064697	702.606628	179.998474
193.603790	720.067688	719.101746	719.993347	7.696196
193.981842	730.247070	730.024231	733.962219	-1667.187012
194.359863	731.956055	737.157288	744.959045	249.998245
194.737854	743.324402	750.606140	748.822815	75.509621
195.115829	747.708252	749.045715	746.890930	-61.109844
195.493774	751.200500	747.485352	745.033386	165.999115
195.871704	747.262451	748.451355	743.547302	-312.485229
196.249603	749.342957	748.897156	747.113770	500.041077
196.627457	749.342957	748.599915	743.547363	779.981934
197.005310	751.051941	736.711487	741.466797	66.839890
197.383133	746.073547	736.488586	746.222229	-1.551197
197.760910	752.835144	744.438965	753.801086	-11.504547
198.138687	747.039551	751.572083	761.900085	327.863892
198.516449	743.695862	751.274902	751.349121	100.979263
198.894180	736.042725	739.906555	746.222168	263.454712
199.271866	747.039551	737.677429	737.603088	100.794060
199.649536	740.575256	732.327637	745.479187	-59.458740
200.027191	736.488586	738.049011	748.079834	742.826416
200.404816	724.154297	736.191406	753.280945	241.973770
200.782410	728.018066	753.726807	749.788757	84.682060
201.159988	731.807434	764.575012	742.061340	31.292841
201.537537	730.395752	777.132141	743.844543	28.775846
201.915070	730.172852	772.450989	743.472961	31.458599
202.292557	730.395752	769.999084	746.668030	41.088154
202.670029	734.036560	770.593506	741.466858	20.325270
203.047485	739.089111	774.828796	741.912659	7.900314
203.424911	743.027161	773.862854	745.330566	7.469934
203.802292	745.850769	771.782410	749.342957	13.466898
204.179688	744.067383	772.079590	740.723816	-11.936107
204.557037	738.643372	773.268372	729.801331	-25.536581
204.934357	734.631042	775.125977	723.262695	-28.073505
205.311661	729.727051	779.138367	725.789063	-7.969810
205.688934	724.377197	775.200256	737.231628	25.292517
206.066177	722.965515	764.872253	735.002502	28.723274
206.443390	727.126465	762.494446	743.993164	47.689178
206.820587	730.098572	770.519226	738.346130	20.404318
207.197769	727.052063	775.868958	739.980774	26.484091
207.574921	730.990173	770.965027	735.894226	12.267844
207.952042	729.058289	761.602844	738.569031	29.223759
208.329147	729.355469	759.893860	741.912598	41.119156
208.706223	763.980530	802.617920	787.757385	61.538460
209.083267	763.089050	805.664368	796.748047	79.057533
209.460297	765.466614	806.630371	796.376526	75.090111
209.837280	723.337097	754.172607	748.748535	82.409653
210.214264	721.330872	751.497742	730.767273	31.280678
210.591217	715.163757	755.955872	731.435974	39.890594
210.968124	718.730225	770.147705	732.847656	27.456482
211.345016	724.525879	775.571777	739.757996	29.840040
211.721893	733.442200	771.039368	736.488586	8.102703
212.098724	733.070618	762.717468	743.695984	35.839779
212.475555	735.968506	771.633789	747.188171	31.458227
212.852356	737.528809	771.485168	754.023926	48.577400
213.229126	738.048889	778.023743	749.119934	27.695023
213.605865	733.219238	765.169434	741.020996	24.418497
213.982590	727.720886	772.228210	745.404968	39.732971
214.359283	718.655945	767.918640	743.398743	50.226238
214.735931	723.262695	760.711243	743.472961	53.968090
215.112579	714.569275	755.064209	727.720886	32.477177
215.489197	721.033630	757.590576	727.275085	17.073240
215.865799	718.433044	761.974426	730.470032	27.644936
216.242355	727.200684	759.299500	736.117004	27.777725
216.618896	730.395752	755.732910	736.711426	24.926529
216.995407	730.470032	754.469788	743.250183	53.251171
217.371902	726.754883	761.677185	743.250183	47.234287
217.748367	720.513489	772.451111	742.135559	41.630844
218.124802	722.965515	772.896973	737.380188	28.868921
218.501236	726.606262	765.466614	737.826111	28.872227
218.877609	729.949890	752.612244	736.711487	29.836250
219.253983	726.680664	755.955872	727.349426	2.284398
219.630295	723.559875	760.042480	723.857117	0.814748
220.006592	720.959290	762.420227	728.389648	17.921349
220.382889	715.163635	757.739075	731.064453	37.347397
220.759140	715.758118	752.612305	735.522644	53.628986
221.135391	714.717957	753.652527	730.321472	40.076248
221.511581	715.089355	752.537903	734.928223	52.976334
221.887772	711.968750	755.807312	735.968445	54.745625
222.263931	716.278259	766.209656	741.169678	49.851234
222.640060	724.971680	773.565674	742.952881	37.002930
223.016159	730.990173	765.318054	736.414307	15.800956
223.392212	729.875671	756.921875	737.825989	29.395317
223.768265	723.559875	757.070496	741.541199	53.658581
224.144302	719.398926	765.763855	743.472961	51.922943
224.520294	717.169922	762.494568	731.584656	31.803301
224.896286	717.392761	766.878418	724.525879	14.414515
225.272217	722.668274	773.862793	724.525818	3.628404
225.648148	728.612488	779.658386	735.299744	13.100476
226.024048	729.801270	773.714172	734.036621	9.644891
226.399902	721.107910	764.500732	725.789001	10.787709
226.775772	712.265808	763.014648	718.953125	13.177280
227.151581	713.231750	759.819641	723.708496	22.488131
227.527374	710.333984	762.122986	736.265625	50.071712
227.903137	711.968689	767.175598	741.689758	53.835777
228.278870	711.151367	777.057861	744.884766	51.183723
228.654572	716.278259	776.834961	741.615479	41.840488
229.030273	716.724121	774.680176	737.157288	35.256310
229.405930	715.386536	767.398621	735.299744	38.285732
229.781555	717.095520	760.116882	735.225403	42.141582
230.157181	722.965515	755.732971	740.055176	52.154369
230.532761	722.668274	750.977539	740.500977	62.992462
230.908325	723.634094	763.460449	743.621765	50.187046
231.283859	719.398926	764.946533	746.890930	60.358833
231.659332	721.479431	769.479004	742.804382	44.427376
232.034821	719.176086	759.150940	739.014893	49.628216
232.410263	722.593933	756.030273	722.816895	0.666824
232.785690	722.668213	757.739075	719.101746	-10.169317
233.161087	717.838623	762.123047	715.758118	-4.698052
233.536469	713.231750	762.791748	723.931458	21.589401
233.911804	711.968567	762.717468	728.686829	32.943100
234.287140	725.045898	759.448059	723.634216	-4.103469
234.662430	727.497864	758.630798	732.699158	16.706726
235.037704	727.126465	763.683350	730.544373	9.349560
235.412933	720.067627	763.014648	735.968445	37.024261
235.788162	717.615723	766.655457	723.485596	11.969626
236.163345	719.324646	762.123047	721.405090	4.861033
236.538513	721.925293	765.466614	726.977844	11.604037
236.913635	725.714661	763.683350	732.476257	17.808350
237.288742	723.931458	769.999023	735.076843	24.193563
237.663834	720.959290	775.348877	734.259521	24.453636
238.038879	712.711731	774.977356	732.402039	31.623079
238.413910	716.426819	764.723633	733.590820	35.538578
238.788910	718.135803	758.928040	733.293518	37.158333
239.163879	724.897400	759.076599	730.024231	14.999857
239.538834	718.061523	760.488342	728.686768	25.043697
239.913757	723.114075	772.525391	734.185242	22.406137
240.288651	726.531982	778.989746	735.819824	17.705372
240.663528	732.104736	784.265198	734.631042	4.843336
241.038361	726.383484	771.410828	729.281189	6.435434
241.413177	718.804504	769.701843	734.259521	30.365078
241.787979	721.850891	766.729736	735.448303	30.298044
242.162735	719.919006	772.748291	730.990173	20.956495
242.537476	718.804504	764.946472	725.343079	14.170558
242.912170	713.454773	771.113586	735.151123	37.628853
243.286865	715.237976	769.850403	744.067444	52.789207
243.661514	714.272034	777.577942	738.791992	38.732494
244.036148	720.141907	782.556213	730.321472	16.309668
244.410751	716.649719	785.231140	725.194580	12.459440
244.785339	720.810730	785.825684	737.751770	26.057144
245.159882	716.724060	775.794739	735.745605	32.201332
245.534378	717.615662	774.085754	732.401855	26.184114
245.908890	714.569275	765.838196	729.429749	28.985346
246.283356	713.380432	770.667908	733.665039	35.408451
246.657791	716.946960	766.432617	735.002502	36.486416
247.032196	718.878906	782.927795	741.689697	35.614655
247.406586	715.906738	777.057800	739.757813	39.003532
247.780960	718.061523	784.785339	743.027161	37.416382
248.155289	716.352539	772.228210	739.460632	41.356270
248.529602	715.163635	773.937195	739.089172	40.707993
248.903870	714.569275	770.073425	733.739319	34.538036
249.278122	713.603333	769.627625	734.705322	37.665787
249.652344	715.683838	769.330383	731.064453	28.670280
250.026550	721.033630	773.268494	733.070618	23.043972
250.400711	731.138855	779.064026	729.058289	-4.341281
250.774857	733.070618	785.379700	733.145020	0.142235
251.148987	718.432922	782.779114	738.494690	31.177864
251.523071	713.751953	781.441650	736.265625	33.260117
251.897125	718.358704	778.989746	741.987000	38.970623
252.271164	725.120300	772.451111	731.436035	13.343813
252.645187	720.439148	767.621399	725.417480	10.551282
253.019165	709.368103	763.088928	713.974854	8.575354
253.393112	710.111084	777.132141	725.937561	23.614185
253.767044	714.494934	787.608887	727.275085	17.479771
254.140930	716.129578	795.039124	735.522644	24.576324
254.514801	715.089355	792.512756	732.401917	22.360889
254.888657	715.683777	782.927795	734.556702	28.066324
255.262466	727.869446	778.321045	732.253357	8.689341
255.636276	731.956116	777.726563	732.327637	0.811705
256.010010	735.299744	776.834961	733.367859	-4.651197
256.383759	732.401855	776.834961	736.414246	9.030182
256.757446	729.132568	776.612000	729.132568	0.000000
257.131134	722.891113	785.454041	735.076843	19.477558
257.504791	720.810730	780.104248	735.894226	25.438694
257.878418	715.609558	773.416992	743.250183	47.815002
258.252014	720.884949	769.999084	742.284180	43.570412
258.625580	722.668274	783.893738	739.089111	26.820274
258.999115	729.132629	794.296082	733.144958	6.157331
259.372650	721.850891	804.401306	728.166687	7.650835
259.746124	716.278259	798.308411	729.949890	16.666592
260.119598	715.460938	806.927551	735.299744	21.689669
260.493042	721.925232	803.955383	735.596924	16.666666
260.866425	725.640320	810.865540	732.030457	7.497941
261.239838	724.005676	805.590088	729.727051	7.012828
261.613159	722.519714	808.562195	728.315247	6.735664
261.986511	722.742615	802.469421	735.894226	16.495846
262.359802	721.999512	790.878113	739.386414	25.242821
262.733063	721.405090	777.206482	743.101501	38.881489
263.106293	714.494934	778.246643	727.423584	20.279692
263.479523	716.649719	788.723328	738.048828	29.690630
263.852692	715.237976	794.296082	742.358459	34.304493
264.225861	715.163635	787.311584	753.429626	53.038223
264.598969	716.278137	779.955627	748.971436	51.342003
264.972076	709.293762	782.556213	754.098328	61.156246
265.345154	710.408386	798.085510	749.120117	44.152603
265.718201	712.563049	803.063782	744.141785	34.893349
266.091217	728.018066	812.500244	744.364563	19.349047
266.464203	736.711487	818.815979	754.172546	21.266874
266.837158	738.940613	817.404297	749.194275	13.068035
267.210114	728.835388	811.905823	742.729980	16.726278
267.583038	727.275085	802.246521	742.135559	19.821514
267.955902	718.433044	812.946045	737.305969	19.968601
268.328766	718.581604	820.153503	740.649597	21.726475
268.701569	711.002747	818.593079	734.408142	21.754181
269.074371	717.095520	810.642761	743.473083	28.197052
269.447144	718.804504	811.237061	735.448425	18.006557
269.819885	719.844727	814.580750	732.550476	13.411740
270.192596	719.027405	823.719910	729.206848	9.723183
270.565277	719.547546	835.831238	733.516418	12.012753
270.937927	722.816833	840.512390	736.488586	11.616201
271.310577	718.507324	838.803467	739.237793	17.232862
271.683136	713.900574	832.339111	743.844543	25.282286
272.055725	712.934570	836.648682	738.791992	20.900948
272.428284	712.414551	837.317383	734.110840	17.370535
272.800812	721.628113	837.317383	728.092346	5.587583
273.173279	725.268860	842.369934	734.259460	7.677641
273.545776	732.773438	850.394714	736.117004	2.842655
273.918152	732.476257	854.109802	745.479187	10.690249
274.290558	729.652649	848.834290	738.569031	7.481339
274.662964	729.206848	849.502991	744.364746	12.600486
275.035278	716.872620	849.354431	730.024231	9.927107
275.407593	718.804504	855.224365	743.473083	18.082836
275.779907	714.272034	855.298645	740.500977	18.598577
276.152161	721.330750	860.202637	741.318176	14.392709
276.524384	721.256531	861.242859	732.550476	8.067892
276.896606	718.284363	859.905334	731.064453	9.024151
277.268799	717.467102	863.546204	731.213074	9.409951
277.640930	711.225647	860.351135	728.909668	11.858483
278.013031	717.690125	862.134460	730.172852	8.641894
278.385162	719.919128	863.471985	732.253235	8.592031
278.757233	721.851013	868.747375	735.299744	9.155251
279.129272	720.364929	873.502747	730.841553	6.841304
279.501282	718.135742	867.038513	735.968506	11.976112
279.873230	719.696106	866.295593	735.448425	10.745139
280.245178	719.770508	872.091064	741.763977	14.438937
280.617126	720.587830	878.629700	741.169617	13.022997
280.988983	720.736389	893.490234	750.234558	17.075260
281.360870	723.559875	906.418884	753.949707	16.619270
281.732697	721.479309	909.391052	747.708313	13.958151
282.104492	723.411316	910.282654	745.702148	11.928438
282.476288	727.720886	907.533447	736.191345	4.710716
282.848053	730.470032	919.198975	740.723877	5.433107
283.219757	730.247131	917.341370	741.392578	5.957130
283.591461	724.302917	922.022461	753.726807	14.881629
283.963135	720.736389	911.991516	758.036316	19.502707
284.334747	722.742615	922.988464	751.126221	14.174379
284.706360	712.860352	934.505371	742.284180	13.275204
285.077942	721.553711	951.074890	740.872375	8.416942
285.449524	714.569275	948.028503	741.689697	11.616771
285.821014	715.683777	947.656982	743.844543	12.139664
286.192535	714.940735	953.526855	741.169617	10.993465
286.563995	713.380432	965.192383	737.454407	9.560299
286.935425	714.494934	965.043762	728.240967	5.486369
287.306824	709.888184	965.117981	722.816895	5.065518
287.678223	710.705566	962.591736	726.606262	6.312652
288.049561	718.581604	964.523621	734.631042	6.525700
288.420898	720.662109	968.758789	734.482422	5.570535
288.792145	726.680664	973.365540	737.825989	4.518041
289.163452	722.816895	974.182922	740.500977	7.035192
289.534668	723.857117	977.600891	745.702148	8.609091
289.905914	717.987122	984.956848	735.894226	6.707541
290.277039	717.764343	997.811218	738.271790	7.322862
290.648193	722.148193	1011.260010	751.497742	10.151626
291.019318	729.727051	1023.742859	756.476074	9.097818
291.390381	732.253357	1021.736633	753.652527	7.392196
291.761475	727.497986	1015.941101	743.324402	5.486841
292.132507	725.714600	1013.711975	742.952942	5.985590
292.503510	723.559875	1017.129944	745.999329	7.643645
292.874481	733.962219	1020.993713	756.030212	7.688353
293.245422	733.516418	1020.547913	751.720703	6.342260
293.616364	734.408142	1026.120483	746.073669	3.998983
293.987213	719.250305	1029.835693	735.819824	5.334932
294.358093	715.832458	1049.748779	746.890930	9.301274
294.728943	709.888184	1070.182007	747.856934	10.538274
295.099731	711.448547	1094.033203	743.398743	8.351144
295.470490	715.089355	1101.240723	733.442200	4.752759
295.841248	720.959290	1111.345825	728.909668	2.036540
296.211975	716.575439	1125.389038	729.875671	3.253373
296.582642	713.900574	1131.779053	737.603088	5.672107
296.953308	716.575439	1146.862427	737.751770	4.921443
297.323883	719.176025	1147.382690	731.956055	2.984547
297.694519	716.649719	1166.181274	731.881775	3.388429
298.065063	711.597168	1170.639404	739.757813	6.134652
298.435608	715.683777	1169.450562	744.959045	6.451611
298.806122	714.569275	1152.063599	742.729980	6.436816
299.176575	716.278137	1129.327026	743.844543	6.673884
299.547028	709.442383	1123.531494	744.290344	8.415570
299.917450	708.327820	1130.664551	741.987000	7.969749
300.287872	705.058411	1136.311523	730.470032	5.892507
300.658234	711.894348	1133.933960	737.900391	6.161991
301.028564	713.454773	1128.732544	738.569031	6.047581
301.398865	720.141907	1118.776001	749.714417	7.418460
301.769135	721.405090	1120.484985	749.194336	6.963329
302.139374	727.126404	1119.147583	748.897156	5.553463
302.509583	728.983948	1130.515869	736.785828	1.943029
302.879791	727.572266	1142.032837	729.578430	0.484042
303.249939	731.436035	1147.679810	726.606384	-1.160294
303.620087	722.371094	1145.450806	735.968445	3.213898
303.990173	721.850891	1131.704712	739.534973	4.314729
304.360260	717.021240	1141.364136	747.782532	7.249159
304.730286	722.296692	1152.286621	742.507141	4.700214
305.100281	726.531982	1157.116333	745.404968	4.383110
305.470276	729.281189	1153.624023	744.736145	3.642092
305.840179	733.293518	1157.859253	753.206726	4.690253
306.210144	727.943787	1163.506348	743.473083	3.565342
306.579987	733.590759	1178.441284	747.262451	3.073323
306.949890	733.070618	1179.109985	739.163513	1.365999
307.319702	735.894226	1200.286133	746.445129	2.271983
307.689484	729.652771	1199.543091	737.825989	1.739388
308.059265	731.213074	1214.329224	745.553467	2.968312
308.429016	730.172852	1223.171265	742.878601	2.577240
308.798737	728.315247	1238.477661	746.147949	3.495495
309.168396	722.593933	1257.053345	745.850769	4.351469
309.538055	726.011902	1273.994507	736.711426	1.952530
309.907684	725.937561	1290.266724	731.733154	1.026988
310.277313	719.844727	1300.297485	723.931396	0.704049
310.646851	711.374207	1314.340698	734.408020	3.820082
311.016388	709.516663	1327.418091	744.736145	5.699854
311.385895	717.764343	1336.111450	752.983704	5.695726
311.755371	716.575439	1333.436646	753.875427	6.046739
312.124817	712.860291	1330.167358	749.937317	6.006253
312.494232	712.563049	1334.328247	745.850769	5.353745
312.863617	719.027344	1329.795776	742.729980	3.880790
313.232971	727.720764	1324.000244	737.528809	1.644874
313.602295	725.491760	1318.947632	734.928223	1.590087
313.971619	729.875671	1328.235352	734.928223	0.844400
314.340820	730.767273	1338.860718	739.014893	1.356308
314.710083	739.460693	1354.092651	739.832214	0.060446
315.079285	727.943665	1370.959473	740.872375	2.010637
315.448486	730.098572	1393.918945	741.318176	1.690157
315.817596	719.696106	1393.919067	750.829041	4.617602
316.186707	721.107910	1373.560181	755.584412	5.284142
316.555786	713.083191	1353.498413	760.339783	7.379055
316.924866	712.042969	1334.402466	748.451355	5.850057
317.293884	721.405090	1337.523071	741.169678	3.207922
317.662872	726.086182	1336.037231	736.488525	1.705439
318.031830	722.073792	1354.464355	735.968445	2.197163
318.400757	719.919128	1366.575684	743.621582	3.665385
318.769684	716.203918	1378.538452	742.952881	4.038588
319.138550	723.559875	1372.742798	741.541199	2.769839
319.507416	713.380432	1379.875854	735.002502	3.244144
319.876190	706.916016	1375.714844	732.847717	3.877355
320.244995	711.076965	1395.479492	738.271790	3.973513
320.613770	722.445313	1386.563110	737.603027	2.282383
320.982483	726.977844	1387.083130	739.757874	1.936059
321.351166	716.278259	1376.160767	735.299744	2.882556
321.719818	709.070801	1377.498169	738.791992	4.446435
322.088440	707.882019	1390.501099	740.946777	4.843808
322.457062	715.980957	1405.733276	746.668030	4.448999
322.825623	721.107910	1423.194336	748.525574	3.905169
323.194183	733.665039	1440.135376	742.284180	1.220029
323.562653	735.225403	1464.432251	740.129456	0.672519
323.931183	732.922058	1502.847046	739.089172	0.801002
324.299591	718.507324	1541.335815	742.135559	2.871587
324.668060	715.312317	1560.505859	735.745544	2.417580
325.036407	716.203918	1577.818359	727.572266	1.319424
325.404755	723.337097	1577.446655	724.971680	0.191379
325.773102	724.154297	1577.298218	730.990234	0.801264
326.141388	719.547546	1577.298218	737.751770	2.122321
326.509674	717.541443	1580.864624	743.993164	3.063942
326.877899	724.005676	1594.833618	742.432800	2.116046
327.246124	732.699158	1595.799683	738.643372	0.688705
327.614288	735.151123	1602.338257	738.866272	0.428414
327.982422	723.262695	1606.944946	736.488586	1.496680
328.350525	720.885010	1610.362915	748.154114	3.065743
328.718628	724.600098	1610.585938	751.349121	3.019125
329.086700	725.789001	1613.186523	760.191162	3.876747
329.454712	722.668274	1621.136719	754.841309	3.580875
329.822693	716.352539	1631.613403	748.228333	3.482700
330.190674	720.810730	1640.381226	750.531738	3.232053
330.558563	722.593933	1649.594727	754.692688	3.462646
330.926483	721.330811	1659.922852	753.578125	3.435711
331.294312	719.919128	1682.213745	746.816650	2.795144
331.662231	719.398926	1709.482788	739.757813	2.056279
332.029999	714.866455	1726.572266	739.757813	2.460335
332.397766	716.723938	1733.259644	739.534973	2.243997
332.765503	722.519714	1748.566040	741.318298	1.832138
333.133240	728.909668	1776.801147	743.993103	1.439408
333.500916	722.816895	1809.048462	750.234558	2.524108
333.868561	718.804504	1823.760254	753.206726	3.113448
334.236176	717.541321	1832.230835	756.253113	3.472877
334.603790	724.971680	1825.171875	752.686584	2.519078
334.971344	721.553711	1826.955200	745.330627	2.150976
335.338867	720.885010	1840.775757	742.507141	1.930736
335.706360	715.981018	1860.391602	735.894226	1.740040
336.073853	713.677551	1862.323242	743.473083	2.593971
336.441284	716.278259	1869.307739	741.987000	2.229669
336.808655	717.169922	1865.741211	750.754700	2.924048
337.176086	724.748779	1844.936523	747.485352	2.029711
337.543396	720.885071	1784.825562	750.977539	2.828398
337.910706	720.142029	1746.336914	750.160217	2.925194
338.277954	721.925293	1783.934082	750.011719	2.644651
338.645264	732.179016	1862.174805	754.989929	2.018672
339.012421	730.767273	1949.406250	757.144714	2.164500
339.379669	724.748779	2005.430298	758.259277	2.616615
339.746796	721.850891	2044.810913	760.339783	2.909301
340.113953	730.544434	2072.525635	762.197327	2.358669
340.481018	726.606262	2078.469971	763.014648	2.693199
340.848114	726.309082	2082.333740	753.058105	1.972606
341.215118	720.810730	2077.801270	748.971375	2.075228
341.582153	733.367859	2084.711670	750.606018	1.275631
341.949066	730.767273	2096.525391	759.225159	2.083670
342.316010	728.909668	2109.899902	758.407898	2.136020
342.682922	724.600159	2118.073242	758.779358	2.452806
343.049835	719.770508	2132.488037	750.160339	2.151161
343.416656	727.572266	2172.314453	766.878418	2.720634
343.783478	727.126404	2213.775391	771.410889	2.978812
344.150269	731.287354	2273.291992	785.676941	3.527200
344.516998	721.479431	2325.303711	780.847229	3.701640
344.883728	723.782776	2383.334229	788.054688	3.872848
345.250427	726.829285	2420.411133	782.259033	3.272930
345.617065	731.584656	2429.847656	779.807068	2.839514
345.983704	722.593994	2429.178955	773.862854	3.004179
346.350281	713.826233	2427.395752	772.079590	3.399533
346.716827	711.894348	2430.813477	769.404724	3.345729
347.083405	708.327820	2419.296631	774.382996	3.860689
347.449860	730.024170	2404.882080	798.234192	4.072586
347.816376	732.253235	2378.578857	811.682922	4.824664
348.182770	733.293518	2372.634521	807.373352	4.518878
348.549194	712.785950	2363.643799	797.565430	5.135480
348.915558	712.042969	2378.207275	788.054688	4.562078
349.281921	724.525879	2391.581787	796.673767	4.327863
349.648193	728.463867	2404.287354	798.828552	4.198812
350.014526	731.807556	2431.853760	809.602356	4.576040
350.380737	719.696228	2463.581055	815.100891	5.470812
350.746948	722.073792	2504.596191	823.348450	5.681536
351.113159	717.764343	2523.246094	828.029602	6.107249
351.479309	720.142029	2535.729248	831.596008	6.138729
351.845428	714.049133	2560.620361	831.224548	6.345567
352.211517	712.934570	2583.654297	833.899414	6.466219
352.577576	707.584778	2615.827393	837.986084	6.833581
352.943604	711.597168	2642.130615	850.171692	7.178043
353.309601	714.643555	2677.870117	858.270752	7.315875
353.675537	716.872620	2730.030518	865.478088	7.381709
354.041473	715.980957	2781.968018	867.038513	7.311641
354.407379	715.832336	2841.930664	875.211731	7.496332
354.773254	728.761047	2897.583252	886.282898	7.263013
355.139038	732.253235	2951.155518	896.313721	7.393768
355.504913	727.943787	3019.811279	905.527344	7.748422
355.870636	717.912903	3082.522705	910.134033	8.129085
356.236389	711.002747	3139.141357	921.799561	8.681416
356.602081	718.507324	3206.756836	931.013000	8.540368
356.967804	723.708496	3273.555420	937.848938	8.398169
357.333405	723.931458	3357.145752	939.483643	8.185896
357.699036	715.683838	3429.962158	957.242004	8.899535
358.064606	707.584900	3519.348389	973.588562	9.460385
358.430176	704.909912	3590.010498	994.319031	10.031162
358.795654	707.436218	3639.347412	1000.783386	10.005322
359.161163	711.522766	3637.043945	1013.266174	10.314176
359.526581	714.940735	3647.372070	1021.811035	10.464705
359.892029	720.216248	3674.566406	1031.544678	10.537967
360.257416	716.055359	3730.516357	1044.770630	10.904612
360.622772	721.033508	3817.004883	1061.488770	10.996718
360.988098	718.655945	3926.973389	1085.265625	11.426852
361.353394	722.148193	4093.262695	1117.587280	11.730218
361.718658	721.851013	4248.629883	1146.565308	12.042556
362.083893	722.593994	4386.684082	1175.469116	12.359825
362.449097	729.355530	4464.107910	1183.270874	12.153827
362.814209	726.829163	4487.810059	1187.505981	12.248847
363.179382	724.748718	4399.761230	1180.595825	12.403961
363.544434	725.120178	4251.898926	1175.766235	12.777837
363.909546	728.909668	4063.912842	1155.110107	12.779612
364.274536	731.658875	3917.387939	1142.478638	12.895628
364.639587	723.114075	3795.680420	1136.608765	13.457632
365.004517	721.925293	3723.458252	1138.169067	13.867706
365.369507	713.008972	3685.563721	1140.620972	14.385337
365.734344	718.284424	3670.702881	1152.955322	14.722537
366.099274	718.804504	3662.677734	1178.292480	15.608279
366.464081	724.823059	3642.839111	1188.026245	15.873908
366.828918	724.228699	3642.319336	1185.797119	15.817481
367.193665	723.857117	3642.022217	1183.642334	15.755970
367.558411	723.188416	3672.263428	1201.252075	16.210630
367.923126	711.151306	3677.984619	1213.066284	16.917532
368.287781	710.036804	3693.068115	1233.573853	17.550505
368.652435	707.361877	3668.473877	1238.997925	17.953932
369.017059	725.120300	3666.170654	1248.285767	17.788389
369.381653	729.058289	3654.430664	1249.846069	17.802444
369.746185	733.887939	3670.925781	1250.068970	17.574884
370.110687	731.138672	3681.699951	1264.855103	18.088640
370.475220	731.435974	3704.807861	1270.427856	18.127295
370.839661	736.117004	3733.489014	1285.511353	18.329201
371.204041	735.299805	3772.052002	1300.892090	18.624907
371.568451	729.949890	3812.918701	1315.678345	18.998844
371.932770	730.024231	3870.131592	1339.603882	19.412701
372.297150	727.646484	3893.313721	1348.297241	19.605686
372.661377	729.206848	3920.063232	1366.204102	19.963205
373.025696	725.120300	3932.620361	1370.588013	20.123701
373.389862	723.039734	3949.932617	1386.860352	20.571510
373.754059	725.937561	3963.232666	1387.677734	20.441145
374.118225	718.581543	3972.966553	1390.129517	20.635174
374.482361	724.154297	4007.368896	1396.148071	20.467556
374.846436	723.857117	4044.222656	1416.729858	20.867363
375.210510	732.104736	4112.878418	1437.386108	20.861538
375.574524	733.962219	4185.546387	1462.723267	21.113813
375.938538	726.680664	4264.901855	1489.175171	21.550222
376.302460	728.166687	4350.647461	1513.174927	21.670460
376.666412	718.061523	4461.209961	1540.815430	21.980265
377.030304	721.851013	4553.939941	1561.025879	21.898628
377.394196	714.717957	4636.267090	1591.267090	22.352114
377.757996	723.782776	4714.656738	1608.133789	22.159332
378.121796	722.891174	4779.671387	1621.731079	22.156485
378.485565	728.018066	4798.023926	1620.914063	21.938444
378.849304	721.182190	4764.810547	1618.313354	22.186291
379.212982	722.668274	4704.997070	1616.901489	22.455032
379.576630	719.398926	4624.006836	1619.947876	23.063749
379.940277	718.358704	4554.311035	1612.666382	23.313837
380.303864	710.259583	4499.104004	1601.372192	23.519377
380.667450	709.070801	4498.286621	1609.917114	23.773951
381.030945	711.745789	4500.887207	1613.632202	23.801868
381.394501	717.318420	4539.004395	1633.248047	23.966637
381.757935	718.358704	4560.849609	1644.467896	24.101791
382.121399	720.216248	4565.382324	1660.145874	24.444448
382.484741	719.993347	4583.437500	1682.436523	24.911533
382.848145	724.451477	4606.396973	1706.584961	25.300032
383.211487	719.696106	4669.108887	1729.395874	25.565821
383.574768	720.216248	4726.693359	1758.745483	25.921259
383.938019	715.832458	4791.336426	1786.088867	26.260712
384.301270	719.176086	4855.534180	1816.924438	26.539007
384.664459	721.776672	4903.235840	1838.249390	26.700552
385.027649	720.587830	4953.984863	1861.431641	26.948660
385.390778	724.228699	5000.350098	1898.285767	27.456121
385.753876	717.244141	5045.377441	1922.434204	27.845493
386.116943	717.169861	5073.315430	1951.635254	28.338478
386.479980	716.352539	5084.832031	1971.251099	28.726210
386.842987	723.262695	5123.098145	2003.201294	29.090601
387.205994	724.154358	5148.361328	2025.194946	29.407316
387.568909	720.513489	5196.509277	2052.612549	29.760958
387.931793	722.965515	5216.868652	2082.556641	30.254124
388.294678	724.005676	5265.685059	2101.281006	30.325247
388.657471	721.256592	5300.607422	2120.673828	30.559294
389.020294	724.302979	5325.350098	2139.100830	30.749477
389.383057	722.742615	5348.161621	2160.648682	31.087044
389.745819	721.182190	5354.922363	2189.849609	31.695076
390.108521	717.021240	5363.021484	2209.911621	32.132813
390.471191	713.231873	5419.565918	2250.332275	32.660248
390.833801	719.547546	5494.908691	2295.508057	33.001911
391.196442	712.785950	5624.642090	2355.173340	33.437206
391.558960	717.467041	5719.897949	2409.414551	33.822510
391.921509	714.123474	5840.713379	2454.218994	33.942554
392.284027	723.634216	5935.672363	2510.020264	34.274231
392.646484	715.535217	6025.355957	2543.828125	34.432293
393.008911	716.501160	6068.525879	2572.583252	34.679996
393.371307	710.631287	6079.225098	2586.403564	34.939732
393.733673	714.049133	6051.659668	2591.976318	35.182922
394.096008	713.603333	6013.914063	2606.019287	35.703869
394.458344	711.820129	6007.078125	2619.616699	36.028400
394.820587	720.587830	6015.771484	2642.130371	36.288494
395.182831	721.776672	6059.312500	2654.018799	36.201015
395.545013	723.857178	6078.482910	2654.316162	36.052174
395.907196	723.485657	6058.940918	2648.966553	36.088409
396.269287	722.742493	5998.310059	2642.204834	36.383999
396.631409	723.931458	5915.759277	2633.511475	36.780499
396.993469	721.107910	5840.342285	2639.901367	37.482040
397.355530	719.919128	5798.732910	2634.328857	37.694031
397.717499	717.838623	5776.664551	2637.821045	37.953121
398.079468	716.872742	5775.624512	2638.712646	37.990395
398.441376	716.575439	5770.572266	2643.690674	38.130516
398.803284	713.900574	5791.079590	2650.601074	38.145206
399.165131	713.528992	5823.029785	2662.637939	38.146755
399.526978	720.141907	5846.806152	2679.876221	38.226307
399.888763	722.593994	5863.895996	2703.281494	38.525021
400.250519	722.222473	5869.691895	2721.857178	38.846951
400.612244	730.024231	5887.450684	2757.151123	39.305012
400.973938	725.937561	5903.054199	2783.454102	39.742519
401.335602	718.135742	5918.880371	2803.441406	40.096291
401.697205	707.956299	5968.588379	2822.091553	40.187859
402.058807	713.306152	6010.718750	2841.484619	40.173923
402.420349	716.649719	6086.209473	2887.180908	40.422894
402.781860	706.990417	6158.580566	2917.793701	40.553364
403.143341	706.767517	6249.527344	2957.025391	40.598148
403.504822	707.882019	6347.235840	3000.938477	40.661686
403.866241	715.832458	6450.813965	3057.928467	40.838772
404.227631	713.008972	6572.001465	3132.751221	41.299629
404.588959	717.244141	6701.213379	3185.357422	41.245422
404.950287	712.711731	6810.513184	3242.273438	41.483177
405.311554	713.454773	6898.189941	3271.474609	41.360214
405.672821	715.460938	6957.781250	3304.316406	41.472649
406.034027	716.575378	6958.152344	3298.372070	41.364491
406.395203	717.169861	6928.580078	3270.731689	41.110821
406.756348	712.414551	6880.729004	3256.093750	41.237831
407.117493	710.631287	6859.479004	3256.242188	41.399803
407.478516	716.724060	6842.760254	3277.790283	41.806252
407.839600	724.451477	6856.060547	3282.322510	41.716148
408.200592	736.711426	6854.054688	3299.263672	41.889954
408.561554	730.767273	6851.082031	3302.384521	42.017727
408.922485	726.160461	6863.416504	3319.176758	42.250420
409.283417	719.398926	6888.159668	3334.780273	42.397194
409.644257	720.736328	6970.486816	3359.671875	42.224655
410.005096	721.033508	7047.613281	3406.854248	42.452969
410.365906	719.250305	7117.309082	3434.123047	42.432758
410.726715	721.925232	7198.224609	3487.546875	42.703732
411.087433	718.358704	7252.763184	3503.447998	42.621933
411.448120	717.838562	7339.994141	3543.645508	42.672009
411.808807	720.142029	7363.622559	3556.499756	42.693851
412.169434	727.869446	7373.876465	3555.385498	42.544586
412.530029	733.070618	7377.814453	3555.756836	42.479988
412.890564	720.141907	7367.188965	3537.552734	42.385902
413.251099	718.358704	7364.811035	3557.837158	42.721718
413.611572	717.318420	7390.074219	3576.115967	42.842831
413.972076	728.092346	7435.398926	3620.771484	43.127285
414.332489	726.457703	7487.113281	3634.517578	43.014465
414.692871	720.959290	7576.275879	3672.188721	43.050232
415.053223	717.764343	7669.452637	3699.829346	42.896988
415.413574	713.306152	7822.961426	3783.865967	43.188591
415.773834	717.318420	7917.920410	3837.958252	43.338596
416.134094	720.513489	8051.220215	3906.911377	43.466450
416.494263	717.615662	8160.519531	3948.966797	43.415192
416.854462	718.730225	8349.397461	4035.677979	43.468647
417.214630	719.027405	8553.581055	4135.763672	43.611115
417.574738	725.343201	8772.477539	4247.960449	43.774803
417.934784	729.875671	8990.407227	4352.504395	43.854668
418.294861	723.337097	9240.137695	4479.042480	44.097607
418.654846	716.575500	9558.079102	4603.499512	43.962250
419.014832	716.724121	9877.952148	4749.949707	44.024944
419.374756	718.730225	10237.354492	4901.156250	43.939396
419.734680	732.922058	10581.004883	5071.086426	44.050854
420.094543	726.160461	10927.034180	5222.218262	44.075218
420.454376	725.120300	11228.032227	5348.904785	44.023834
420.814148	715.981018	11559.497070	5494.463379	44.067650
421.173920	715.386658	11920.906250	5645.743652	43.999359
421.533691	717.987244	12291.676758	5814.187988	44.032639
421.893341	721.330872	12594.088867	5933.963379	43.904140
422.253021	722.742615	12816.253906	6048.612793	44.039070
422.612640	723.262695	12927.261719	6099.732910	44.054989
422.972260	725.268860	12945.539063	6123.509766	44.174477
423.331757	724.079895	12912.030273	6107.312012	44.168476
423.691315	732.922058	12908.461914	6105.825684	44.128670
424.050781	739.386292	12956.610352	6147.063965	44.262737
424.410248	739.237793	13025.192383	6182.878418	44.307835
424.769653	732.401917	13120.895508	6233.255371	44.402927
425.128998	723.188477	13201.141602	6249.453125	44.288231
425.488373	727.572266	13199.209961	6238.381348	44.186733
425.847656	722.816895	13100.757813	6196.400879	44.220470
426.206940	724.302979	12962.333008	6148.847168	44.325302
426.566193	719.473328	12743.140625	6048.687500	44.322704
426.925385	715.683777	12529.296875	5954.471191	44.345345
427.284576	714.792175	12237.510742	5813.593750	44.249989
427.643677	722.742615	12006.874023	5738.250488	44.447441
428.002777	731.733215	11777.575195	5661.718750	44.632046
428.361847	727.720886	11525.096680	5569.880371	44.845707
428.720856	719.473206	11282.348633	5481.906250	45.086525
429.079865	715.015076	11079.723633	5413.993164	45.336323
429.438812	719.473328	10963.588867	5378.773926	45.482704
429.797760	717.912903	10911.131836	5339.690918	45.341690
430.156616	720.067688	10807.850586	5274.676270	45.149746
430.515503	723.708496	10723.887695	5249.487793	45.256981
430.874268	729.058350	10689.783203	5244.360352	45.331059
431.233093	726.234802	10712.817383	5264.348145	45.442104
431.591827	720.587830	10724.186523	5284.037598	45.618080
431.950562	722.742493	10733.770508	5305.883301	45.780918
432.309204	718.358704	10798.414063	5324.087402	45.691498
432.667877	718.210144	10929.855469	5379.070801	45.642605
433.026459	714.346375	11049.038086	5428.481934	45.614674
433.385010	721.182129	11150.312500	5478.562012	45.616264
433.743561	722.296692	11300.403320	5530.797363	45.457100
434.102051	723.559875	11435.932617	5588.902344	45.417969
434.460510	723.039734	11606.828125	5663.576660	45.393543
434.818939	721.330750	11670.727539	5682.078125	45.306129
435.177338	717.541321	11730.467773	5706.523438	45.301144
435.535675	717.392822	11705.500977	5710.535156	45.441330
435.894012	719.770508	11664.338867	5721.384277	45.699509
436.252289	721.107910	11667.831055	5760.764160	46.038036
436.610535	719.844727	11648.957031	5763.810547	46.151653
436.968719	730.618652	11755.953125	5815.079590	46.116161
437.326935	732.401917	11857.526367	5836.701660	45.880836
437.685028	739.237793	11981.015625	5879.500000	45.724640
438.043152	731.807556	12061.784180	5916.726074	45.762836
438.401215	731.138733	12212.246094	5983.523926	45.748074
438.759277	722.593933	12397.929688	6080.860840	45.893902
439.117249	724.525818	12676.862305	6224.115723	46.012672
439.475250	722.222473	12889.515625	6341.439453	46.182964
439.833130	731.138733	13180.708008	6489.302246	46.251911
440.191071	732.847839	13388.831055	6587.158691	46.257259
440.548889	733.070618	13634.176758	6698.910156	46.242851
440.906708	725.268860	13872.094727	6801.002441	46.214451
441.264496	716.946960	14076.426758	6881.621094	46.144569
441.622223	723.188416	14273.403320	6949.904785	45.952896
441.979950	726.457703	14351.198242	6992.332031	45.988945
442.337616	732.401855	14424.609375	7034.461426	46.026615
442.695251	735.299744	14342.356445	7024.133301	46.217442
443.052887	728.018066	14218.717773	6984.753418	46.378139
443.410461	718.061462	14091.362305	6933.855469	46.479130
443.768005	715.163635	13973.742188	6874.413574	46.454830
444.125458	726.457703	13913.333008	6828.197266	46.271309
444.482941	730.544373	13915.190430	6837.261719	46.316883
444.840393	726.829285	13994.249023	6904.431641	46.562199
445.197754	715.163757	14194.344727	7027.105469	46.827339
445.555084	713.157532	14387.458008	7118.126465	46.839462
445.912415	702.829407	14676.421875	7269.704590	46.994892
446.269714	709.888184	14878.749023	7372.093750	47.020050
446.626953	710.333984	15178.485352	7510.816406	47.003120
446.984161	720.290527	15436.167969	7611.199219	46.826355
447.341309	722.816895	15668.364258	7716.560547	46.794834
447.698456	724.080017	15840.449219	7786.776855	46.722176
448.055542	727.423584	16005.028320	7840.423340	46.558346
448.412598	730.990173	16030.589844	7851.419434	46.539970
448.769653	733.813660	15932.213867	7822.070313	46.638176
449.126617	729.355530	15712.203125	7746.726563	46.836029
449.483582	726.160461	15554.532227	7694.269531	46.991734
449.840515	727.646545	15353.541992	7610.901855	47.062111
450.197388	726.309082	15152.032227	7530.804199	47.169182
450.554230	726.606262	14989.831055	7473.516113	47.302834
450.911041	726.457703	14853.782227	7418.681152	47.370781
451.267822	724.005676	14756.965820	7403.002441	47.595066
451.624573	715.089355	14626.862305	7332.043457	47.563698
451.981262	712.414551	14549.585938	7300.242188	47.609638
452.337921	715.535156	14444.522461	7245.184082	47.561039
452.694580	721.627991	14404.401367	7224.007813	47.522381
453.051147	719.324646	14404.624023	7239.611328	47.644455
453.407715	720.216309	14388.870117	7230.843750	47.631809
453.764221	722.668213	14430.331055	7274.979980	47.800354
454.120728	730.618652	14278.234375	7202.460449	47.771076
454.477142	728.686829	14235.137695	7182.472656	47.782986
454.833557	727.126465	14092.700195	7104.380859	47.714031
455.189911	721.479492	14005.096680	7057.347656	47.696857
455.546265	723.931458	13853.147461	7014.548828	47.913120
455.902557	731.658875	13733.965820	6975.242188	48.019047
456.258820	726.532043	13737.979492	6992.257813	48.155487
456.615051	723.485596	13795.042969	7032.083496	48.262020
456.971252	717.244202	13810.127930	7069.680176	48.518234
457.327393	721.256531	13907.090820	7135.661621	48.646187
457.683502	721.033691	14068.700195	7220.292969	48.692104
458.039612	719.844788	14404.176758	7380.563965	48.674053
458.395630	719.770508	14727.096680	7551.162598	48.770138
458.751648	715.460938	15093.483398	7733.947266	48.813988
459.107605	716.278259	15578.084961	7982.044434	48.888847
459.463562	715.089355	16120.569336	8227.168945	48.762383
459.819458	720.216309	16598.113281	8441.606445	48.629807
460.175323	718.953125	17054.109375	8618.967773	48.362038
460.531158	714.717834	17476.150391	8831.250000	48.423859
460.886932	709.962463	17840.677734	8999.322266	48.388870
461.242676	705.355713	18062.992188	9095.172852	48.335022
461.598419	717.169861	18080.230469	9098.071289	48.268574
461.954102	721.033630	17877.681641	9000.660156	48.258999
462.309723	726.309082	17431.417969	8825.157227	48.481262
462.665344	714.197754	16919.472656	8586.199219	48.576782
463.020905	719.324707	16445.496094	8399.922852	48.839592
463.376373	718.581604	16068.484375	8240.172852	49.000908
463.731873	719.919006	15752.176758	8125.151855	49.262280
464.087341	713.677673	15537.741211	8000.694824	49.156677
464.442749	716.055359	15425.320313	7945.041504	49.145805
464.798126	715.758118	15345.815430	7887.531250	49.020813
465.153503	716.724060	15385.270508	7904.546875	49.001602
465.508820	714.569275	15409.046875	7905.958496	48.939400
465.864105	721.553711	15494.272461	7959.679688	48.996574
466.219330	725.863342	15673.565430	8059.542480	49.062252
466.574524	730.470032	15803.445313	8158.810059	49.282505
466.929657	725.343201	15982.737305	8258.227539	49.372021
467.284790	725.268860	16165.448242	8347.316406	49.365017
467.639893	723.188416	16380.554688	8420.727539	49.162415
467.994934	724.748718	16620.107422	8517.395508	49.024670
468.349945	725.194519	16730.521484	8582.781250	49.093575
468.704926	721.330811	16804.601563	8641.257813	49.243259
469.059875	724.154297	16657.035156	8576.167969	49.281818
469.414764	721.851013	16508.205078	8504.688477	49.301044
469.769653	722.296692	16331.070313	8425.555664	49.352108
470.124451	718.284424	16236.928711	8407.055664	49.545380
470.479248	719.696106	16070.862305	8350.065430	49.705471
470.834015	715.386536	15990.391602	8305.483398	49.689651
471.188721	711.374207	16049.610352	8333.273438	49.692150
471.543365	710.705505	16116.184570	8383.874023	49.808048
471.898010	710.185364	16199.627930	8439.377930	49.899746
472.252625	713.231750	16289.979492	8502.757813	50.007393
472.607178	704.315430	16511.625000	8593.333008	49.907402
472.961700	702.606506	16693.369141	8685.988281	49.924961
473.316193	707.361877	16934.630859	8797.739258	49.856682
473.670654	717.095520	17110.505859	8860.896484	49.677284
474.025055	724.600098	17379.927734	8985.279297	49.597820
474.379456	717.764343	17589.980469	9099.036133	49.674988
474.733795	724.302979	17769.646484	9231.221680	49.907581
475.088104	728.092346	17906.880859	9307.084961	49.939445
475.442383	738.494812	17908.666016	9308.645508	49.913013
475.796570	731.361633	17973.828125	9343.121094	49.945057
476.150787	725.640381	18069.083984	9408.284180	50.062973
476.504944	723.634277	18251.794922	9521.894531	50.195000
476.859070	731.361633	18448.919922	9619.527344	50.165863
477.213135	735.299805	18647.306641	9736.182617	50.250553
477.567200	726.086182	18960.271484	9898.756836	50.304802
477.921173	722.296814	19336.984375	10073.590820	50.236103
478.275146	717.169861	19762.443359	10271.756836	50.167759
478.629089	730.618652	20095.392578	10404.907227	49.958183
478.983002	731.435974	20490.089844	10614.812500	50.020496
479.336823	729.058289	20860.193359	10795.665039	50.005161
479.690643	720.810730	21228.660156	10991.453125	50.081520
480.044403	718.878906	21614.884766	11190.137695	50.111294
480.398163	723.262695	22142.359375	11473.008789	50.187672
480.751862	721.628113	22894.599609	11881.081055	50.329082
481.105499	717.912903	23808.226563	12381.434570	50.512615
481.459137	719.993408	24988.375000	13023.707031	50.698536
481.812744	720.810730	26433.046875	13836.354492	51.008957
482.166290	730.544434	28209.771484	14781.930664	51.134579
482.519806	727.795166	30341.294922	15867.122070	51.123058
482.873291	729.727051	32770.546875	17083.160156	51.039371
483.226715	719.844788	35465.433594	18511.853516	51.206520
483.580139	719.027527	38193.453125	19967.888672	51.365326
483.933502	719.027405	41202.191406	21463.158203	51.241379
484.286804	725.789063	44150.894531	22944.009766	51.164459
484.640106	724.525879	46969.718750	24354.500000	51.097149
484.993347	724.674500	49013.937500	25534.281250	51.377068
485.346558	717.169861	50221.359375	26229.900391	51.536507
485.699738	721.479431	50366.027344	26389.056641	51.702713
486.052887	720.439148	49661.265625	26013.455078	51.680809
486.405975	718.730164	48318.468750	25271.765625	51.582291
486.759064	715.312256	46491.359375	24317.125000	51.559307
487.112061	711.894348	44614.625000	23314.337891	51.483002
487.464996	712.191589	43118.984375	22492.326172	51.360012
487.817963	716.872620	42362.207031	22018.201172	51.149372
488.170868	722.816895	42171.996094	21862.087891	51.000458
488.523743	719.696106	42340.886719	21919.896484	50.936073
488.876587	713.751953	42549.230469	21961.728516	50.789375
489.229401	715.237976	42512.226563	21957.271484	50.821922
489.582153	724.600098	42125.109375	21761.111328	50.812206
489.934845	726.829285	41400.359375	21464.273438	50.985107
490.287537	723.485596	40527.753906	21054.716797	51.078014
490.640198	725.863281	39586.558594	20664.923828	51.309067
490.992798	723.782898	38688.089844	20201.349609	51.304943
491.345337	725.417480	38184.167969	19906.070313	51.204731
491.697876	720.736328	37948.332031	19718.306641	51.030884
492.050354	733.293518	38199.027344	19847.742188	51.018482
492.402832	733.145020	38489.773438	19973.537109	50.958981
492.755219	739.906555	38755.703125	20063.072266	50.829308
493.107605	729.206970	38652.574219	19953.919922	50.693581
493.459930	727.126465	38156.230469	19676.251953	50.626709
493.812225	722.668274	37079.882813	19130.720703	50.631084
494.164490	721.405090	35593.457031	18400.845703	50.698025
494.516724	714.420654	33823.566406	17533.435547	50.798702
494.868896	716.798340	32044.236328	16683.412109	50.966866
495.221039	716.352539	30520.736328	15894.911133	50.927269
495.573120	723.708496	29204.908203	15250.930664	51.006359
495.925201	722.742615	28403.851563	14833.053711	50.974518
496.277222	726.606262	27862.703125	14618.838867	51.194656
496.629211	723.411316	27694.333984	14536.733398	51.215611
496.981140	717.838562	27590.828125	14456.188477	51.123264
497.333069	714.420654	27669.591797	14444.002930	50.934872
497.684967	718.061523	27755.632813	14438.950195	50.747490
498.036804	716.203918	27881.875000	14514.812500	50.794285
498.388580	716.724121	27865.453125	14531.085938	50.884010
498.740326	712.860352	27796.500000	14521.204102	50.984074
499.092072	717.392822	27621.443359	14426.988281	50.957367
499.443756	714.866455	27398.833984	14334.778320	51.041557
499.795410	717.838623	27162.771484	14219.906250	51.057293
500.147003	723.411316	26860.062500	14082.817383	51.113689
500.498566	725.937561	26520.275391	13909.469727	51.110180
500.850098	724.525818	26159.537109	13714.276367	51.070354
501.201599	717.689941	25856.455078	13569.684570	51.124207
501.553009	717.244141	25611.181641	13432.296875	51.076904
501.904449	714.420654	25427.431641	13354.057617	51.145676
502.255859	715.237976	25248.435547	13281.833008	51.222816
502.607178	721.776611	25168.634766	13253.598633	51.261486
502.958405	721.925232	25058.220703	13231.159180	51.401558
503.309692	718.655945	24992.093750	13191.854492	51.386204
503.660919	708.402161	24988.080078	13161.390625	51.289761
504.012115	713.751953	25023.968750	13157.674805	51.188038
504.363251	712.191589	25131.039063	13207.531250	51.170883
504.714294	725.194580	25144.931641	13256.422852	51.315987
505.065369	731.287354	25186.765625	13297.809570	51.385307
505.416443	746.073547	25222.281250	13314.304688	51.348770
505.767395	741.912659	25308.992188	13338.156250	51.272854
506.118317	734.036621	25310.181641	13342.242188	51.302616
506.469238	717.467102	25347.482422	13368.098633	51.362663
506.820160	711.671387	25294.205078	13392.842773	51.586105
507.170929	715.163635	25328.685547	13404.507813	51.554359
507.521729	717.021179	25350.304688	13430.664063	51.611645
507.872498	718.358704	25487.914063	13442.922852	51.371792
508.223236	711.299988	25671.812500	13530.227539	51.356831
508.573883	715.906799	25798.720703	13624.145508	51.462479
508.924500	716.872742	25937.369141	13740.801758	51.640255
509.275116	721.405090	26103.734375	13832.714844	51.655262
509.625702	722.148132	26354.953125	13919.278320	51.485313
509.976196	723.931335	26616.720703	14032.960938	51.400524
510.326660	723.114075	26853.447266	14163.733398	51.436844
510.677124	729.281250	27069.000000	14307.807617	51.551525
511.027557	737.305847	27267.611328	14448.015625	51.679428
511.377869	747.039551	27476.697266	14553.153320	51.650917
511.728180	741.838318	27641.726563	14624.707031	51.609394
512.078430	728.240967	27807.048828	14676.496094	51.509853
512.428650	714.346375	27950.232422	14730.960938	51.463772
512.778931	712.860352	28051.431641	14768.112305	51.411804
513.129028	720.141907	28105.451172	14796.495117	51.401112
513.479126	725.640381	28120.236328	14823.987305	51.463970
513.829285	725.714661	28119.271484	14836.840820	51.512573
514.179382	723.857117	28120.833984	14859.207031	51.594559
514.529297	724.600098	28101.437500	14876.148438	51.691685
514.879272	724.971680	28188.148438	14938.041992	51.753193
515.229187	720.810730	28098.687500	14900.371094	51.792038
515.579163	719.473206	28162.515625	14902.079102	51.680149
515.928955	714.420654	28141.787109	14893.906250	51.698311
516.278748	718.433044	28331.478516	14956.246094	51.561909
516.628540	722.519714	28513.447266	15098.536133	51.729172
516.978333	730.692932	28850.927734	15290.163086	51.775776
517.327942	726.309082	29278.244141	15565.007813	51.970905
517.677612	722.296814	29751.478516	15818.007813	52.001846
518.027222	717.615723	30272.634766	16120.420898	52.115700
518.376831	714.866455	30927.021484	16446.240234	52.069687
518.726379	709.145203	31560.080078	16732.005859	51.936382
519.075867	707.064697	32137.859375	16933.441406	51.625729
519.425293	721.033630	32574.833984	17142.974609	51.554104
519.774658	726.086243	32939.140625	17315.876953	51.500210
520.124084	727.423645	33140.277344	17431.568359	51.535557
520.473389	719.919006	33100.671875	17395.158203	51.497379
520.822693	717.689941	32885.496094	17310.900391	51.583282
521.171997	724.228577	32563.763672	17179.755859	51.682686
521.521240	727.720886	32195.146484	17032.412109	51.814507
521.870361	733.442139	31813.005859	16829.863281	51.791012
522.219482	725.343201	31458.507813	16644.031250	51.796452
522.568604	721.479431	31159.736328	16474.546875	51.754169
522.917664	721.182190	30966.031250	16357.743164	51.699913
523.266724	724.525879	30892.544922	16330.250977	51.729362
523.615662	721.628113	31038.697266	16402.103516	51.721607
523.964600	714.197754	31343.115234	16603.017578	51.875225
524.313538	714.792175	31822.294922	16858.767578	51.897369
524.662354	722.965393	32426.750000	17176.412109	51.897423
525.011169	731.584656	33165.019531	17549.041016	51.852222
525.359985	727.275085	34026.484375	17986.683594	51.831284
525.708740	716.798340	35049.484375	18541.351563	51.917149
526.057434	717.392822	36188.988281	19169.431641	52.019199
526.406067	716.055359	37543.378906	19918.998047	52.143196
526.754700	717.392761	39041.250000	20754.607422	52.283924
527.103333	709.962463	40785.730469	21759.921875	52.525402
527.451782	707.882019	42682.082031	22830.179688	52.704514
527.800293	715.535156	44673.394531	23963.072266	52.885963
528.148743	716.649719	46665.300781	25067.140625	52.995003
528.497131	724.005676	48548.207031	26132.267578	53.128460
528.845642	721.330811	50240.453125	27123.390625	53.316902
529.193909	722.593933	51714.988281	28061.166016	53.613037
529.542175	719.324646	52929.613281	28904.875000	53.984669
529.890503	718.061462	53747.761719	29492.015625	54.260075
530.238770	714.569153	54091.859375	29702.734375	54.308052
530.586914	710.705505	53936.050781	29639.281250	54.351131
530.934998	715.163635	53220.066406	29143.906250	54.144928
531.283142	722.222412	52070.457031	28435.578125	53.971390
531.631226	731.807434	50339.500000	27280.986328	53.518272
531.979248	721.479431	48384.296875	26057.962891	53.157757
532.327148	716.055359	46383.769531	24814.953125	52.770100
532.675110	712.414490	44704.234375	23887.287109	52.679958
533.023071	715.460876	43598.531250	23266.708984	52.587765
533.370850	722.296814	43032.199219	22926.701172	52.480396
533.718689	721.479431	43113.410156	22856.556641	52.215313
534.066467	725.640381	43370.277344	22959.763672	52.138145
534.414246	720.290527	43674.394531	23073.890625	52.040661
534.761963	713.677673	43782.433594	23160.828125	52.119335
535.109619	717.541443	43858.441406	23187.650391	52.085400
535.457153	713.603333	43577.730469	23080.357422	52.180588
535.804749	720.885010	43049.136719	22776.830078	52.106915
536.152344	715.386536	42200.902344	22327.892578	52.096512
536.499817	723.857117	41233.925781	21825.904297	52.090866
536.847229	712.191589	40214.937500	21262.837891	52.023335
537.194641	708.922302	39241.644531	20736.849609	51.976414
537.542114	705.281433	38556.648438	20334.500000	51.858677
537.889404	716.724060	38028.578125	20075.109375	51.882664
538.236694	719.696106	37663.976563	19888.312500	51.885208
538.583984	713.974854	37394.554688	19727.818359	51.836269
538.931213	712.340149	37239.488281	19695.941406	51.971210
539.278381	706.470276	37142.968750	19653.292969	51.999569
539.625488	713.231873	37049.343750	19700.029297	52.253242
539.972595	709.293762	37118.964844	19738.517578	52.264202
540.319641	714.272156	37422.488281	19964.101563	52.440117
540.666687	714.197754	37989.121094	20236.048828	52.372616
541.013611	717.169922	38936.781250	20742.568359	52.395611
541.360596	721.925293	40047.312500	21263.505859	52.234909
541.707458	719.250305	41359.273438	21927.474609	52.185562
542.054260	718.953125	42542.691406	22520.187500	52.126461
542.401062	724.897278	43758.730469	23145.818359	52.100685
542.747864	725.640381	44688.550781	23623.140625	52.083675
543.094666	728.686829	45237.875000	23881.787109	52.018696
543.441284	725.640442	45166.246094	23869.974609	52.079250
543.787903	724.451599	44637.503906	23616.005859	52.129272
544.134460	721.702332	43729.980469	23129.248047	52.100540
544.481079	715.089355	42489.042969	22470.554688	52.079018
544.827637	720.736328	40963.832031	21652.033203	52.012146
545.174072	718.210144	39281.101563	20748.587891	51.942104
545.520508	722.593933	37806.121094	19970.490234	51.904167
545.866943	719.547546	36607.390625	19272.789063	51.697845
546.213318	728.612488	35649.257813	18807.951172	51.772636
546.559631	731.213074	34834.597656	18337.169922	51.625252
546.905823	726.309082	34113.265625	17947.822266	51.581562
547.252136	720.141907	33584.828125	17626.017578	51.440853
547.598389	714.717957	33102.230469	17386.615234	51.476311
547.944458	719.696106	32790.160156	17232.880859	51.490322
548.290588	727.275085	32391.007813	17031.296875	51.491154
548.636658	732.550476	31993.490234	16768.044922	51.295624
548.982727	730.024231	31399.587891	16504.417969	51.433380
549.328735	723.857117	30821.365234	16202.526367	51.428406
549.674622	719.696106	30097.359375	15870.987305	51.574184
550.020569	723.708496	29439.556641	15482.234375	51.395054
550.366455	720.439209	28655.140625	15093.409180	51.452026
550.712280	711.151367	27985.822266	14725.981445	51.384045
551.058044	710.854187	27366.359375	14457.229492	51.570492
551.403748	713.528992	26865.708984	14174.582031	51.472012
551.749512	720.290588	26536.919922	14012.898438	51.488548
552.095154	713.603333	26311.115234	13884.726563	51.454700
552.440735	720.810730	26258.580078	13868.528320	51.483421
552.786316	717.615723	26213.033203	13830.262695	51.431385
553.131897	722.593994	26222.619141	13817.110352	51.350994
553.477417	717.838562	26203.744141	13799.872070	51.330460
553.822815	721.850891	26183.609375	13794.968750	51.344131
554.168213	724.302979	26139.843750	13792.590820	51.418491
554.513672	721.553711	26099.500000	13756.777344	51.364376
554.859009	724.005676	26024.156250	13699.788086	51.287373
555.204285	730.024231	25902.599609	13613.522461	51.180691
555.549500	736.711487	25727.093750	13543.901367	51.248474
555.894714	733.888000	25543.492188	13464.916992	51.314926
556.239990	728.909729	25280.906250	13340.088867	51.365189
556.585022	725.714661	25067.062500	13210.801758	51.291683
556.930115	724.525879	24788.130859	13060.561523	51.264286
557.275146	722.222473	24545.009766	12922.208008	51.211411
557.620178	719.176086	24307.093750	12797.157227	51.204102
557.965149	725.566101	24097.859375	12707.102539	51.263844
558.310059	718.210144	23937.216797	12605.976563	51.198429
558.654968	722.371094	23801.390625	12536.502930	51.189922
558.999756	712.637390	23680.650391	12480.254883	51.234806
559.344604	724.451477	23630.865234	12458.633789	51.226624
559.689331	717.987244	23534.568359	12401.569336	51.206539
560.033997	723.039795	23472.080078	12359.291992	51.150517
560.378723	718.804504	23404.017578	12331.725586	51.191589
560.723389	720.290588	23419.548828	12320.282227	51.102955
561.067932	713.974915	23480.552734	12328.604492	51.016144
561.412476	711.894348	23485.232422	12326.895508	51.002628
561.757019	714.494934	23448.525391	12341.831055	51.145069
562.101501	721.850891	23474.978516	12343.465820	51.077003
562.445862	727.200684	23472.970703	12353.867188	51.115730
562.790222	728.612488	23470.224609	12338.561523	51.051567
563.134644	731.658875	23417.541016	12337.520508	51.158958
563.478943	730.247070	23437.603516	12325.260742	51.062809
563.823181	727.572266	23450.384766	12338.262695	51.097065
564.167358	719.547546	23459.005859	12343.539063	51.118153
564.511536	712.637390	23491.322266	12375.265625	51.199741
564.855774	707.510559	23489.244141	12345.174805	51.083309
565.199768	713.751953	23581.306641	12378.090820	51.008247
565.543823	721.256531	23684.216797	12420.739258	50.949364
565.887817	726.234863	23905.787109	12556.565430	51.037785
566.231812	725.417480	24059.070313	12663.635742	51.163094
566.575745	726.903564	24239.330078	12754.432617	51.153927
566.919617	728.389648	24432.515625	12825.020508	51.031754
567.263428	727.869446	24647.400391	12872.648438	50.773483
567.607239	716.649719	24853.812500	12943.831055	50.657082
567.950989	716.798340	24939.187500	12988.116211	50.661057
568.294678	714.940857	25001.900391	13031.137695	50.711155
568.638367	713.900574	24929.751953	13001.489258	50.741924
568.981995	713.231750	24830.037109	12973.106445	50.835403
569.325623	712.191589	24679.203125	12903.930664	50.868832
569.669128	715.460938	24527.179688	12812.463867	50.802731
570.012573	712.191589	24396.109375	12733.703125	50.758121
570.356140	716.203918	24260.208984	12661.182617	50.734692
570.699524	714.940735	24196.013672	12644.465820	50.804859
571.042908	714.569336	24231.826172	12649.518555	50.749748
571.386230	713.008972	24330.500000	12698.632813	50.748932
571.729492	717.318542	24460.306641	12752.723633	50.690357
572.072815	726.086182	24589.369141	12829.034180	50.717869
572.416016	725.714661	24719.994141	12886.247070	50.680965
572.759094	728.761047	24844.302734	12938.257813	50.629166
573.102234	722.148193	24939.259766	12964.041992	50.550594
573.445374	719.473328	24999.595703	12999.929688	50.578228
573.788391	710.705566	25049.826172	13010.628906	50.535614
574.131409	711.374207	25078.208984	12996.882813	50.418980
574.474365	714.494934	25064.314453	12968.351563	50.324219
574.817261	724.823059	24950.703125	12923.621094	50.354404
575.160156	723.485657	24771.634766	12851.546875	50.432411
575.502930	717.838623	24602.968750	12743.734375	50.348877
575.845703	714.717957	24400.343750	12647.364258	50.379276
576.188477	722.965515	24179.888672	12531.823242	50.342735
576.531250	729.206848	23913.216797	12395.106445	50.318729
576.873901	727.126404	23688.599609	12273.174805	50.284443
577.216431	721.628113	23490.431641	12151.020508	50.197601
577.559082	723.337097	23289.072266	12042.761719	50.162006
577.901611	724.377258	23026.859375	11911.840820	50.162415
578.244080	726.309082	22751.640625	11764.795898	50.117229
578.586487	722.668274	22444.771484	11625.774414	50.193604
578.928955	764.723633	22162.865234	11605.416992	50.661846
579.271301	762.643127	21821.072266	11436.377930	50.686279
579.613647	759.819580	21434.402344	11217.258789	50.581142
579.955872	713.454651	21085.031250	10884.976563	49.929970
580.298157	715.832336	20765.974609	10733.622070	49.963684
580.640320	715.163757	20548.044922	10621.722656	49.950176
580.982483	718.581604	20296.531250	10515.840820	50.042313
581.324524	712.786072	20058.689453	10410.332031	50.127125
581.666626	716.129639	19880.361328	10330.976563	50.170788
582.008728	716.203918	19754.640625	10275.174805	50.208797
582.350647	718.210144	19643.113281	10224.128906	50.229687
582.692566	718.953125	19559.894531	10177.838867	50.203892
583.034424	726.383362	19495.548828	10110.594727	49.998016
583.376343	717.244141	19459.140625	10069.727539	49.901478
583.718201	720.959290	19375.029297	10033.542969	49.922531
584.059937	715.683777	19305.703125	9993.047852	49.905079
584.401611	721.107910	19219.736328	9930.261719	49.782902
584.743347	719.770447	19132.728516	9895.338867	49.832123
585.085022	710.928406	19015.775391	9846.223633	49.906425
585.426514	713.008972	18966.587891	9807.438477	49.822723
585.768127	702.978027	18893.548828	9739.749023	49.678329
586.109619	704.166809	18840.570313	9699.625977	49.598911
586.451172	707.436218	18766.490234	9656.828125	49.556259
586.792542	715.832458	18754.601563	9623.836914	49.382553
587.133850	721.330872	18695.603516	9597.757813	49.384064
587.475220	726.977844	18638.539063	9589.583008	49.479805
587.816589	732.104675	18572.783203	9594.041992	49.672649
588.157776	738.791992	18642.406250	9604.295898	49.517960
588.498962	734.928223	18723.468750	9642.040039	49.515472
588.840210	718.581726	18787.146484	9670.573242	49.544563
589.181335	714.049133	18815.306641	9694.795898	49.613941
589.522400	717.095520	18847.183594	9703.415039	49.565781
589.863403	728.538269	18908.482422	9715.749023	49.434757
590.204407	739.312073	18912.419922	9728.380859	49.463573
590.545410	734.556702	18989.767578	9728.604492	49.268387
590.886353	739.237793	18991.626953	9741.160156	49.319145
591.227112	727.572266	19005.150391	9725.186523	49.227608
591.567932	724.748718	18936.716797	9712.108398	49.348644
591.908752	717.021240	18858.478516	9662.622070	49.310265
592.249512	719.696106	18850.304688	9679.340820	49.417229
592.590149	717.467102	18766.193359	9631.862305	49.390717
592.930786	719.101746	18731.119141	9588.097656	49.239326
593.271423	715.386536	18614.910156	9519.738281	49.187630
593.612000	724.451477	18542.167969	9473.670898	49.104046
593.952576	725.863281	18481.314453	9492.394531	49.373745
594.292969	732.624817	18481.908203	9500.643555	49.399284
594.633484	724.748718	18497.289063	9547.974609	49.645267
594.973877	728.686768	18568.025391	9536.160156	49.371078
595.314209	716.872620	18664.398438	9579.850586	49.382729
595.654480	720.067627	18874.080078	9642.933594	49.150932
595.994812	712.265930	19041.556641	9756.988281	49.345730
596.335022	719.473328	19233.927734	9831.364258	49.215008
596.675171	719.919128	19371.982422	9891.549805	49.172207
597.015320	726.309082	19565.392578	9955.153320	48.987751
597.355408	726.309082	19714.593750	9991.932617	48.796524
597.695496	731.956055	19856.361328	10034.731445	48.643475
598.035461	728.389587	19919.445313	10024.774414	48.441235
598.375366	725.640381	19926.205078	10043.944336	48.531406
598.715271	718.284424	19885.562500	10049.442383	48.682751
599.055176	726.011902	19765.638672	10022.916992	48.829239
599.395081	722.965515	19600.166016	9924.837891	48.745956
599.734802	730.395691	19329.925781	9754.461914	48.517715
600.074524	723.411316	19013.025391	9591.144531	48.485077
600.414246	726.383362	18602.130859	9402.489258	48.535622
600.753906	718.878845	18198.146484	9253.363281	48.826328
601.093506	718.358704	17808.728516	9073.477539	48.887878
601.433044	719.473145	17564.865234	8959.050781	48.912949
601.772583	719.101746	17406.154297	8851.237305	48.733204
602.112122	720.067688	17364.173828	8818.916992	48.658962
602.451538	724.005676	17329.326172	8810.816406	48.700119
602.790894	720.885010	17364.396484	8831.843750	48.733459
603.130310	721.702332	17477.560547	8884.747070	48.717560
603.469604	715.312317	17678.474609	8942.778320	48.501957
603.808838	718.953125	17945.222656	9046.430664	48.341736
604.148010	710.928406	18239.386719	9169.327148	48.255230
604.487305	727.200684	18511.705078	9327.072266	48.355980
604.826416	733.293518	18744.423828	9448.334961	48.386974
605.165527	737.900330	18920.373047	9532.742188	48.369888
605.504456	720.141907	19116.826172	9593.893555	48.235607
605.843445	713.974854	19249.978516	9639.737305	48.153652
606.182434	716.055359	19339.662109	9667.749023	48.066376
606.521423	724.080078	19294.708984	9652.442383	48.077866
606.860229	731.584656	19137.556641	9600.727539	48.186222
607.199036	728.018066	18946.896484	9504.729492	48.173717
607.537903	725.268799	18760.322266	9408.878906	48.148518
607.876648	716.946960	18534.515625	9286.874023	48.098183
608.215271	723.039795	18198.445313	9162.416992	48.292881
608.553955	723.188477	17846.027344	8997.985352	48.326077
608.892578	728.315247	17574.304688	8861.342773	48.278713
609.231140	722.965515	17449.177734	8761.628906	48.060272
609.569641	721.256531	17360.087891	8708.577148	48.004097
609.908081	723.188416	17304.583984	8686.507813	48.025627
610.246521	722.371094	17280.658203	8669.566406	47.995274
610.584961	725.789001	17321.673828	8663.622070	47.830128
610.923340	721.627991	17359.419922	8667.486328	47.757893
611.261597	730.841553	17356.447266	8655.078125	47.662842
611.599854	721.479431	17274.044922	8612.651367	47.673405
611.938110	718.210144	17210.666016	8563.686523	47.570095
612.276245	715.089355	17022.826172	8484.330078	47.641441
612.614319	721.107910	16790.630859	8399.178711	47.780327
612.952393	714.569275	16469.123047	8255.775391	47.866833
613.290466	715.386658	16175.851563	8106.278809	47.805111
613.628479	716.872620	15848.176758	7942.886719	47.755398
613.966370	725.863281	15568.502930	7797.773438	47.645905
614.304260	724.154297	15320.776367	7674.951172	47.619217
614.642151	724.748779	15107.304688	7558.369629	47.513260
614.979980	725.714661	14902.598633	7450.631348	47.435787
615.317749	729.355469	14699.159180	7378.260254	47.594833
615.655396	730.024231	14608.359375	7324.167969	47.513939
615.993164	724.674500	14512.137695	7307.301270	47.743568
616.330811	722.371094	14456.411133	7258.335938	47.589527
616.668396	719.176025	14373.489258	7233.519043	47.709045
617.005859	722.593994	14347.187500	7199.042480	47.534981
617.343445	729.132629	14348.375000	7215.611816	47.627312
617.680908	734.333801	14375.718750	7213.679688	47.497711
618.018311	742.209900	14416.734375	7233.815918	47.472260
618.355652	730.915833	14450.393555	7220.664063	47.303173
618.692993	735.745544	14470.008789	7233.741699	47.312302
619.030273	732.179016	14470.676758	7225.493652	47.263641
619.367554	737.454407	14476.843750	7195.550293	47.004242
619.704712	724.748718	14466.516602	7190.942871	47.055042
620.041870	727.126404	14456.413086	7183.587402	47.026920
620.379028	724.600098	14406.926758	7203.797363	47.354500
620.716064	724.228577	14375.347656	7173.185059	47.241230
621.053040	714.792175	14327.050781	7134.919434	47.164307
621.389954	712.934570	14258.765625	7100.813965	47.157532
621.726929	715.163635	14162.618164	7064.107910	47.212982
622.063843	717.987244	14088.092773	7039.068359	47.277721
622.400635	714.123535	14051.684570	7015.811035	47.247677
622.737427	718.284424	14035.856445	6987.056641	47.071434
623.074219	717.615723	13998.781250	6940.617188	46.855835
623.410889	724.377197	13928.862305	6884.592285	46.652443
623.747559	719.324646	13874.769531	6892.691895	46.926327
624.084167	727.572205	13827.661133	6886.450684	47.014019
624.420715	726.011902	13809.085938	6875.825684	47.005878
624.757324	730.172852	13787.093750	6845.806641	46.838253
625.093750	723.262695	13843.340820	6862.376465	46.791748
625.430176	729.281250	13899.588867	6887.564941	46.758846
625.766602	737.900330	13938.448242	6898.859375	46.671993
626.102905	743.101563	13974.484375	6916.542969	46.657566
626.439209	744.290344	14036.007813	6944.778809	46.649261
626.775452	733.219238	14167.523438	6970.562012	46.428474
627.111694	723.559875	14232.909180	6994.263672	46.417511
627.447876	715.015137	14303.942383	7002.734375	46.270901
627.783997	713.306152	14352.387695	7048.728027	46.450500
628.120056	717.392761	14423.198242	7090.337402	46.498142
628.456055	719.027344	14488.734375	7118.497559	46.474991
628.792053	715.683777	14458.121094	7102.671387	46.476383
629.128052	713.157532	14384.932617	7071.835938	46.509529
629.463928	715.535217	14279.347656	7028.145996	46.540092
629.799744	721.925232	14197.317383	6982.077637	46.456177
630.135559	723.559875	14083.782227	6907.181152	46.283817
630.471375	715.015076	13957.692383	6826.562500	46.150391
630.807068	720.142029	13771.268555	6743.195313	46.149681
631.142700	729.281250	13648.593750	6685.907715	46.106373
631.478333	731.658936	13482.377930	6611.976563	46.117538
631.813965	723.485596	13364.905273	6539.011230	46.003735
632.149475	711.968689	13221.574219	6474.887207	46.067947
632.484924	714.197754	13116.881836	6446.355469	46.217075
632.820435	716.501038	13039.383789	6413.290527	46.229359
633.155884	718.730164	12962.554688	6365.291504	46.117630
633.491150	729.355469	12900.289063	6328.585938	46.004936
633.826477	727.200684	12847.312500	6267.211426	45.709240
634.161804	734.110840	12788.463867	6237.787598	45.657169
634.497009	725.491699	12729.691406	6202.345215	45.624481
634.832153	724.674377	12618.237305	6184.513184	45.905834
635.167297	718.804504	12542.225586	6135.398438	45.812408
635.502380	718.358704	12446.002930	6092.377441	45.823513
635.837463	726.903503	12387.006836	6056.191895	45.705330
636.172424	727.943787	12278.450195	6043.412109	46.019352
636.507324	722.073792	12200.877930	5995.114746	45.937199
636.842224	716.203918	12102.575195	5941.617188	45.891823
637.177124	715.758118	11998.997070	5856.093750	45.557266
637.511963	722.593933	11879.445313	5796.131348	45.474636
637.846741	721.627991	11756.176758	5745.755371	45.530884
638.181396	726.234802	11641.898438	5680.962891	45.390991
638.516113	728.835449	11537.950195	5636.827637	45.406048
638.850769	726.903564	11430.731445	5588.381348	45.418121
639.185303	720.885010	11349.295898	5563.118652	45.559334
639.519836	720.141907	11274.620117	5529.385254	45.565899
639.854370	720.810730	11189.692383	5494.314453	45.597076
640.188843	723.114075	11078.386719	5448.618652	45.633801
640.523254	717.169861	10956.085938	5398.910156	45.724960
640.857605	720.439209	10862.983398	5336.049805	45.507423
641.191895	716.501160	10794.031250	5288.273438	45.366001
641.526184	716.501160	10733.844727	5251.642090	45.272892
641.860413	710.779785	10692.161133	5229.871582	45.275215
642.194580	713.603333	10605.970703	5210.181152	45.455021
642.528748	716.501160	10542.886719	5165.450684	45.275543
642.862793	724.451477	10479.284180	5136.770020	45.232124
643.196838	727.795105	10452.386719	5098.578125	44.945671
643.530823	728.018066	10388.932617	5079.705566	45.044262
643.864746	725.268860	10319.384766	5029.922852	44.867641
644.198669	722.148132	10255.485352	5003.470703	44.908962
644.532532	724.748779	10196.117188	4975.830078	44.883495
644.866333	728.018066	10164.315430	4961.192871	44.860550
645.200073	733.293518	10131.027344	4952.276367	44.893623
645.533813	728.835388	10096.922852	4931.842773	44.865158
645.867554	725.045898	10064.898438	4925.527344	44.973743
646.201172	718.358704	10048.551758	4905.391602	44.876163
646.534729	726.383484	10089.864258	4913.713379	44.719803
646.868225	723.485657	10096.848633	4921.217773	44.783627
647.201782	725.789063	10097.071289	4912.301270	44.673847
647.535217	723.039795	10098.779297	4913.118652	44.690655
647.868591	734.408142	10112.600586	4919.508301	44.625874
648.201965	737.751709	10150.124023	4935.409668	44.597240
648.535278	737.231628	10135.633789	4932.660645	44.639812
648.868591	728.909729	10139.497070	4897.960938	44.301712
649.201782	722.519714	10101.826172	4875.001953	44.272808
649.534912	718.210144	10081.245117	4861.106934	44.247372
649.868103	716.426819	10013.925781	4862.221191	44.590427
650.201172	717.912903	9971.424805	4854.197266	44.699615
650.534180	717.541443	9941.480469	4834.804199	44.636707
650.867188	725.045959	9912.949219	4814.296387	44.506893
651.200134	725.120300	9872.007813	4786.135742	44.397785
651.533020	724.154297	9806.472656	4758.643555	44.421360
651.865845	726.531982	9763.526367	4733.454590	44.339108
652.198608	733.813660	9727.266602	4710.197754	44.214207
652.531433	742.432800	9688.257813	4691.102051	44.139797
652.864136	731.510315	9663.291992	4666.136230	44.051975
653.196777	1345.102173	10317.602539	5307.517578	44.161777
653.529358	1369.027466	10284.016602	5309.077637	44.195793
653.861938	1371.851074	10223.534180	5274.749512	44.092159
654.194519	751.200500	9449.671875	4583.437500	44.056442
654.526978	720.959412	9408.433594	4518.645508	43.714500
654.859375	717.169922	9342.155273	4505.642578	43.924397
655.191833	717.764343	9319.195313	4495.240234	43.916832
655.524170	713.306152	9261.313477	4487.586914	44.153923
655.856445	721.033691	9219.110352	4456.230957	43.953445
656.188660	748.302734	9201.648438	4457.716797	43.881016
656.520874	753.058105	9148.299805	4423.166504	43.716530
656.853088	746.816589	9141.537109	4421.160645	43.769699
657.185181	719.919128	9105.797852	4391.068359	43.777752
657.517212	717.764343	9140.051758	4398.572754	43.703194
657.849243	729.429871	9158.330078	4415.885254	43.735897
658.181274	734.408020	9214.428711	4425.321777	43.524822
658.513123	731.361633	9262.206055	4439.884766	43.471935
658.844971	721.702332	9343.195313	4447.463867	43.214806
659.176819	715.238037	9426.414063	4489.222168	43.323475
659.508667	714.792175	9509.782227	4522.658203	43.295853
659.840393	713.231873	9559.788086	4564.787598	43.537342
660.172058	712.785950	9608.382813	4576.898926	43.438492
660.503662	719.621826	9661.062500	4593.542969	43.325470
660.835266	721.330811	9709.359375	4595.474609	43.103378
661.166931	722.148132	9681.644531	4575.189941	43.005116
661.498413	724.525818	9632.159180	4556.316895	43.016933
661.829773	726.680603	9528.803711	4509.580566	42.977131
662.161194	727.572266	9425.597656	4468.937012	43.013954
662.492615	721.256531	9290.811523	4411.426758	43.061398
662.823975	729.132629	9148.001953	4350.572754	43.015755
663.155212	730.470032	8983.644531	4288.529785	43.111408
663.486450	731.064514	8814.085938	4206.945801	43.002254
663.817627	722.073792	8679.152344	4135.169434	42.893829
664.148743	719.027405	8549.567383	4055.739502	42.611519
664.479858	720.513489	8419.463867	4025.275635	42.924843
664.810913	720.513489	8315.514648	3993.399658	43.092636
665.141907	722.742493	8229.917969	3975.567139	43.329544
665.472778	725.120178	8173.076172	3930.688477	43.039570
665.803711	727.943787	8125.002441	3922.143555	43.182026
666.134583	724.748718	8085.770996	3895.023193	43.068398
666.465454	726.754883	8063.109375	3878.676514	42.963051
666.796143	727.349304	7998.687988	3830.156982	42.671749
667.126831	727.720886	7996.830566	3824.137939	42.596920
667.457458	727.200745	7951.505371	3819.605713	42.805573
667.788147	724.302917	7939.021973	3803.779297	42.683247
668.118774	725.343079	7880.917969	3779.482422	42.681957
668.449219	724.302917	7887.605469	3754.367920	42.299831
668.779663	729.727051	7885.524902	3784.609375	42.691010
669.110107	734.110840	7875.493652	3784.163330	42.709549
669.440552	727.052063	7826.008301	3777.847656	42.975273
669.770874	724.674500	7799.779297	3732.894531	42.518379
670.101135	720.067688	7791.753906	3711.346924	42.299377
670.431396	723.411316	7783.433105	3696.486084	42.111408
670.761597	722.519714	7736.622559	3671.965820	42.050224
671.091797	721.479431	7677.552246	3666.541992	42.338005
671.421875	717.169861	7616.919922	3639.718750	42.357315
671.751892	715.386536	7584.003906	3639.124268	42.566616
672.081909	714.940735	7572.636230	3610.592041	42.224846
672.411865	718.878845	7543.509277	3602.641602	42.255222
672.741821	719.919128	7490.754395	3557.093994	41.902878
673.071716	717.689941	7448.921875	3529.453369	41.771900
673.401550	719.621826	7420.092285	3495.571533	41.429176
673.731262	713.529053	7399.659668	3494.010986	41.585815
674.060974	718.210144	7312.205078	3479.744873	41.879539
674.390625	714.494934	7268.292480	3479.224854	42.185162
674.720276	721.182190	7229.283203	3465.924805	42.174248
675.049927	720.290527	7207.661621	3450.321045	42.082230
675.379395	723.114075	7173.407715	3440.215820	42.123692
675.708923	720.216309	7119.761230	3420.525635	42.195335
676.038330	726.309082	7089.891113	3396.154541	41.955074
676.367737	730.990173	7051.031250	3355.882568	41.532837
676.697083	738.049011	7018.189453	3342.285156	41.467800
677.026428	749.937317	6980.592285	3330.916748	41.423889
677.355652	745.256348	6934.078613	3321.182861	41.622242
677.684875	745.627869	6943.812500	3310.409180	41.379555
678.013977	729.652649	6933.335938	3298.149170	41.402767
678.343079	730.024170	6956.071777	3295.845703	41.211079
678.672180	723.336975	6926.722656	3289.604492	41.368820
679.001221	716.946960	6973.979980	3303.499023	41.338314
679.330139	715.163757	6996.790527	3318.285156	41.440239
679.659058	716.203918	7044.566406	3326.830078	41.252792
679.987976	719.993347	7046.572754	3334.111572	41.319611
680.316772	715.832458	7090.411621	3344.439697	41.235775
680.645630	711.448547	7123.179199	3349.566650	41.145184
680.974304	720.141907	7189.011719	3363.015625	40.855263
681.302979	724.525818	7207.884277	3370.520264	40.812096
681.631653	723.188416	7236.861816	3381.813721	40.816067
681.960266	715.015137	7254.545410	3385.157471	40.830795
682.288757	717.987244	7276.613281	3400.909912	40.906780
682.617249	720.216309	7282.929688	3409.826172	40.983200
682.945679	722.965515	7261.232910	3388.427002	40.767090
683.274109	722.891174	7239.388184	3352.390381	40.351421
683.602478	727.052063	7192.355469	3319.919922	40.104351
683.930725	728.686768	7116.863281	3309.517334	40.400112
684.259033	725.566101	7032.381348	3293.319336	40.713943
684.587280	722.148132	6962.981934	3270.211182	40.828884
684.915344	721.850891	6906.363281	3238.929688	40.699715
685.243469	727.275085	6849.596191	3195.314453	40.312149
685.571533	730.544373	6776.928223	3174.361084	40.417824
685.899536	724.748718	6705.597656	3145.531250	40.475563
686.227539	717.541321	6627.505859	3124.429443	40.725933
686.555420	715.535156	6603.654785	3087.278076	40.280140
686.883301	712.786072	6589.313965	3079.773438	40.278671
687.211121	720.216309	6574.453613	3070.114014	40.140118
687.538940	725.194580	6548.818848	3067.810791	40.226089
687.866638	730.544434	6535.815918	3059.414307	40.116467
688.194336	723.634216	6539.679199	3045.891602	39.928463
688.521973	719.101746	6540.645996	3032.516846	39.738853
688.849609	723.114075	6531.357910	3020.703125	39.557381
689.177063	720.587830	6532.621094	3031.551025	39.761700
689.504578	718.655945	6494.206543	3019.737061	39.841759
689.832031	715.312317	6466.490723	2996.925781	39.672108
690.159485	721.702332	6384.386719	2951.378174	39.374889
690.486816	728.166687	6310.753418	2918.313721	39.231758
690.814087	729.949951	6236.524902	2894.462158	39.307774
691.141296	730.470032	6134.878418	2858.797119	39.381317
691.468506	727.869385	6032.563965	2814.587158	39.337193
691.795715	720.364807	5894.286621	2757.225342	39.367828
692.122803	725.937561	5824.292969	2738.203857	39.468929
692.449829	718.284424	5768.492188	2719.776611	39.631878
692.776855	718.135803	5720.566406	2707.739502	39.772739
693.103821	710.036865	5652.951172	2669.028076	39.632313
693.430664	712.786072	5572.480469	2633.882813	39.531223
693.757568	721.182190	5517.273438	2600.298096	39.180153
694.084351	719.621887	5463.775879	2583.728516	39.292713
694.411133	725.120300	5415.256348	2571.394287	39.365040
694.737854	720.141907	5360.792480	2559.951904	39.645523
695.064575	725.863281	5333.375000	2549.029053	39.569424
695.391174	722.371094	5330.849121	2534.985840	39.332176
695.717773	725.937561	5303.356934	2518.564941	39.162403
696.044250	721.627991	5279.951660	2503.630127	39.093365
696.370789	717.615540	5250.750488	2499.617676	39.310593
696.697205	717.467041	5273.858398	2498.800537	39.095268
697.023621	719.324524	5319.852051	2513.215088	38.993153
697.349915	726.903503	5384.718262	2534.391357	38.805489
697.676208	722.593994	5457.312012	2559.208740	38.790375
698.002380	722.891113	5511.850098	2577.709961	38.731148
698.328674	720.884949	5598.338379	2603.195801	38.592079
698.654724	723.559875	5688.318848	2649.486328	38.791946
698.980896	726.234863	5786.250000	2678.241455	38.577091
699.306946	726.680664	5867.611816	2708.780029	38.555260
699.632935	729.875671	5940.650879	2719.776611	38.188190
699.958862	722.519714	5995.932129	2731.071045	38.088264
700.284729	720.142029	6013.467285	2734.563232	38.055874
700.610596	714.569275	5989.244629	2721.634521	38.050972
700.936340	712.414551	5913.529785	2705.807861	38.326267
701.262146	710.631287	5797.469238	2664.346924	38.407269
701.587830	711.745789	5660.158203	2612.260742	38.406555
701.913513	708.922180	5525.595703	2550.292236	38.229084
702.239075	712.265869	5391.776855	2505.116211	38.312775
702.564697	713.528992	5268.954590	2459.643066	38.330425
702.890137	721.405090	5120.869629	2410.008789	38.382030
703.215698	715.163757	4998.492676	2349.823486	38.163300
703.541016	708.773621	4888.673340	2296.102783	37.975288
703.866455	712.191589	4824.624512	2269.873779	37.877384
704.191711	722.668274	4759.163574	2241.118896	37.618046
704.517029	726.532043	4677.579102	2219.571045	37.788441
704.842163	731.213074	4623.263672	2195.868408	37.631969
705.167419	729.132568	4572.143555	2170.902588	37.516678
705.492493	735.894226	4547.103516	2158.271240	37.320885
705.817566	724.302917	4484.020996	2133.677002	37.486164
706.142578	725.343201	4457.123047	2122.680176	37.444248
706.467590	722.668274	4429.705566	2119.856689	37.690163
706.792480	724.451477	4427.401855	2119.410889	37.671566
707.117371	721.627991	4429.036621	2122.680420	37.790615
707.442200	727.497864	4436.838379	2123.943359	37.646732
707.766907	726.829163	4446.646484	2118.296143	37.406864
708.091675	719.250305	4421.829102	2106.853516	37.476669
708.416321	710.928467	4397.978027	2088.872314	37.372536
708.741028	714.346375	4399.241211	2081.962158	37.114105
709.065552	719.696106	4425.172852	2090.284180	36.988171
709.390137	722.073914	4463.438965	2094.221924	36.675064
709.714600	723.039795	4480.454590	2108.116943	36.862503
710.039063	725.640381	4507.277344	2112.946533	36.685333
710.363403	726.754944	4538.187012	2136.797852	36.995094
710.687744	722.742615	4583.437500	2146.457031	36.877155
711.012085	725.789001	4619.103027	2163.026367	36.915524
711.336304	721.553711	4655.957031	2169.490967	36.801952
711.660461	722.742493	4700.910156	2177.738525	36.574528
711.984619	722.668274	4731.374512	2190.666992	36.620262
712.308716	728.240906	4767.039551	2200.252197	36.446758
712.632751	727.943665	4769.863281	2201.663818	36.460899
712.956726	720.884949	4776.401855	2201.515381	36.509041
713.280701	724.525879	4743.931641	2185.837646	36.356415
713.604553	724.080078	4706.037109	2177.812744	36.507996
713.928467	725.863281	4656.180176	2153.070068	36.312767
714.252258	722.371094	4577.567383	2134.791748	36.636803
714.575989	721.182190	4518.348145	2110.568848	36.590096
714.899719	723.485657	4437.878418	2080.625000	36.537315
715.223267	720.439148	4388.987793	2055.064697	36.380203
715.546936	726.457703	4331.997559	2036.043091	36.321480
715.870422	724.377258	4301.607422	2023.708862	36.322281
716.193970	724.005676	4279.762207	2001.715210	35.933548
716.517395	721.627991	4262.970215	1983.436890	35.630806
716.840820	722.222412	4225.893066	1973.257324	35.706406
717.164124	720.439148	4169.645996	1955.870483	35.817841
717.487488	717.021240	4119.045898	1946.954102	36.152966
717.810730	716.501160	4096.383301	1923.400269	35.708321
718.133972	714.197754	4067.256592	1907.350708	35.584015
718.457092	715.758118	4029.362305	1892.044434	35.498699
718.780212	713.454773	3969.548828	1882.013550	35.888363
719.103210	715.758118	3912.781250	1856.527710	35.682240
719.426208	712.637390	3836.621094	1824.354492	35.586521
719.749207	722.965515	3797.983398	1803.772827	35.148003
720.072083	722.965515	3753.402100	1797.308472	35.451759
720.394958	729.132629	3716.696533	1777.321167	35.085056
720.717773	718.507324	3643.508545	1747.154297	35.167404
721.040527	720.216309	3610.666748	1723.302856	34.703468
721.363281	718.135803	3577.007568	1718.101929	34.977650
721.685913	721.107910	3556.574219	1718.324707	35.169411
722.008545	720.885010	3532.722900	1713.569336	35.303753
722.331055	715.312317	3495.719971	1703.687134	35.547836
722.653503	711.745789	3465.404541	1687.860718	35.447926
722.976013	709.442383	3442.890625	1680.356079	35.519741
723.298401	713.751953	3441.181641	1677.384155	35.331146
723.620789	713.826233	3428.550537	1670.919556	35.255634
723.943115	712.340149	3417.925049	1667.353149	35.297836
724.265381	715.758118	3393.776611	1655.167480	35.078522
724.587585	720.290527	3382.185547	1646.548462	34.796936
724.909790	720.736328	3366.730469	1642.387329	34.831936
725.231873	719.250305	3370.148438	1634.065430	34.509628
725.553894	725.343201	3385.529297	1637.929199	34.305344
725.875916	932.424866	3603.310547	1835.128540	33.797913
726.197937	939.855164	3617.130615	1841.147095	33.664520
726.519775	928.189636	3614.307373	1830.818970	33.603493
726.841675	714.717834	3401.578857	1625.669312	33.903931
727.163513	704.612732	3411.757813	1624.183228	33.968277
727.485291	713.454773	3416.959229	1636.517456	34.143192
727.806946	735.968445	3463.472656	1652.641235	33.608482
728.128662	739.386414	3480.562500	1663.489380	33.711918
728.450256	743.770203	3511.323486	1675.229126	33.656406
728.771790	734.928223	3512.438232	1675.972290	33.880852
729.093323	742.507080	3528.413086	1679.538696	33.634716
729.414795	734.185120	3534.803467	1676.789429	33.657005
729.736145	731.807434	3525.812500	1682.213501	34.015903
730.057495	723.782776	3518.010986	1678.869995	34.180717
730.378845	718.210144	3515.930420	1677.235352	34.278809
730.700134	720.810730	3505.082275	1667.947388	34.017395
731.021301	725.491699	3506.791260	1658.882446	33.559517
731.342468	734.408142	3502.555908	1657.842285	33.359280
731.663574	733.962341	3514.147217	1663.043457	33.417961
731.984680	728.166687	3503.224609	1668.616211	33.889366
732.305664	724.005676	3506.271484	1657.916626	33.566559
732.626648	718.878845	3522.171875	1646.548218	33.092133
732.947571	709.219421	3550.778564	1649.223022	33.080559
733.268433	712.860291	3569.205811	1654.201294	32.956131
733.589233	715.758118	3569.874268	1652.938477	32.836098
733.909973	731.584656	3550.629883	1649.594727	32.564575
734.230713	731.956055	3517.342529	1645.730957	32.806038
734.551331	732.476257	3468.153564	1633.471069	32.934982
734.871948	727.720886	3421.268799	1616.381470	32.992195
735.192505	725.194580	3373.417969	1600.257813	33.043407
735.513062	727.052063	3332.402588	1587.997681	33.045288
735.833435	723.114075	3281.579834	1569.348022	33.075836
736.153931	719.993347	3234.620361	1556.939331	33.283108
736.474304	715.758057	3185.803467	1536.729004	33.237080
736.794617	724.451477	3155.933838	1523.057251	32.844398
737.114807	726.829285	3131.414063	1507.082031	32.448544
737.434998	723.262695	3116.479248	1499.874634	32.450550
737.755188	716.649719	3117.816406	1495.416626	32.432854
738.075256	717.244141	3117.816406	1494.747925	32.388268
738.395325	715.609558	3112.466797	1494.896484	32.512863
738.715271	717.912903	3114.770264	1504.109985	32.801163
739.035278	714.717834	3128.813232	1494.227661	32.289932
739.355164	714.569275	3157.568359	1484.271118	31.506433
739.675049	711.448547	3161.432373	1480.481812	31.389318
739.994873	717.615723	3158.014404	1491.032837	31.692244
740.314636	723.114075	3147.686279	1507.973755	32.371056
740.634277	729.132568	3138.398438	1505.818970	32.237473
740.953979	727.052063	3128.292969	1491.849976	31.850111
741.273499	734.482361	3122.200195	1477.806763	31.131166
741.593140	732.847839	3096.714600	1464.655273	30.958067
741.912598	733.888000	3059.563232	1452.172241	30.884975
742.232117	723.114197	3002.870117	1439.095093	31.406034
742.551453	718.804504	2938.524170	1420.147827	31.596031
742.870850	715.015137	2907.985596	1421.708374	32.225388
743.190063	708.996582	2866.598877	1411.603149	32.564228
743.509338	710.779785	2857.088135	1399.714478	32.098587
743.828552	719.844727	2823.875000	1384.333984	31.581734
744.147705	732.624817	2804.630127	1373.262817	30.918743
744.466797	736.191406	2771.045654	1360.259888	30.668953
744.785828	731.956055	2737.238281	1349.560181	30.798862
745.104858	730.321472	2714.873047	1340.346802	30.738699
745.423706	729.801331	2694.736816	1337.300415	30.916998
745.742615	733.516418	2687.009277	1322.959839	30.173819
746.061401	744.959045	2670.959961	1325.857788	30.160875
746.380249	741.095398	2670.662598	1319.021851	29.951094
746.698975	728.315247	2658.476807	1319.021973	30.604004
747.017639	713.974854	2644.582764	1310.477173	30.897123
747.336304	711.894348	2621.771484	1308.025024	31.213037
747.654907	719.621826	2612.855225	1317.164185	31.562002
747.973389	721.925293	2613.969971	1322.291138	31.731060
748.291931	721.776672	2615.604492	1318.056030	31.485403
748.610352	712.265930	2606.465088	1306.613403	31.377241
748.928711	713.751953	2623.703369	1296.879639	30.531021
749.247070	724.005798	2630.985107	1304.681519	30.450027
749.565308	731.287415	2623.554688	1308.173706	30.486511
749.883545	724.525879	2588.483887	1300.074585	30.877771
750.201782	715.683838	2570.725342	1290.786743	31.002159
750.519836	716.946960	2571.096924	1278.526855	30.287729
750.837952	718.433044	2554.527588	1277.040894	30.423698
751.155884	721.925232	2537.660889	1273.994507	30.404716
751.473877	712.934570	2521.016846	1266.341187	30.607380
751.791809	714.940735	2514.998535	1261.288696	30.351688
752.109619	712.191589	2510.317627	1250.960571	29.962805
752.427490	718.358704	2504.224609	1249.177368	29.723320
752.745300	724.748718	2511.803467	1248.137207	29.287771
753.062988	729.429871	2511.060547	1253.561157	29.418629
753.380615	731.213074	2498.503418	1251.777954	29.455540
753.698303	722.445313	2485.351807	1259.431030	30.460249
754.015808	721.850891	2474.429443	1254.898560	30.415051
754.333374	725.863281	2477.846924	1254.006958	30.145468
754.650757	726.903503	2475.097900	1241.969849	29.462763
754.968262	722.148132	2479.110352	1240.558228	29.506048
755.285583	716.872742	2474.132080	1245.387817	30.076101
755.602905	722.445313	2465.215576	1238.700684	29.622686
755.920105	725.343079	2443.147705	1229.338501	29.339506
756.237305	729.727051	2424.126221	1220.050659	28.937904
756.554443	731.361633	2416.398682	1221.833862	29.107504
756.871582	727.795166	2417.141846	1221.610962	29.231171
757.188599	727.275085	2409.414307	1212.026001	28.817528
757.505615	727.497864	2421.822754	1208.385132	28.382235
757.822510	729.875671	2434.082764	1211.951660	28.287407
758.139465	725.789063	2465.587158	1217.004272	28.234035
758.456238	718.061523	2472.348633	1215.443848	28.352390
758.773010	720.513489	2478.515869	1211.357300	27.920542
759.089783	732.030334	2491.296143	1223.022827	27.908941
759.406433	737.008789	2504.967773	1229.858643	27.876770
759.723145	731.287415	2508.757080	1236.174316	28.404810
760.039673	727.349304	2514.404053	1229.115601	28.077837
760.356201	728.463867	2516.113037	1222.948608	27.661173
760.672668	736.562805	2520.348389	1224.360229	27.346191
760.989136	727.795166	2511.951904	1228.372681	28.056812
761.305481	716.649719	2506.304932	1232.236450	28.809277
761.621826	710.705566	2515.221436	1236.322998	29.127892
761.938049	720.216309	2533.648682	1247.765625	29.091204
762.254333	733.070618	2553.190186	1253.635498	28.600586
762.570496	731.807434	2590.118408	1257.424927	28.284689
762.886597	721.107910	2643.095947	1257.944946	27.931341
763.202637	716.723938	2734.117188	1274.440308	27.645395
763.518677	715.906738	2846.760010	1306.464722	27.714624
763.834656	719.250305	2981.619873	1355.133057	28.106936
764.150574	717.021301	3111.575195	1398.600098	28.463705
764.466370	721.330750	3220.800049	1421.633911	28.018074
764.782288	719.027405	3278.384766	1431.293335	27.829874
765.097961	724.154297	3312.118408	1433.522461	27.410278
765.413696	725.937500	3282.917236	1421.559692	27.204838
765.729309	732.699036	3219.834229	1403.504028	26.970989
766.044861	728.463867	3099.612061	1372.296875	27.152796
766.360474	723.708496	2950.709717	1343.541626	27.832636
766.675903	723.708496	2797.868896	1296.805298	27.630302
766.991394	720.959290	2659.962891	1250.737671	27.322197
767.306763	727.720764	2558.762451	1216.112671	26.672899
767.622131	722.148132	2479.407471	1193.153198	26.803391
767.937378	725.863281	2415.804443	1181.041748	26.934574
768.252625	725.417480	2356.139404	1167.147217	27.087986
768.567810	723.485535	2308.883057	1152.063599	27.032846
768.882996	726.754883	2265.787354	1144.039063	27.113409
769.197998	728.686768	2229.081787	1124.943237	26.410143
769.513062	729.578430	2183.459717	1115.358276	26.534479
769.828064	728.909668	2143.039063	1096.633789	26.003569
770.142944	724.302979	2117.850342	1093.290161	26.478266
770.457825	724.748718	2097.045898	1079.618530	25.859547
770.772705	717.021240	2072.897217	1075.606079	26.446728
771.087402	722.296692	2055.807617	1070.330688	26.099072
771.402100	724.823059	2026.160767	1063.569214	26.030613
771.716736	730.841614	2004.464478	1058.219360	25.704451
772.031372	726.903503	1976.229492	1048.039917	25.704775
772.345947	725.120300	1967.090210	1048.560059	26.042479
772.660461	720.141907	1944.204956	1040.238159	26.150309
772.974854	719.696106	1933.802612	1047.371216	26.988993
773.289246	716.575439	1914.632446	1036.894409	26.736538
773.603638	713.826233	1901.703735	1038.306274	27.315952
773.917908	704.464050	1886.026001	1028.943970	27.461946
774.232178	706.395935	1873.691772	1035.854248	28.224062
774.546265	708.402100	1862.992188	1031.990356	28.026245
774.860474	715.683777	1851.846680	1020.845154	26.858948
775.174561	720.587830	1846.942749	1012.003113	25.872419
775.488586	724.377258	1846.125366	1015.420959	25.945551
775.802551	725.045959	1828.367065	1020.547852	26.782948
776.116516	725.045959	1816.478516	1026.714966	27.639729
776.430359	725.863281	1814.323853	1023.222839	27.319277
776.744202	728.463867	1813.358032	1028.423950	27.648788
777.057922	724.823059	1798.571777	1013.711975	26.904703
777.371704	727.349365	1778.955688	1003.532532	26.262981
777.685303	728.018066	1767.661743	991.049622	25.300163
777.998962	732.624817	1750.646362	988.226135	25.107653
778.312500	732.030457	1737.643188	978.641113	24.523422
778.626038	728.315247	1727.315430	971.582336	24.351055
778.939453	728.018066	1740.392578	979.086914	24.799997
779.252869	732.030457	1753.767212	984.956848	24.754555
779.566223	725.194580	1755.104492	985.997070	25.322845
779.879578	723.782898	1749.903320	980.795898	25.047062
780.192749	713.974792	1730.807617	985.922852	26.744619
780.505920	719.919006	1734.745605	986.517273	26.270327
780.819031	719.547546	1728.950195	985.997070	26.396753
781.132141	742.804382	1748.120117	988.672058	24.456762
781.445190	748.822815	1733.036743	991.421204	24.648949
781.758118	753.801086	1729.321655	988.226135	24.030764
782.071045	739.609192	1707.402222	970.913757	23.900209
782.383911	727.720886	1684.665527	961.477234	24.427364
782.696838	719.993347	1661.111694	953.155273	24.774984
783.009583	708.253601	1640.827148	960.511230	27.049623
783.322266	712.785950	1639.043823	957.464844	26.415850
783.634888	713.083191	1631.910645	951.594910	25.958271
783.947510	718.210144	1619.873657	937.625977	24.334558
784.260132	714.569275	1609.174194	936.065674	24.759130
784.572571	715.609558	1601.520874	939.855164	25.312422
784.885010	718.284424	1592.233032	938.666260	25.216795
785.197449	726.754883	1586.437500	933.687988	24.070873
785.509766	735.522644	1585.248657	933.093567	23.251133
785.822083	739.163391	1582.573608	930.195801	22.650000
786.134277	739.609314	1574.994751	929.972839	22.787508
786.446533	731.658875	1568.158813	929.972839	23.707588
786.758606	726.011902	1573.806030	925.366028	23.514450
787.070740	731.064514	1583.167969	929.898621	23.334503
787.382690	730.544373	1588.071899	929.155518	23.160906
787.694641	725.863281	1591.787109	938.294739	24.532349
788.006653	710.556946	1602.858398	934.282410	25.072857
788.318481	718.135803	1629.384399	935.694153	23.874752
788.630310	718.210144	1657.545044	938.146179	23.414017
788.942017	724.525879	1671.216797	947.359680	23.538179
789.253784	717.021301	1684.665527	946.690979	23.734930
789.565430	724.005676	1687.786133	955.681641	24.038250
789.877014	722.668274	1683.476685	954.864258	24.166731
790.188538	719.919006	1668.467407	957.687805	25.066597
790.500061	714.272034	1652.046753	943.570313	24.451319
790.811462	712.785950	1646.325317	937.254578	24.044903
791.122925	711.151367	1625.223511	931.830383	24.142406
791.434204	715.535156	1602.858398	927.818054	23.923965
791.745483	719.844788	1574.251831	924.028625	23.897724
792.056702	715.683777	1552.852539	915.781067	23.901667
792.367920	722.593933	1533.088013	911.397156	23.294830
792.678955	720.587830	1529.075684	906.270264	22.966633
792.990112	722.965515	1513.174805	906.790344	23.262802
793.301086	710.408386	1499.131714	908.350769	25.096556
793.612122	714.495056	1476.617798	906.493225	25.192553
793.922974	714.940735	1472.902832	906.418884	25.262234
794.233826	722.445313	1475.800659	908.796570	24.736170
794.544556	719.473328	1477.212524	904.561279	24.426340
794.855286	721.925293	1471.639648	901.886414	24.003958
795.166016	718.581543	1470.896484	906.864746	25.027178
795.476624	720.513489	1476.395020	913.329041	25.508699
795.787292	725.120300	1491.478516	907.904968	23.851074
796.097778	728.835449	1504.481445	896.908142	21.668737
796.408264	732.179016	1520.902466	895.050598	20.650024
796.718689	730.098572	1530.413208	902.332275	21.520748
797.029053	728.018066	1542.821777	908.648010	22.168522
797.339355	721.999512	1535.019897	909.762512	23.094501
797.649658	723.262695	1538.214966	908.796631	22.766233
797.959839	717.244141	1519.639160	905.081482	23.409584
798.270020	712.934570	1520.828125	902.480774	23.461779
798.580078	715.758118	1513.843628	903.298157	23.498739
798.890137	729.652771	1506.784790	899.657410	21.875902
799.200195	728.761047	1484.716919	890.815369	21.437008
799.510071	727.349304	1457.299194	886.282898	21.773220
799.820007	714.940735	1438.872070	880.933044	22.929289
800.129883	717.838562	1441.175415	888.289001	23.564463
800.439575	716.278259	1436.791626	886.059875	23.563978
800.749329	717.392761	1436.717407	889.032043	23.861172
801.058960	720.736328	1426.537964	889.180725	23.865685
801.368591	723.559875	1414.352417	882.493469	23.007427
801.678162	727.200684	1407.739258	882.121887	22.764500
801.987671	731.361633	1395.479492	883.385071	22.891033
802.297119	730.692932	1397.188354	892.524353	24.280951
802.606506	725.194519	1392.804565	890.518066	24.763491
802.915894	717.095520	1393.250366	876.623535	23.593414
803.225159	713.603271	1374.674438	865.478027	22.974041
803.534424	715.832336	1372.073853	866.295410	22.928003
803.843628	713.751953	1370.290649	870.679260	23.902218
804.152771	721.479431	1379.504272	870.307800	22.617439
804.461792	724.674500	1383.813843	873.651428	22.601736
804.770874	726.309082	1382.699341	873.502747	22.424719
805.079773	726.383362	1390.501099	874.914551	22.365189
805.388733	727.646484	1392.210083	868.450195	21.187395
805.697571	729.206848	1394.364868	866.889893	20.699299
806.006470	724.377258	1402.463745	870.753601	21.586678
806.315125	721.776672	1411.305786	871.793884	21.756472
806.623901	721.776672	1417.175781	872.611145	21.690346
806.932495	718.804504	1409.745605	863.917725	21.002256
807.241150	721.256531	1399.120239	859.013733	20.322256
807.549622	724.674377	1400.383423	858.642273	19.826269
807.858154	722.668274	1404.098633	859.608215	20.095955
808.166565	716.575500	1401.423706	864.214905	21.557976
808.474915	718.507324	1393.696167	865.923828	21.833374
808.783264	725.491760	1380.544556	866.146790	21.472319
809.091492	726.383362	1369.547729	860.053955	20.783272
809.399719	725.268799	1357.064941	853.664001	20.322252
809.707825	720.884949	1352.160889	852.326477	20.821566
810.015930	722.445313	1344.507690	849.428711	20.413290
810.323975	717.169861	1342.575806	849.354431	21.135803
810.632080	717.615662	1338.043457	850.840515	21.473063
810.939880	715.981018	1329.498657	849.725891	21.799679
811.247864	717.095520	1314.712280	848.611328	22.006714
811.555664	716.352539	1302.229492	848.091248	22.485729
811.863464	714.866516	1296.805298	848.685730	22.995411
812.171143	716.575439	1296.062378	843.633057	21.925880
812.478882	719.770508	1300.371948	842.072754	21.064751
812.786438	733.070618	1310.031250	836.425781	17.913729
813.094055	739.534973	1303.492554	837.020203	17.285915
813.401489	737.974609	1292.867310	828.178223	16.256046
813.708984	727.795105	1284.099609	824.314453	17.350092
814.016357	732.624817	1289.226563	829.441223	17.394197
814.323730	740.575195	1291.455688	840.809570	18.195303
814.630981	734.928223	1282.836426	845.044922	20.097654
814.938232	725.343201	1276.743530	841.924133	21.142702
815.245361	717.467102	1275.851929	839.026367	21.769800
815.552490	719.176086	1279.046997	837.168762	21.074978
815.859619	714.049133	1284.099609	842.221375	22.484367
816.166565	713.751953	1283.951050	842.741455	22.621836
816.473572	716.872620	1283.802368	849.800293	23.446939
816.780457	721.925232	1275.777710	845.490723	22.310181
817.087341	720.439209	1272.954224	845.787842	22.686918
817.394043	712.785950	1272.359741	843.484558	23.356813
817.700806	707.584778	1284.916870	843.410217	23.526398
818.007507	703.869629	1293.833252	839.695068	23.022680
818.314209	713.677673	1312.631958	839.620667	21.027145
818.620667	709.665344	1321.028076	843.410156	21.876507
818.927246	714.569275	1334.551147	842.295593	20.601622
819.233704	713.454773	1343.170288	853.143860	22.182888
819.540161	717.689941	1370.662231	845.044861	19.503878
819.846497	724.228577	1415.020996	852.772278	18.608152
820.152832	726.086243	1462.277710	855.967346	17.642300
820.458984	733.442200	1504.035767	870.307800	17.761063
820.765259	733.665039	1559.391235	886.431458	18.500856
821.071350	738.197510	1652.418335	902.035095	17.921007
821.377502	728.389587	1810.608765	933.539368	18.956398
821.683472	721.107910	2065.392822	981.093079	19.340034
821.989441	711.671448	2492.039063	1073.971558	20.349735
822.295349	719.770447	3082.151123	1186.763062	19.767881
822.601196	718.432922	3753.476318	1312.111816	19.560804
822.907043	720.736328	4359.786621	1410.637207	18.958267
823.212769	718.507324	4766.593750	1474.760376	18.681742
823.518494	723.188416	4939.347656	1494.896484	18.303579
823.824097	724.228577	4857.540527	1458.116577	17.755447
824.129700	725.268860	4627.202637	1411.528809	17.587688
824.435242	724.748779	4326.647949	1352.235229	17.420988
824.740723	722.296814	4043.405518	1310.922974	17.723785
825.046082	721.182312	3775.395752	1249.028809	17.282568
825.351501	728.389648	3476.698486	1196.868164	17.046064
825.656799	724.674500	3152.590576	1141.587036	17.171621
825.962036	729.801331	2834.054688	1095.445068	17.376411
826.267212	724.005676	2577.412842	1061.339966	18.200766
826.572449	733.665039	2434.454346	1039.123657	17.959816
826.877502	724.154297	2388.906738	1035.334229	18.692265
827.182495	730.098450	2454.590332	1042.690186	18.126598
827.487488	729.058289	2554.453125	1058.368042	18.040468
827.792419	733.293518	2665.610107	1069.290527	17.388300
828.097290	719.770447	2701.275635	1066.392700	17.492876
828.402100	716.055359	2666.873291	1055.321655	17.390978
828.706848	717.912903	2569.908203	1044.696289	17.644936
829.011597	720.290527	2439.804199	1024.485962	17.690783
829.316223	725.937500	2309.699951	999.222961	17.255457
829.620789	721.850891	2179.595947	973.737122	17.279169
829.925354	725.937561	2070.816895	947.731201	16.491713
830.229797	724.080017	1946.062622	930.641602	16.903807
830.534302	733.813660	1822.200073	920.982239	17.196886
830.838562	729.058289	1685.408691	904.709961	18.366875
831.142944	727.869446	1573.657349	884.648193	18.536413
831.447144	714.494934	1479.961548	856.413269	18.540108
831.751404	718.433044	1423.120117	844.524719	17.893286
832.055542	717.541321	1385.002808	837.688904	18.000677
832.359619	724.377258	1366.278442	843.633118	18.578539
832.663635	723.336975	1372.519897	845.044861	18.747856
832.967651	726.457703	1395.256470	854.555603	19.153429
833.271545	722.371094	1449.646118	863.694824	19.431952
833.575439	722.668274	1520.902344	882.270447	19.994408
833.879211	722.222412	1625.520508	892.004211	18.795767
834.183044	723.262695	1729.767212	910.282715	18.581141
834.486694	720.513489	1818.113281	915.855408	17.797190
834.790344	727.275085	1868.713379	932.276184	17.959894
835.093933	727.423645	1868.341919	922.022461	17.056334
835.397522	730.544373	1841.072876	916.301208	16.726885
835.700928	721.925232	1785.494507	899.731689	16.717899
836.004395	731.361633	1745.445190	895.422058	16.178196
836.307739	735.076843	1694.250610	877.812317	14.881086
836.611023	729.875671	1641.421387	870.902161	15.471137
836.914307	727.423645	1564.815308	860.871277	15.936107
837.217529	723.931396	1497.348267	866.369690	18.416756
837.520691	731.138855	1424.234497	848.759949	16.970398
837.823730	723.262695	1353.126831	836.054199	17.907274
838.126831	723.559998	1282.093384	825.503235	18.251951
838.429749	723.262695	1231.864746	814.209229	17.881668
838.732727	724.005676	1204.447144	806.481750	17.166727
839.035522	720.587708	1190.775269	798.977234	16.671970
839.338379	719.324707	1186.763062	802.172180	17.723722
839.641113	721.925293	1190.701050	805.441589	17.815830
839.943848	719.547546	1194.861938	804.029785	17.773970
840.246460	714.494934	1200.583374	802.172180	18.037304
840.549072	716.798340	1219.753418	802.989502	17.136950
840.851563	723.931396	1237.957642	804.475586	15.669275
841.154053	729.058289	1249.697388	807.001770	14.970732
841.456482	727.200684	1241.598511	806.035950	15.325739
841.758850	723.857117	1228.744019	802.915222	15.658577
842.061157	719.473328	1220.719360	796.376526	15.342405
842.363403	717.095520	1198.651489	790.135071	15.167406
842.665588	710.408264	1187.654663	787.980286	16.254082
842.967712	720.662048	1156.819092	792.289856	16.422482
843.269775	721.405090	1140.992676	792.512878	16.947067
843.571777	721.925232	1110.751587	792.364258	18.115805
843.873840	715.980957	1089.500977	791.621155	20.250641
844.175659	716.872620	1063.569214	792.884277	21.924547
844.477600	727.497986	1049.302979	796.673767	21.496180
844.779297	729.206848	1051.086304	789.763611	18.813492
845.081116	732.476257	1038.083374	788.277588	18.259172
845.382751	736.934387	1032.213501	773.342773	12.330160
845.684387	732.699219	1004.498535	771.485168	14.270069
845.985962	729.206970	1004.721375	760.116882	11.218983
846.287537	720.364929	1002.863831	764.500671	15.623332
846.588989	723.857117	1002.789551	762.717468	13.931815
846.890381	726.606384	998.702942	765.466614	14.281779
847.191711	726.160461	991.718445	766.432617	15.165109
847.493042	721.702332	982.950684	763.757629	16.097824
847.794250	722.296692	978.938293	770.667786	18.847721
848.095459	723.262695	966.901306	765.020813	17.139368
848.396606	729.949951	967.347168	763.609070	14.178396
848.697693	729.058289	958.207825	757.218994	12.289227
848.998657	727.720886	958.802246	761.454285	14.598062
849.299622	730.915833	963.483398	769.850403	16.741186
849.600464	727.795166	972.771240	767.770020	16.317860
849.901367	728.835388	965.266663	759.522400	12.979253
850.202087	723.485596	954.344177	756.921875	14.483446
850.502808	727.274963	944.610535	757.887756	14.085496
850.803467	726.531982	942.901550	762.197327	16.483530
851.104065	727.869446	957.167664	762.197327	14.970845
851.404663	726.086182	956.573242	767.175598	17.827211
851.705139	721.850891	971.656677	770.073425	19.304010
852.005615	722.668274	956.201660	764.054932	17.721945
852.306030	720.736328	945.873596	756.921875	16.072660
852.606384	723.114075	932.424805	753.578186	14.554491
852.906616	719.101746	935.545593	765.020813	21.215233
853.206909	714.866394	947.211121	764.797913	21.490274
853.506958	717.838562	951.372070	757.739075	17.085562
853.807129	723.634094	948.548523	753.132324	13.115313
854.107178	732.773438	934.876892	748.154053	7.610268
854.407166	735.076843	931.384583	758.259216	11.809199
854.707092	725.194519	934.653870	746.073547	9.968058
855.007019	721.182190	943.570313	750.457458	13.164043
855.306763	718.730225	947.211121	747.708252	12.682910
855.606567	717.318420	946.022278	754.692688	16.341774
855.906250	721.850891	944.759094	759.819641	17.033358
856.205933	723.559875	936.883118	753.355286	13.967259
856.505493	726.754883	926.926453	752.760925	12.991877
856.805054	720.364929	930.047119	753.132507	15.627258
857.104492	716.946960	939.260681	758.407898	18.649742
857.403931	716.278259	944.536133	765.392334	21.516924
857.703308	711.968689	941.192566	756.921875	19.611040
858.002563	713.454773	927.372253	756.921875	20.319565
858.301819	715.089355	932.201965	752.463684	17.214260
858.601013	725.937683	930.047180	760.785583	17.073139
858.900208	724.674500	930.715820	758.407898	16.372152
859.199219	722.593994	925.663269	768.587341	22.649092
859.498291	719.696106	934.505310	764.872253	21.030825
859.797302	727.423584	939.780762	771.187988	20.608866
860.096191	739.089111	948.548523	766.804138	13.231693
860.395020	740.946716	940.449646	764.946472	12.029777
860.693787	727.795105	936.808777	750.160217	10.700311
860.992554	712.488770	925.068848	744.810486	15.204490
861.291260	712.934631	931.087402	749.120056	16.587194
861.589844	724.228577	932.573425	756.401672	15.442232
861.888428	734.185120	940.003723	758.407898	11.768993
862.186890	731.658875	938.443359	759.448059	13.438719
862.485413	725.937561	934.728210	759.225281	15.943109
862.783813	717.690002	939.260681	754.395508	16.566048
863.082153	718.284424	938.666260	748.674255	13.789626
863.380371	719.844727	942.678650	747.113953	12.237466
863.678589	729.875671	939.335022	745.330566	7.378470
863.976746	732.996399	938.740540	748.302734	7.439500
864.274902	737.305969	941.266907	754.172607	8.269544
864.572937	735.299744	944.090332	753.652527	8.790043
864.870911	728.166687	946.839600	752.612305	11.179079
865.168884	725.045959	937.477356	753.132385	13.221410
865.466736	724.971680	931.013000	759.522461	16.768860
865.764587	725.714661	925.886169	758.036377	16.147011
866.062317	725.417480	935.991394	758.779358	15.843309
866.360107	726.234802	938.071960	754.395508	13.293563
866.657715	728.984070	936.362976	754.767029	12.432778
866.955322	725.789063	937.774658	758.184998	15.282140
867.252808	722.519714	928.338196	762.271545	19.314024
867.550293	721.182312	932.053284	761.974365	19.344557
867.847717	723.188477	922.914063	751.274841	14.062477
868.145081	721.776672	929.081238	747.856934	12.580649
868.442383	714.940735	928.041016	744.587585	13.912159
868.739624	713.529053	933.539368	747.262512	15.332672
869.036804	716.203918	939.706543	753.355286	16.622341
869.333984	721.776611	938.146179	751.497742	13.736280
869.631042	719.770447	938.814880	753.578186	15.434193
869.928101	712.637451	932.350586	744.661865	14.575558
870.224976	717.689941	926.703613	744.587585	12.868844
870.521851	739.237732	939.929504	762.048767	11.366203
870.818726	745.479187	948.251282	759.745361	7.035571
871.115479	745.404846	956.573242	769.776184	11.541186
871.412231	723.559875	948.474182	760.042480	16.220669
871.708862	718.284424	945.056335	765.615234	20.871550
872.005493	706.618896	950.406067	763.014648	23.133190
872.302063	707.733398	944.981934	763.609070	23.551535
872.598572	711.225586	949.068665	763.386230	21.930696
872.895020	721.033630	946.170837	763.906250	19.042885
873.191406	730.693054	953.229553	756.475891	11.585892
873.487671	728.984070	949.365906	752.686523	10.755176
873.783997	727.126465	946.170837	744.290283	7.835773
874.080200	721.182190	941.341125	743.993164	10.361139
874.376343	729.875671	942.530029	749.045715	9.014649
874.672424	737.677429	955.087219	756.698914	8.749139
874.968445	740.946716	962.517395	756.030273	6.807560
875.264465	739.312073	963.483398	751.572021	5.469008
875.560364	737.083008	958.059326	753.058105	7.229326
875.856201	727.869446	959.842590	749.342957	9.256895
876.152039	722.742615	967.124207	752.017822	11.979301
876.447754	719.250305	965.712463	745.924988	10.823033
876.743469	725.045959	966.827087	750.531799	10.540873
877.039063	726.086182	961.477234	748.971375	9.722201
877.334595	723.782898	956.573242	750.457458	11.458620
877.630127	727.943787	949.365906	743.770264	7.147650
877.925537	730.024231	947.656921	750.680359	9.491280
878.221008	732.699036	950.183289	746.370789	6.286319
878.516296	722.296692	951.372070	746.073547	10.379490
878.811646	721.776672	969.130371	741.838379	8.110535
879.106812	719.993347	989.860840	747.782532	10.297344
879.401978	722.891113	1009.996887	748.302673	8.850940
879.697083	716.798340	1015.792480	749.342957	10.884701
879.992126	714.940735	1031.247559	746.296570	9.913107
880.287109	722.668213	1064.832397	757.293396	10.119465
880.582031	730.098450	1131.704712	758.705078	7.123054
880.876892	726.383362	1257.573608	775.943359	9.329990
881.171753	726.754944	1448.011353	795.930847	9.591028
881.466492	724.302979	1722.931519	842.815857	11.867564
881.761230	721.850891	2042.953491	885.539856	12.390330
882.055786	713.826172	2377.389893	923.211365	12.586545
882.350403	711.671387	2631.282471	941.266907	11.960523
882.644958	721.256531	2789.250000	956.201721	11.361022
882.939453	718.804504	2817.781982	957.910706	11.391556
883.233826	718.284424	2774.463623	952.560852	11.393775
883.528137	715.015076	2695.034180	941.564148	11.441762
883.822449	722.222473	2627.492676	943.867493	11.633259
884.116577	721.776611	2552.521240	934.133850	11.599501
884.410828	727.498047	2445.673828	917.267090	11.044798
884.704956	720.885071	2286.963623	894.827637	11.106886
884.999023	719.398926	2084.934326	872.759766	11.230822
885.292969	713.974854	1857.567993	849.280090	11.831589
885.586914	715.535156	1654.870117	819.930481	11.113749
885.880798	726.977783	1505.150269	810.791321	10.770560
886.174622	723.485535	1401.572266	802.395203	11.637105
886.468384	724.154297	1318.427490	790.803894	11.215313
886.762085	712.934570	1251.555054	769.701904	10.539393
887.055664	715.089355	1204.521362	759.373840	9.048139
887.349304	714.866516	1159.271118	759.893982	10.132088
887.642822	716.575439	1123.382813	764.649353	11.817366
887.936340	715.981018	1098.937256	764.426453	12.650384
888.229736	718.284363	1078.578247	760.711243	11.775632
888.523071	721.702332	1066.838501	756.104492	9.967707
888.816284	730.618652	1052.200806	764.797852	10.628450
889.109619	729.132507	1052.498047	770.221985	12.706820
889.402710	728.315186	1039.346436	772.005188	14.046821
889.695862	722.371033	1010.888489	761.008484	13.391721
889.988892	723.634216	987.037354	747.633972	9.111416
890.281921	724.005676	973.662903	728.909729	1.964314
>>>>>End Processed Spectral Data<<<<<
