Jaz Data File
++++++++++++++++++++++++++++++++++++
Date: Fri Jun 04 17:04:20 2021
User: jaz
Dark Spectrum Present: Yes
Reference Spectrum Present: Yes
Processed Spectrum Present: Yes
Spectrometers: JAZA3586
Integration Time (usec): 122000 (JAZA3586)
Spectra Averaged: 10 (JAZA3586)
Boxcar Smoothing: 1 (JAZA3586)
Correct for Electrical Dark: No (JAZA3586)
Strobe/Lamp Enabled: Yes (JAZA3586)
Correct for Detector Non-linearity: No (JAZA3586)
Correct for Stray Light: No (JAZA3586)
Number of Pixels in Processed Spectrum: 2048
>>>>>Begin Processed Spectral Data<<<<<
W	D	R	S	P
191.335022	0.000000	0.000000	0.000000	0.000000
191.713211	230.487015	226.177490	231.973083	-34.483356
192.091385	464.540619	461.122711	459.265137	154.348297
192.469528	699.262878	689.975098	690.643799	92.800201
192.847641	705.429993	700.228821	692.798584	242.856979
193.225739	712.637390	707.064697	713.974792	-23.999212
193.603790	720.067688	719.101746	736.042786	-1653.835449
193.981842	730.247070	730.024231	745.404968	-6802.163574
194.359863	731.956055	737.157288	746.519470	279.999298
194.737854	743.324402	750.606140	748.971436	77.550629
195.115829	747.708252	749.045715	753.875427	461.109833
195.493774	751.200500	747.485352	754.023987	-75.999275
195.871704	747.262451	748.451355	749.863098	218.743256
196.249603	749.342957	748.897156	755.212891	-1316.716919
196.627457	749.342957	748.599915	752.389404	-409.996704
197.005310	751.051941	736.711487	751.274841	-1.554347
197.383133	746.073547	736.488586	741.763977	44.961792
197.760910	752.835144	744.438965	752.315002	6.194980
198.138687	747.039551	751.572083	750.531799	77.048515
198.516449	743.695862	751.274902	755.287170	152.938995
198.894180	736.042725	739.906555	743.324524	188.460632
199.271866	747.039551	737.677429	743.324463	39.682114
199.649536	740.575256	732.327637	740.649597	-0.901361
200.027191	736.488586	738.049011	737.528809	66.662758
200.404816	724.154297	736.191406	733.516418	77.777161
200.782410	728.018066	753.726807	736.637207	33.526112
201.159988	731.807434	764.575012	746.073669	43.537655
201.537537	730.395752	777.132141	750.903320	43.879230
201.915070	730.172852	772.450989	746.965271	39.718922
202.292557	730.395752	769.999084	738.940613	21.576117
202.670029	734.036560	770.593506	734.110901	0.203356
203.047485	739.089111	774.828796	738.494690	-1.663197
203.424911	743.027161	773.862854	747.262451	13.735026
203.802292	745.850769	771.782410	751.349121	21.203255
204.179688	744.067383	772.079590	742.878601	-4.243799
204.557037	738.643372	773.268372	731.064453	-21.888573
204.934357	734.631042	775.125977	729.504150	-12.660577
205.311661	729.727051	779.138367	733.516418	7.669028
205.688934	724.377197	775.200256	745.033386	40.643341
206.066177	722.965515	764.872253	746.445129	56.028255
206.443390	727.126465	762.494446	750.457520	65.966599
206.820587	730.098572	770.519226	747.931152	44.117496
207.197769	727.052063	775.868958	745.033386	36.834221
207.574921	730.990173	770.965027	747.336731	40.892101
207.952042	729.058289	761.602844	746.296570	52.968250
208.329147	729.355469	759.893860	745.627747	53.284660
208.706223	763.980530	802.617920	783.002014	49.230770
209.083267	763.089050	805.664368	783.745117	48.516529
209.460297	765.466614	806.630371	785.082520	47.653339
209.837280	723.337097	754.172607	746.296448	74.457504
210.214264	721.330872	751.497742	746.593750	83.743782
210.591217	715.163757	755.955872	738.866272	58.105629
210.968124	718.730225	770.147705	736.414368	34.393250
211.345016	724.525879	775.571777	741.095398	32.460041
211.721893	733.442200	771.039368	753.726807	53.952488
212.098724	733.070618	762.717468	750.680359	59.398354
212.475555	735.968506	771.633789	745.850647	27.708012
212.852356	737.528809	771.485168	745.553467	23.632269
213.229126	738.048889	778.023743	743.101501	12.639477
213.605865	733.219238	765.169434	735.448242	6.976495
213.982590	727.720886	772.228210	728.389465	1.502178
214.359283	718.655945	767.918640	731.807434	26.696650
214.735931	723.262695	760.711243	733.516418	27.380831
215.112579	714.569275	755.064209	735.151184	50.825886
215.489197	721.033630	757.590576	731.881836	29.674814
215.865799	718.433044	761.974426	737.677429	44.197918
216.242355	727.200684	759.299500	735.225403	25.000048
216.618896	730.395752	755.732910	742.804260	48.973560
216.995407	730.470032	754.469788	737.231628	28.173607
217.371902	726.754883	761.677185	734.556702	22.340506
217.748367	720.513489	772.451111	729.801331	17.882687
218.124802	722.965515	772.896973	733.219299	20.535719
218.501236	726.606262	765.466614	736.414307	25.239206
218.877609	729.949890	752.612244	738.940613	39.672501
219.253983	726.680664	755.955872	738.420410	40.101326
219.630295	723.559875	760.042480	743.472961	54.582413
220.006592	720.959290	762.420227	737.083008	38.888939
220.382889	715.163635	757.739075	732.847717	41.535877
220.759140	715.758118	752.612305	726.829285	30.040459
221.135391	714.717957	753.652527	727.497986	32.824375
221.511581	715.089355	752.537903	731.436035	43.651039
221.887772	711.968750	755.807312	729.058350	38.983028
222.263931	716.278259	766.209656	736.711487	40.922604
222.640060	724.971680	773.565674	733.665039	17.889782
223.016159	730.990173	765.318054	740.575195	27.921974
223.392212	729.875671	756.921875	736.934387	26.098730
223.768265	723.559875	757.070496	735.671204	36.141762
224.144302	719.398926	765.763855	736.562805	37.019100
224.520294	717.169922	762.494568	737.528809	44.917915
224.896286	717.392761	766.878418	744.141785	54.054092
225.272217	722.668274	773.862793	740.946777	35.704025
225.648148	728.612488	779.658386	742.061279	26.346468
226.024048	729.801270	773.714172	742.358459	28.595673
226.399902	721.107910	764.500732	741.615417	47.260136
226.775772	712.265808	763.014648	739.163391	53.001373
227.151581	713.231750	759.819641	733.219238	42.902752
227.527374	710.333984	762.122986	736.785828	51.076180
227.903137	711.968689	767.175598	734.631042	41.049850
228.278870	711.151367	777.057861	740.278015	44.193897
228.654572	716.278259	776.834961	736.785828	33.865067
229.030273	716.724121	774.680176	732.327637	26.923012
229.405930	715.386536	767.398621	729.727051	27.571507
229.781555	717.095520	760.116882	730.692932	31.606186
230.157181	722.965515	755.732971	738.643372	47.845814
230.532761	722.668274	750.977539	731.213074	30.183758
230.908325	723.634094	763.460449	732.327637	21.828617
231.283859	719.398926	764.946533	735.448303	35.236488
231.659332	721.479431	769.479004	748.302734	55.882378
232.034821	719.176086	759.150940	745.627747	66.170746
232.410263	722.593933	756.030273	740.723816	54.222092
232.785690	722.668213	757.739075	735.076843	35.381596
233.161087	717.838623	762.123047	730.544373	28.691238
233.536469	713.231750	762.791748	725.714661	25.187471
233.911804	711.968567	762.717468	722.296692	20.351425
234.287140	725.045898	759.448059	726.086182	3.023889
234.662430	727.497864	758.630798	733.144958	18.138653
235.037704	727.126465	763.683350	744.513367	47.561226
235.412933	720.067627	763.014648	742.729980	52.768162
235.788162	717.615723	766.655457	741.541199	48.787941
236.163345	719.324646	762.123047	731.138855	27.604324
236.538513	721.925293	765.466614	739.534973	40.443607
236.913635	725.714661	763.683350	737.974609	32.289627
237.288742	723.931458	769.999023	745.925049	47.742031
237.663834	720.959290	775.348877	742.358398	39.344128
238.038879	712.711731	774.977356	740.278015	44.272076
238.413910	716.426819	764.723633	732.699158	33.692364
238.788910	718.135803	758.928040	729.429871	27.686806
239.163879	724.897400	759.076599	734.779602	28.912912
239.538834	718.061523	760.488342	739.460754	50.437981
239.913757	723.114075	772.525391	742.358582	38.947571
240.288651	726.531982	778.989746	736.340027	18.697031
240.663528	732.104736	784.265198	738.048889	11.395898
241.038361	726.383484	771.410828	738.197571	26.237583
241.413177	718.804504	769.701843	741.689758	44.963558
241.787979	721.850891	766.729736	734.854004	28.973814
242.162735	719.919006	772.748291	734.928223	28.410788
242.537476	718.804504	764.946472	730.470032	25.281816
242.912170	713.454773	771.113586	737.900391	42.397018
243.286865	715.237976	769.850403	737.083008	40.000111
243.661514	714.272034	777.577942	746.222229	50.469532
244.036148	720.141907	782.556213	740.278015	32.262009
244.410751	716.649719	785.231140	735.374023	27.302298
244.785339	720.810730	785.825684	726.086182	8.114213
245.159882	716.724060	775.794739	727.869446	18.867882
245.534378	717.615662	774.085754	735.745605	32.105392
245.908890	714.569275	765.838196	745.181946	59.709995
246.283356	713.380432	770.667908	741.615540	49.286701
246.657791	716.946960	766.432617	738.940613	44.444500
247.032196	718.878906	782.927795	737.454590	29.002352
247.406586	715.906738	777.057800	739.237793	38.153149
247.780960	718.061523	784.785339	734.631042	24.832991
248.155289	716.352539	772.228210	726.086182	17.420179
248.529602	715.163635	773.937195	723.039734	13.400751
248.903870	714.569275	770.073425	731.733215	30.923706
249.278122	713.603333	769.627625	739.534973	46.286423
249.652344	715.683838	769.330383	742.804260	50.553902
250.026550	721.033630	773.268494	734.259460	25.319929
250.400711	731.138855	779.064026	737.751709	13.798290
250.774857	733.070618	785.379700	741.020996	15.198849
251.148987	718.432922	782.779114	743.547363	39.030190
251.523071	713.751953	781.441650	739.163513	37.541252
251.897125	718.358704	778.989746	740.426575	36.396984
252.271164	725.120300	772.451111	740.649597	32.810123
252.645187	720.439148	767.621399	738.197510	37.637802
253.019165	709.368103	763.088928	731.213074	40.663879
253.393112	710.111084	777.132141	747.188171	55.321548
253.767044	714.494934	787.608887	743.027161	39.024326
254.140930	716.129578	795.039124	749.640137	42.467052
254.514801	715.089355	792.512756	741.764099	34.453075
254.888657	715.683777	782.927795	741.095398	37.790157
255.262466	727.869446	778.321045	740.278015	24.594997
255.636276	731.956116	777.726563	734.631042	5.844223
256.010010	735.299744	776.834961	745.256348	23.971474
256.383759	732.401855	776.834961	749.045715	37.458241
256.757446	729.132568	776.612000	746.296570	36.150394
257.131134	722.891113	785.454041	746.296570	37.411064
257.504791	720.810730	780.104248	738.940613	30.576500
257.878418	715.609558	773.416992	735.894104	35.089855
258.252014	720.884949	769.999084	735.151123	29.046982
258.625580	722.668274	783.893738	739.832214	28.033991
258.999115	729.132629	794.296082	745.256348	24.743500
259.372650	721.850891	804.401306	746.816650	30.243046
259.746124	716.278259	798.308411	743.101563	32.699322
260.119598	715.460938	806.927551	741.392578	28.350935
260.493042	721.925232	803.955383	743.175781	25.905779
260.866425	725.640320	810.865540	749.788757	28.334848
261.239838	724.005676	805.590088	750.903320	32.969097
261.613159	722.519714	808.562195	743.101501	23.920494
261.986511	722.742615	802.469421	737.900330	19.012068
262.359802	721.999512	790.878113	729.429871	10.787616
262.733063	721.405090	777.206482	719.621826	-3.195734
263.106293	714.494934	778.246643	719.696106	8.158483
263.479523	716.649719	788.723328	727.349365	14.845443
263.852692	715.237976	794.296082	743.101563	35.244438
264.225861	715.163635	787.311584	738.717590	32.646744
264.598969	716.278137	779.955627	737.454529	33.255695
264.972076	709.293762	782.556213	726.234863	23.123852
265.345154	710.408386	798.085510	732.996338	25.762651
265.718201	712.563049	803.063782	735.076843	24.876919
266.091217	728.018066	812.500244	748.376953	24.098440
266.464203	736.711487	818.815979	747.113831	12.669641
266.837158	738.940613	817.404297	749.120056	12.973446
267.210114	728.835388	811.905823	740.352295	13.864026
267.583038	727.275085	802.246521	742.507141	20.317146
267.955902	718.433044	812.946045	741.689758	24.606894
268.328766	718.581604	820.153503	744.736145	25.749781
268.701569	711.002747	818.593079	737.305908	24.447514
269.074371	717.095520	810.642761	740.872375	25.416950
269.447144	718.804504	811.237061	739.534973	22.427670
269.819885	719.844727	814.580750	739.980774	21.254900
270.192596	719.027405	823.719910	735.968506	16.181770
270.565277	719.547546	835.831238	739.832214	17.444120
270.937927	722.816833	840.512390	744.438965	18.371239
271.310577	718.507324	838.803467	749.342957	25.633102
271.683136	713.900574	832.339111	742.878601	24.466722
272.055725	712.934570	836.648682	737.825989	20.120113
272.428284	712.414551	837.317383	728.909668	13.206360
272.800812	721.628113	837.317383	729.949951	7.193267
273.173279	725.268860	842.369934	729.578430	3.680214
273.545776	732.773438	850.394714	735.745544	2.526845
273.918152	732.476257	854.109802	739.757874	5.986520
274.290558	729.652649	848.834290	740.798157	9.351699
274.662964	729.206848	849.502991	742.878601	11.365080
275.035278	716.872620	849.354431	744.141785	20.583328
275.407593	718.804504	855.224365	747.782532	21.241795
275.779907	714.272034	855.298645	746.073547	22.550009
276.152161	721.330750	860.202637	744.216064	16.479445
276.524384	721.256531	861.242859	750.085938	20.594444
276.896606	718.284363	859.905334	745.033386	18.887756
277.268799	717.467102	863.546204	746.593750	19.938955
277.640930	711.225647	860.351135	737.008606	17.289438
278.013031	717.690125	862.134460	741.541077	16.512211
278.385162	719.919128	863.471985	734.631042	10.248430
278.757233	721.851013	868.747375	741.095276	13.100572
279.129272	720.364929	873.502747	742.507080	14.458970
279.501282	718.135742	867.038513	744.736145	17.864277
279.873230	719.696106	866.295593	738.569092	12.873841
280.245178	719.770508	872.091064	733.070618	8.731658
280.617126	720.587830	878.629700	743.473083	14.480500
280.988983	720.736389	893.490234	747.113831	15.268802
281.360870	723.559875	906.418884	757.590576	18.610350
281.732697	721.479309	909.391052	747.633972	13.918589
282.104492	723.411316	910.282654	744.438965	11.252474
282.476288	727.720886	907.533447	737.974609	5.702451
282.848053	730.470032	919.198975	740.055115	5.078756
283.219757	730.247131	917.341370	744.513245	7.625095
283.591461	724.302917	922.022461	758.259277	17.174004
283.963135	720.736389	911.991516	759.522400	20.279724
284.334747	722.742615	922.988464	758.556458	17.884937
284.706360	712.860352	934.505371	744.067444	14.079762
285.077942	721.553711	951.074890	747.782532	11.427626
285.449524	714.569275	948.028503	750.754700	15.499677
285.821014	715.683777	947.656982	750.680420	15.086502
286.192535	714.940735	953.526855	738.420410	9.841174
286.563995	713.380432	965.192383	732.996338	7.789903
286.935425	714.494934	965.043762	732.179016	7.058138
287.306824	709.888184	965.117981	743.621643	13.216897
287.678223	710.705566	962.591736	745.924988	13.982277
288.049561	718.581604	964.523621	742.952881	9.909359
288.420898	720.662109	968.758789	739.683594	7.666965
288.792145	726.680664	973.365540	740.129395	5.451786
289.163452	722.816895	974.182922	742.804260	7.951499
289.534668	723.857117	977.600891	741.689758	7.027814
289.905914	717.987122	984.956848	733.665039	5.872545
290.277039	717.764343	997.811218	742.581360	8.861736
290.648193	722.148193	1011.260010	746.445129	8.403993
291.019318	729.727051	1023.742859	752.983704	7.910001
291.390381	732.253357	1021.736633	742.209778	3.439377
291.761475	727.497986	1015.941101	735.819824	2.885088
292.132507	725.714600	1013.711975	731.658936	2.064024
292.503510	723.559875	1017.129944	735.596985	4.100251
292.874481	733.962219	1020.993713	752.240784	6.368139
293.245422	733.516418	1020.547913	758.556458	8.723795
293.616364	734.408142	1026.120483	756.847473	7.692280
293.987213	719.250305	1029.835693	745.033386	8.301447
294.358093	715.832458	1049.748779	746.296570	9.123277
294.728943	709.888184	1070.182007	743.621582	9.362747
295.099731	711.448547	1094.033203	742.061340	8.001574
295.470490	715.089355	1101.240723	736.637207	5.580157
295.841248	720.959290	1111.345825	736.562805	3.996940
296.211975	716.575439	1125.389038	733.070618	4.034890
296.582642	713.900574	1131.779053	730.024231	3.858456
296.953308	716.575439	1146.862427	733.962219	4.040740
297.323883	719.176025	1147.382690	728.835388	2.255771
297.694519	716.649719	1166.181274	732.550476	3.537184
298.065063	711.597168	1170.639404	730.024231	4.014241
298.435608	715.683777	1169.450562	733.070618	3.831669
298.806122	714.569275	1152.063599	733.962219	4.432731
299.176575	716.278137	1129.327026	737.157227	5.054871
299.547028	709.442383	1123.531494	736.042786	6.423835
299.917450	708.327820	1130.664551	741.169678	7.776226
300.287872	705.058411	1136.311523	741.541199	8.459716
300.658234	711.894348	1133.933960	749.045715	8.802815
301.028564	713.454773	1128.732544	741.987000	6.870636
301.398865	720.141907	1118.776001	743.398682	5.834116
301.769135	721.405090	1120.484985	743.027161	5.417980
302.139374	727.126404	1119.147583	752.315002	6.425316
302.509583	728.983948	1130.515869	751.646301	5.643973
302.879791	727.572266	1142.032837	755.287109	6.686967
303.249939	731.436035	1147.679810	748.525635	4.105671
303.620087	722.371094	1145.450806	753.132324	7.270788
303.990173	721.850891	1131.704712	747.188171	6.182029
304.360260	717.021240	1141.364136	746.890930	7.039046
304.730286	722.296692	1152.286621	745.181946	5.322277
305.100281	726.531982	1157.116333	743.250061	3.882649
305.470276	729.281189	1153.624023	751.720642	5.288048
305.840179	733.293518	1157.859253	749.714417	3.867693
306.210144	727.943787	1163.506348	753.949707	5.970651
306.579987	733.590759	1178.441284	750.308838	3.758134
306.949890	733.070618	1179.109985	747.856873	3.315011
307.319702	735.894226	1200.286133	747.856934	2.575994
307.689484	729.652771	1199.543091	744.513367	3.162567
308.059265	731.213074	1214.329224	746.296570	3.122126
308.429016	730.172852	1223.171265	744.290344	2.863598
308.798737	728.315247	1238.477661	743.324463	2.942047
309.168396	722.593933	1257.053345	745.479187	4.281944
309.538055	726.011902	1273.994507	746.742371	3.783052
309.907684	725.937561	1290.266724	753.206726	4.832138
310.277313	719.844727	1300.297485	748.451355	4.928330
310.646851	711.374207	1314.340698	755.881592	7.381403
311.016388	709.516663	1327.418091	756.178772	7.551708
311.385895	717.764343	1336.111450	759.002258	6.669056
311.755371	716.575439	1333.436646	748.599915	5.191520
312.124817	712.860291	1330.167358	741.764099	4.682241
312.494232	712.563049	1334.328247	738.643372	4.194561
312.863617	719.027344	1329.795776	739.906555	3.418515
313.232971	727.720764	1324.000244	746.296570	3.115285
313.602295	725.491760	1318.947632	745.702148	3.405542
313.971619	729.875671	1328.235352	747.485352	2.942992
314.340820	730.767273	1338.860718	740.203796	1.551821
314.710083	739.460693	1354.092651	751.349121	1.934235
315.079285	727.943665	1370.959473	754.172607	4.079051
315.448486	730.098572	1393.918945	757.664795	4.152663
315.817596	719.696106	1393.919067	745.850647	3.879212
316.186707	721.107910	1373.560181	741.987000	3.200094
316.555786	713.083191	1353.498413	737.380188	3.793944
316.924866	712.042969	1334.402466	733.813660	3.498089
317.293884	721.405090	1337.523071	733.293640	1.929590
317.662872	726.086182	1336.037231	746.816650	3.398710
318.031830	722.073792	1354.464355	758.259277	5.722015
318.400757	719.919128	1366.575684	764.872253	6.951623
318.769684	716.203918	1378.538452	756.847473	6.136409
319.138550	723.559875	1372.742798	749.640137	4.017398
319.507416	713.380432	1379.875854	742.507141	4.370129
319.876190	706.916016	1375.714844	737.305969	4.543961
320.244995	711.076965	1395.479492	742.432800	4.581490
320.613770	722.445313	1386.563110	747.931152	3.837548
320.982483	726.977844	1387.083130	749.937317	3.478153
321.351166	716.278259	1376.160767	745.999268	4.503985
321.719818	709.070801	1377.498169	737.454407	4.246326
322.088440	707.882019	1390.501099	741.318298	4.898234
322.457062	715.980957	1405.733276	745.702148	4.308966
322.825623	721.107910	1423.194336	757.293274	5.153975
323.194183	733.665039	1440.135376	754.841309	2.997475
323.562653	735.225403	1464.432251	750.160339	2.048107
323.931183	732.922058	1502.847046	747.931213	1.949431
324.299591	718.507324	1541.335815	743.175781	2.998007
324.668060	715.312317	1560.505859	746.742371	3.718681
325.036407	716.203918	1577.818359	742.432800	3.044155
325.404755	723.337097	1577.446655	744.364563	2.461917
325.773102	724.154297	1577.298218	740.352356	1.898631
326.141388	719.547546	1577.298218	742.284180	2.650728
326.509674	717.541443	1580.864624	747.262512	3.442635
326.877899	724.005676	1594.833618	743.695984	2.261102
327.246124	732.699158	1595.799683	746.296570	1.575415
327.614288	735.151123	1602.338257	740.278015	0.591209
327.982422	723.262695	1606.944946	748.154114	2.816784
328.350525	720.885010	1610.362915	744.810486	2.689834
328.718628	724.600098	1610.585938	750.606140	2.935266
329.086700	725.789001	1613.186523	750.828918	2.821725
329.454712	722.668274	1621.136719	747.113831	2.720803
329.822693	716.352539	1631.613403	742.655762	2.873850
330.190674	720.810730	1640.381226	745.702148	2.706853
330.558563	722.593933	1649.594727	752.909485	3.270283
330.926483	721.330811	1659.922852	763.088928	4.449017
331.294312	719.919128	1682.213745	752.835144	3.420576
331.662231	719.398926	1709.482788	758.556458	3.954971
332.029999	714.866455	1726.572266	748.154114	3.290251
332.397766	716.723938	1733.259644	757.962097	4.056735
332.765503	722.519714	1748.566040	749.788757	2.657681
333.133240	728.909668	1776.801147	748.377014	1.857764
333.500916	722.816895	1809.048462	739.089172	1.498049
333.868561	718.804504	1823.760254	741.020996	2.010623
334.236176	717.541321	1832.230835	748.154053	2.746301
334.603790	724.971680	1825.171875	749.417236	2.221919
334.971344	721.553711	1826.955200	743.993164	2.029982
335.338867	720.885010	1840.775757	736.042786	1.353505
335.706360	715.981018	1860.391602	743.547363	2.408781
336.073853	713.677551	1862.323242	746.965271	2.897997
336.441284	716.278259	1869.307739	752.983704	3.183392
336.808655	717.169922	1865.741211	748.897156	2.762322
337.176086	724.748779	1844.936523	747.708191	2.049604
337.543396	720.885071	1784.825562	750.828918	2.814429
337.910706	720.142029	1746.336914	760.785583	3.960608
338.277954	721.925293	1783.934082	760.785583	3.659131
338.645264	732.179016	1862.174805	760.859863	2.538137
339.012421	730.767273	1949.406250	757.219055	2.170600
339.379669	724.748779	2005.430298	758.928040	2.668834
339.746796	721.850891	2044.810913	761.380066	2.987934
340.113953	730.544434	2072.525635	767.175598	2.729633
340.481018	726.606262	2078.469971	773.639954	3.479174
340.848114	726.309082	2082.333740	770.742126	3.276714
341.215118	720.810730	2077.801270	758.630798	2.787055
341.582153	733.367859	2084.711670	755.584290	1.644025
341.949066	730.767273	2096.525391	762.271545	2.306724
342.316010	728.909668	2109.899902	762.568787	2.437318
342.682922	724.600159	2118.073242	759.373779	2.495464
343.049835	719.770508	2132.488037	761.900085	2.982166
343.416656	727.572266	2172.314453	775.868958	3.342928
343.783478	727.126404	2213.775391	784.488098	3.858456
344.150269	731.287354	2273.291992	782.184753	3.300729
344.516998	721.479431	2325.303711	774.085754	3.280056
344.883728	723.782776	2383.334229	780.104309	3.393780
345.250427	726.829285	2420.411133	781.738953	3.242221
345.617065	731.584656	2429.847656	787.237305	3.277034
345.983704	722.593994	2429.178955	781.515930	3.452622
346.350281	713.826233	2427.395752	784.339539	4.114995
346.716827	711.894348	2430.813477	793.181580	4.728973
347.083405	708.327820	2419.296631	794.296082	5.024537
347.449860	730.024170	2404.882080	804.847107	4.467420
347.816376	732.253235	2378.578857	803.138123	4.305642
348.182770	733.293518	2372.634521	807.893494	4.550607
348.549194	712.785950	2363.643799	798.011230	5.162484
348.915558	712.042969	2378.207275	801.354797	5.360325
349.281921	724.525879	2391.581787	800.983215	4.586369
349.648193	728.463867	2404.287354	802.469421	4.416071
350.014526	731.807556	2431.853760	802.617981	4.165206
350.380737	719.696228	2463.581055	809.082336	5.125689
350.746948	722.073792	2504.596191	823.942932	5.714887
351.113159	717.764343	2523.246094	826.840637	6.041396
351.479309	720.142029	2535.729248	830.407227	6.073253
351.845428	714.049133	2560.620361	829.515625	6.253021
352.211517	712.934570	2583.654297	832.264832	6.378842
352.577576	707.584778	2615.827393	843.038757	7.098362
352.943604	711.597168	2642.130615	847.496765	7.039484
353.309601	714.643555	2677.870117	859.905273	7.399132
353.675537	716.872620	2730.030518	856.710266	6.946184
354.041473	715.980957	2781.968018	860.797058	7.009536
354.407379	715.832336	2841.930664	866.295410	7.076957
354.773254	728.761047	2897.583252	878.481140	6.903290
355.139038	732.253235	2951.155518	885.688477	6.914917
355.504913	727.943787	3019.811279	892.821472	7.194032
355.870636	717.912903	3082.522705	895.347839	7.503772
356.236389	711.002747	3139.141357	913.254700	8.329506
356.602081	718.507324	3206.756836	932.201965	8.588152
356.967804	723.708496	3273.555420	951.817871	8.946003
357.333405	723.931458	3357.145752	956.276062	8.823611
357.699036	715.683838	3429.962158	959.842590	8.995347
358.064606	707.584900	3519.348389	969.501892	9.315043
358.430176	704.909912	3590.010498	982.950684	9.637126
358.795654	707.436218	3639.347412	996.845276	9.871004
359.161163	711.522766	3637.043945	1017.352844	10.453866
359.526581	714.940735	3647.372070	1029.018433	10.710487
359.892029	720.216248	3674.566406	1044.176147	10.965522
360.257416	716.055359	3730.516357	1054.950073	11.242299
360.622772	721.033508	3817.004883	1070.925171	11.301515
360.988098	718.655945	3926.973389	1078.875610	11.227682
361.353394	722.148193	4093.262695	1098.045654	11.150539
361.718658	721.851013	4248.629883	1121.302368	11.326238
362.083893	722.593994	4386.684082	1148.199951	11.615598
362.449097	729.355530	4464.107910	1164.546509	11.652472
362.814209	726.829163	4487.810059	1177.549438	11.984115
363.179382	724.748718	4399.761230	1182.230591	12.448444
363.544434	725.120178	4251.898926	1173.239990	12.706207
363.909546	728.909668	4063.912842	1157.116333	12.839767
364.274536	731.658875	3917.387939	1144.113281	12.946939
364.639587	723.114075	3795.680420	1147.382690	13.808281
365.004517	721.925293	3723.458252	1155.184448	14.434596
365.369507	713.008972	3685.563721	1159.048218	15.005249
365.734344	718.284424	3670.702881	1152.435181	14.704920
366.099274	718.804504	3662.677734	1156.596191	14.871282
366.464081	724.823059	3642.839111	1171.382446	15.303527
366.828918	724.228699	3642.319336	1189.512207	15.944793
367.193665	723.857117	3642.022217	1204.224243	16.461273
367.558411	723.188416	3672.263428	1214.477905	16.659105
367.923126	711.151306	3677.984619	1219.679199	17.140427
368.287781	710.036804	3693.068115	1219.679199	17.084715
368.652435	707.361877	3668.473877	1215.221069	17.150961
369.017059	725.120300	3666.170654	1222.131226	16.899096
369.381653	729.058289	3654.430664	1241.004028	17.500191
369.746185	733.887939	3670.925781	1260.099976	17.916420
370.110687	731.138672	3681.699951	1269.833618	18.257372
370.475220	731.435974	3704.807861	1267.604370	18.032335
370.839661	736.117004	3733.489014	1280.533081	18.163113
371.204041	735.299805	3772.052002	1295.467896	18.446289
371.568451	729.949890	3812.918701	1320.953735	19.169958
371.932770	730.024231	3870.131592	1341.015503	19.457655
372.297150	727.646484	3893.313721	1361.894653	20.035213
372.661377	729.206848	3920.063232	1372.445679	20.158815
373.025696	725.120300	3932.620361	1371.628296	20.156134
373.389862	723.039734	3949.932617	1369.547729	20.035000
373.754059	725.937561	3963.232666	1372.222656	19.963737
374.118225	718.581543	3972.966553	1377.869507	20.258450
374.482361	724.154297	4007.368896	1394.959351	20.431349
374.846436	723.857117	4044.222656	1408.779419	20.627918
375.210510	732.104736	4112.878418	1430.773071	20.665930
375.574524	733.962219	4185.546387	1453.658569	20.851189
375.938538	726.680664	4264.901855	1475.206177	21.155418
376.302460	728.166687	4350.647461	1496.233887	21.202797
376.666412	718.061523	4461.209961	1518.524780	21.384758
377.030304	721.851013	4553.939941	1544.604980	21.470118
377.394196	714.717957	4636.267090	1564.220825	21.662432
377.757996	723.782776	4714.656738	1587.997681	21.654778
378.121796	722.891174	4779.671387	1600.777832	21.639986
378.485565	728.018066	4798.023926	1612.071777	21.721189
378.849304	721.182190	4764.810547	1611.848999	22.026426
379.212982	722.668274	4704.997070	1607.613647	22.221806
379.576630	719.398926	4624.006836	1601.000610	22.578495
379.940277	718.358704	4554.311035	1603.229858	23.067835
380.303864	710.259583	4499.104004	1605.830444	23.637045
380.667450	709.070801	4498.286621	1608.059570	23.724930
381.030945	711.745789	4500.887207	1605.384766	23.584208
381.394501	717.318420	4539.004395	1619.130737	23.597237
381.757935	718.358704	4560.849609	1648.108765	24.196545
382.121399	720.216248	4565.382324	1664.083862	24.546862
382.484741	719.993347	4583.437500	1678.870117	24.819221
382.848145	724.451477	4606.396973	1698.411621	25.089485
383.211487	719.696106	4669.108887	1721.594116	25.368277
383.574768	720.216248	4726.693359	1757.184937	25.882309
383.938019	715.832458	4791.336426	1777.246704	26.043756
384.301270	719.176086	4855.534180	1815.586914	26.506674
384.664459	721.776672	4903.235840	1840.701294	26.759190
385.027649	720.587830	4953.984863	1873.988892	27.245287
385.390778	724.228699	5000.350098	1906.607910	27.650738
385.753876	717.244141	5045.377441	1941.381470	28.283262
386.116943	717.169861	5073.315430	1962.186157	28.580688
386.479980	716.352539	5084.832031	1976.155151	28.838469
386.842987	723.262695	5123.098145	1995.771118	28.921728
387.205994	724.154358	5148.361328	2028.910156	29.491293
387.568909	720.513489	5196.509277	2056.773682	29.853922
387.931793	722.965515	5216.868652	2073.640381	30.055716
388.294678	724.005676	5265.685059	2091.101563	30.101112
388.657471	721.256592	5300.607422	2118.444580	30.510614
389.020294	724.302979	5325.350098	2150.469238	30.996561
389.383057	722.742615	5348.161621	2177.366943	31.448486
389.745819	721.182190	5354.922363	2195.273926	31.812138
390.108521	717.021240	5363.021484	2219.571045	32.340717
390.471191	713.231873	5419.565918	2249.738037	32.647621
390.833801	719.547546	5494.908691	2293.725342	32.964577
391.196442	712.785950	5624.642090	2344.919678	33.228455
391.558960	717.467041	5719.897949	2400.349365	33.641293
391.921509	714.123474	5840.713379	2451.023682	33.880226
392.284027	723.634216	5935.672363	2504.373047	34.165882
392.646484	715.535217	6025.355957	2541.153076	34.381912
393.008911	716.501160	6068.525879	2568.719482	34.607803
393.371307	710.631287	6079.225098	2570.428223	34.642162
393.733673	714.049133	6051.659668	2585.734619	35.065983
394.096008	713.603333	6013.914063	2589.226807	35.387051
394.458344	711.820129	6007.078125	2609.065674	35.829144
394.820587	720.587830	6015.771484	2614.787109	35.772118
395.182831	721.776672	6059.312500	2637.003662	35.882233
395.545013	723.857178	6078.482910	2641.758789	35.817657
395.907196	723.485657	6058.940918	2651.195313	36.130184
396.269287	722.742493	5998.310059	2646.662842	36.468502
396.631409	723.931458	5915.759277	2644.210693	36.986576
396.993469	721.107910	5840.342285	2630.316406	37.294804
397.355530	719.919128	5798.732910	2625.783691	37.525780
397.717499	717.838623	5776.664551	2630.539063	37.809174
398.079468	716.872742	5775.624512	2630.242188	37.822952
398.441376	716.575439	5770.572266	2641.239014	38.082008
398.803284	713.900574	5791.079590	2652.532959	38.183254
399.165131	713.528992	5823.029785	2687.603760	38.635372
399.526978	720.141907	5846.806152	2694.142334	38.504581
399.888763	722.593994	5863.895996	2709.374512	38.643532
400.250519	722.222473	5869.691895	2726.315674	38.933563
400.612244	730.024231	5887.450684	2759.454346	39.349670
400.973938	725.937561	5903.054199	2760.791992	39.304783
401.335602	718.135742	5918.880371	2776.321045	39.574818
401.697205	707.956299	5968.588379	2794.079346	39.655369
402.058807	713.306152	6010.718750	2842.673828	40.196373
402.420349	716.649719	6086.209473	2874.029297	40.177963
402.781860	706.990417	6158.580566	2903.453125	40.290310
403.143341	706.767517	6249.527344	2937.112061	40.238880
403.504822	707.882019	6347.235840	2991.501709	40.494347
403.866241	715.832458	6450.813965	3046.262939	40.635361
404.227631	713.008972	6572.001465	3102.361328	40.780941
404.588959	717.244141	6701.213379	3151.401123	40.677967
404.950287	712.711731	6810.513184	3201.852783	40.820305
405.311554	713.454773	6898.189941	3233.654297	40.748703
405.672821	715.460938	6957.781250	3266.124756	40.860828
406.034027	716.575378	6958.152344	3278.310303	41.043068
406.395203	717.169861	6928.580078	3270.657227	41.109623
406.756348	712.414551	6880.729004	3253.641846	41.198082
407.117493	710.631287	6859.479004	3250.372314	41.304340
407.478516	716.724060	6842.760254	3274.297852	41.749245
407.839600	724.451477	6856.060547	3283.957275	41.742809
408.200592	736.711426	6854.054688	3298.818115	41.882671
408.561554	730.767273	6851.082031	3293.616943	41.874474
408.922485	726.160461	6863.416504	3302.830322	41.984074
409.283417	719.398926	6888.159668	3304.464844	41.905758
409.644257	720.736328	6970.486816	3341.839111	41.939320
410.005096	721.033508	7047.613281	3392.736328	42.229816
410.365906	719.250305	7117.309082	3435.683350	42.457146
410.726715	721.925232	7198.224609	3478.853271	42.569496
411.087433	718.358704	7252.763184	3501.738525	42.595772
411.448120	717.838562	7339.994141	3523.806396	42.372421
411.808807	720.142029	7363.622559	3534.951904	42.369507
412.169434	727.869446	7373.876465	3532.945557	42.206940
412.530029	733.070618	7377.814453	3555.533936	42.476631
412.890564	720.141907	7367.188965	3560.289063	42.727955
413.251099	718.358704	7364.811035	3561.106445	42.770905
413.611572	717.318420	7390.074219	3574.257813	42.814987
413.972076	728.092346	7435.398926	3589.118408	42.655365
414.332489	726.457703	7487.113281	3618.393799	42.775970
414.692871	720.959290	7576.275879	3655.619873	42.808537
415.053223	717.764343	7669.452637	3708.597412	43.023117
415.413574	713.306152	7822.961426	3778.739014	43.116478
415.773834	717.318420	7917.920410	3828.299072	43.204453
416.134094	720.513489	8051.220215	3884.323242	43.158321
416.494263	717.615662	8160.519531	3935.443604	43.233501
416.854462	718.730225	8349.397461	4027.281982	43.358620
417.214630	719.027405	8553.581055	4114.216309	43.336086
417.574738	725.343201	8772.477539	4216.456543	43.383312
417.934784	729.875671	8990.407227	4311.415527	43.357258
418.294861	723.337097	9240.137695	4441.073730	43.651798
418.654846	716.575500	9558.079102	4577.865234	43.672318
419.014832	716.724121	9877.952148	4722.681152	43.727291
419.374756	718.730225	10237.354492	4879.236816	43.709122
419.734680	732.922058	10581.004883	5058.826660	43.926365
420.094543	726.160461	10927.034180	5223.555176	44.088326
420.454376	725.120300	11228.032227	5357.300293	44.103771
420.814148	715.981018	11559.497070	5485.843750	43.988159
421.173920	715.386658	11920.906250	5632.443359	43.880665
421.533691	717.987244	12291.676758	5785.135254	43.781612
421.893341	721.330872	12594.088867	5922.001465	43.803391
422.253021	722.742615	12816.253906	6000.019043	43.637253
422.612640	723.262695	12927.261719	6049.207520	43.640980
422.972260	725.268860	12945.539063	6066.594238	43.708733
423.331757	724.079895	12912.030273	6078.854004	43.934982
423.691315	732.922058	12908.461914	6100.921875	44.088394
424.050781	739.386292	12956.610352	6140.525391	44.209221
424.410248	739.237793	13025.192383	6171.509766	44.215302
424.769653	732.401917	13120.895508	6202.567871	44.155216
425.128998	723.188477	13201.141602	6234.814941	44.170918
425.488373	727.572266	13199.209961	6233.478516	44.147419
425.847656	722.816895	13100.757813	6216.313965	44.381348
426.206940	724.302979	12962.333008	6149.961426	44.334408
426.566193	719.473328	12743.140625	6069.194824	44.493263
426.925385	715.683777	12529.296875	5963.610840	44.422710
427.284576	714.792175	12237.510742	5839.599609	44.475681
427.643677	722.742615	12006.874023	5756.603027	44.610081
428.002777	731.733215	11777.575195	5655.849121	44.578907
428.361847	727.720886	11525.096680	5548.704590	44.649590
428.720856	719.473206	11282.348633	5441.931152	44.708073
429.079865	715.015076	11079.723633	5374.687500	44.957096
429.438812	719.473328	10963.588867	5340.062012	45.104813
429.797760	717.912903	10911.131836	5300.607422	44.958267
430.156616	720.067688	10807.850586	5249.041016	44.895622
430.515503	723.708496	10723.887695	5209.958496	44.861694
430.874268	729.058350	10689.783203	5215.604980	45.042374
431.233093	726.234802	10712.817383	5234.552246	45.143742
431.591827	720.587830	10724.186523	5257.511719	45.352917
431.950562	722.742493	10733.770508	5274.675781	45.469185
432.309204	718.358704	10798.414063	5300.682129	45.459305
432.667877	718.210144	10929.855469	5361.164551	45.467251
433.026459	714.346375	11049.038086	5412.136230	45.456509
433.385010	721.182129	11150.312500	5448.990234	45.332714
433.743561	722.296692	11300.403320	5504.642578	45.209846
434.102051	723.559875	11435.932617	5565.422363	45.198784
434.460510	723.039734	11606.828125	5658.597656	45.347797
434.818939	721.330750	11670.727539	5674.572754	45.237583
435.177338	717.541321	11730.467773	5711.724121	45.348370
435.535675	717.392822	11705.500977	5699.390137	45.339897
435.894012	719.770508	11664.338867	5706.150879	45.560322
436.252289	721.107910	11667.831055	5725.841797	45.719017
436.610535	719.844727	11648.957031	5721.160645	45.761410
436.968719	730.618652	11755.953125	5778.819824	45.787285
437.326935	732.401917	11857.526367	5806.162598	45.606331
437.685028	739.237793	11981.015625	5880.911621	45.737198
438.043152	731.807556	12061.784180	5910.410156	45.707088
438.401215	731.138733	12212.246094	5987.388184	45.781731
438.759277	722.593933	12397.929688	6061.095703	45.724609
439.117249	724.525818	12676.862305	6200.562500	45.815613
439.475250	722.222473	12889.515625	6312.759277	45.947250
439.833130	731.138733	13180.708008	6461.290527	46.026909
440.191071	732.847839	13388.831055	6559.221191	46.036514
440.548889	733.070618	13634.176758	6661.164551	45.950275
440.906708	725.268860	13872.094727	6752.928223	45.848778
441.264496	716.946960	14076.426758	6863.045410	46.005524
441.622223	723.188416	14273.403320	6935.936035	45.849808
441.979950	726.457703	14351.198242	6985.645020	45.939865
442.337616	732.401855	14424.609375	7001.396973	45.785133
442.695251	735.299744	14342.356445	6984.232910	45.924210
443.052887	728.018066	14218.717773	6947.824219	46.104401
443.410461	718.061462	14091.362305	6900.865234	46.232445
443.768005	715.163635	13973.742188	6866.091797	46.392067
444.125458	726.457703	13913.333008	6837.633301	46.342865
444.482941	730.544373	13915.190430	6852.196777	46.430161
444.840393	726.829285	13994.249023	6896.185059	46.500042
445.197754	715.163757	14194.344727	6996.716309	46.601887
445.555084	713.157532	14387.458008	7111.067871	46.787842
445.912415	702.829407	14676.421875	7249.790527	46.852383
446.269714	709.888184	14878.749023	7356.117676	46.907295
446.626953	710.333984	15178.485352	7451.002441	46.589703
446.984161	720.290527	15436.167969	7551.979980	46.423939
447.341309	722.816895	15668.364258	7652.288574	46.364792
447.698456	724.080017	15840.449219	7743.310059	46.434628
448.055542	727.423584	16005.028320	7805.426270	46.329273
448.412598	730.990173	16030.589844	7830.689453	46.404476
448.769653	733.813660	15932.213867	7805.648926	46.530128
449.126617	729.355530	15712.203125	7725.996582	46.697674
449.483582	726.160461	15554.532227	7658.381348	46.749710
449.840515	727.646545	15353.541992	7558.518066	46.703953
450.197388	726.309082	15152.032227	7472.550781	46.765366
450.554230	726.606262	14989.831055	7399.139160	46.781376
450.911041	726.457703	14853.782227	7368.154785	47.013130
451.267822	724.005676	14756.965820	7344.378418	47.177307
451.624573	715.089355	14626.862305	7293.480957	47.286507
451.981262	712.414551	14549.585938	7257.444824	47.300346
452.337921	715.535156	14444.522461	7218.063965	47.363499
452.694580	721.627991	14404.401367	7191.611816	47.285618
453.051147	719.324646	14404.624023	7184.998535	47.245396
453.407715	720.216309	14388.870117	7150.968262	47.047440
453.764221	722.668213	14430.331055	7208.106934	47.312504
454.120728	730.618652	14278.234375	7160.999512	47.465038
454.477142	728.686829	14235.137695	7188.119629	47.824795
454.833557	727.126465	14092.700195	7118.794922	47.821877
455.189911	721.479492	14005.096680	7088.479980	47.931225
455.546265	723.931458	13853.147461	7017.892578	47.938591
455.902557	731.658875	13733.965820	6945.149902	47.787605
456.258820	726.532043	13737.979492	6932.964355	47.699783
456.615051	723.485596	13795.042969	6975.316406	47.827744
456.971252	717.244202	13810.127930	7002.289063	48.003517
457.327393	721.256531	13907.090820	7089.297363	48.294563
457.683502	721.033691	14068.700195	7179.946777	48.389832
458.039612	719.844788	14404.176758	7364.068848	48.553513
458.395630	719.770508	14727.096680	7536.896973	48.668293
458.751648	715.460938	15093.483398	7708.907715	48.639839
459.107605	716.278259	15578.084961	7961.611328	48.751362
459.463562	715.089355	16120.569336	8178.798340	48.448402
459.819458	720.216309	16598.113281	8414.857422	48.461338
460.175323	718.953125	17054.109375	8578.545898	48.114586
460.531158	714.717834	17476.150391	8787.708008	48.164085
460.886932	709.962463	17840.677734	8944.933594	48.071377
461.242676	705.355713	18062.992188	9077.042969	48.230572
461.598419	717.169861	18080.230469	9089.005859	48.216362
461.954102	721.033630	17877.681641	9004.375000	48.280651
462.309723	726.309082	17431.417969	8821.367188	48.458576
462.665344	714.197754	16919.472656	8591.252930	48.607967
463.020905	719.324707	16445.496094	8391.749023	48.787617
463.376373	718.581604	16068.484375	8227.985352	48.921509
463.731873	719.919006	15752.176758	8107.318848	49.143650
464.087341	713.677673	15537.741211	7981.003906	49.023846
464.442749	716.055359	15425.320313	7920.967285	48.982136
464.798126	715.758118	15345.815430	7851.270996	48.772964
465.153503	716.724060	15385.270508	7889.685547	48.900288
465.508820	714.569275	15409.046875	7868.286621	48.683033
465.864105	721.553711	15494.272461	7930.478027	48.798901
466.219330	725.863342	15673.565430	8023.430176	48.820660
466.574524	730.470032	15803.445313	8121.510254	49.035042
466.929657	725.343201	15982.737305	8215.206055	49.090050
467.284790	725.268860	16165.448242	8309.644531	49.121033
467.639893	723.188416	16380.554688	8411.811523	49.105469
467.994934	724.748718	16620.107422	8537.977539	49.154156
468.349945	725.194519	16730.521484	8585.976563	49.113537
468.704926	721.330811	16804.601563	8621.344727	49.119450
469.059875	724.154297	16657.035156	8559.450195	49.176895
469.414764	721.851013	16508.205078	8506.992188	49.315636
469.769653	722.296692	16331.070313	8452.083008	49.522060
470.124451	718.284424	16236.928711	8414.857422	49.595654
470.479248	719.696106	16070.862305	8347.911133	49.691437
470.834015	715.386536	15990.391602	8279.774414	49.521343
471.188721	711.374207	16049.610352	8293.521484	49.432980
471.543365	710.705505	16116.184570	8345.236328	49.557243
471.898010	710.185364	16199.627930	8406.312500	49.686275
472.252625	713.231750	16289.979492	8447.253906	49.651070
472.607178	704.315430	16511.625000	8525.940430	49.481064
472.961700	702.606506	16693.369141	8636.799805	49.617355
473.316193	707.361877	16934.630859	8773.070313	49.704659
473.670654	717.095520	17110.505859	8855.918945	49.646919
474.025055	724.600098	17379.927734	8967.668945	49.492081
474.379456	717.764343	17589.980469	9062.703125	49.459644
474.733795	724.302979	17769.646484	9187.902344	49.653439
475.088104	728.092346	17906.880859	9287.988281	49.828281
475.442383	738.494812	17908.666016	9325.437500	50.010811
475.796570	731.361633	17973.828125	9341.784180	49.937302
476.150787	725.640381	18069.083984	9371.802734	49.852627
476.504944	723.634277	18251.794922	9448.333984	49.775330
476.859070	731.361633	18448.919922	9556.741211	49.811489
477.213135	735.299805	18647.306641	9661.954102	49.836147
477.567200	726.086182	18960.271484	9856.254883	50.071712
477.921173	722.296814	19336.984375	10037.777344	50.043713
478.275146	717.169861	19762.443359	10250.284180	50.055016
478.629089	730.618652	20095.392578	10367.086914	49.762878
478.983002	731.435974	20490.089844	10559.977539	49.742973
479.336823	729.058289	20860.193359	10741.498047	49.736092
479.690643	720.810730	21228.660156	10957.273438	49.914852
480.044403	718.878906	21614.884766	11173.196289	50.030220
480.398163	723.262695	22142.359375	11489.503906	50.264683
480.751862	721.628113	22894.599609	11881.823242	50.332432
481.105499	717.912903	23808.226563	12352.010742	50.385185
481.459137	719.993408	24988.375000	12955.942383	50.419308
481.812744	720.810730	26433.046875	13725.347656	50.577232
482.166290	730.544434	28209.771484	14676.497070	50.750893
482.519806	727.795166	30341.294922	15800.325195	50.897495
482.873291	729.727051	32770.546875	17056.189453	50.955196
483.226715	719.844788	35465.433594	18469.650391	51.085056
483.580139	719.027527	38193.453125	19885.414063	51.145245
483.933502	719.027405	41202.191406	21402.898438	51.092525
484.286804	725.789063	44150.894531	22848.531250	50.944592
484.640106	724.525879	46969.718750	24264.521484	50.902580
484.993347	724.674500	49013.937500	25391.541016	51.081474
485.346558	717.169861	50221.359375	26124.687500	51.323971
485.699738	721.479431	50366.027344	26274.703125	51.472370
486.052887	720.439148	49661.265625	25911.884766	51.473270
486.405975	718.730164	48318.468750	25195.755859	51.422604
486.759064	715.312256	46491.359375	24234.130859	51.378002
487.112061	711.894348	44614.625000	23252.291016	51.341675
487.464996	712.191589	43118.984375	22433.328125	51.220890
487.817963	716.872620	42362.207031	21963.289063	51.017517
488.170868	722.816895	42171.996094	21796.705078	50.842716
488.523743	719.696106	42340.886719	21806.808594	50.664368
488.876587	713.751953	42549.230469	21912.095703	50.670734
489.229401	715.237976	42512.226563	21902.140625	50.690022
489.582153	724.600098	42125.109375	21759.033203	50.807186
489.934845	726.829285	41400.359375	21407.433594	50.845360
490.287537	723.485596	40527.753906	21009.169922	50.963589
490.640198	725.863281	39586.558594	20573.013672	51.072556
490.992798	723.782898	38688.089844	20130.318359	51.117840
491.345337	725.417480	38184.167969	19850.121094	51.055370
491.697876	720.736328	37948.332031	19729.601563	51.061226
492.050354	733.293518	38199.027344	19813.267578	50.926468
492.402832	733.145020	38489.773438	19923.011719	50.825161
492.755219	739.906555	38755.703125	19959.271484	50.556259
493.107605	729.206970	38652.574219	19861.044922	50.448681
493.459930	727.126465	38156.230469	19593.701172	50.406158
493.812225	722.668274	37079.882813	19109.841797	50.573658
494.164490	721.405090	35593.457031	18409.689453	50.723385
494.516724	714.420654	33823.566406	17529.498047	50.786808
494.868896	716.798340	32044.236328	16591.205078	50.672535
495.221039	716.352539	30520.736328	15818.454102	50.670742
495.573120	723.708496	29204.908203	15183.166992	50.768436
495.925201	722.742615	28403.851563	14830.898438	50.966728
496.277222	726.606262	27862.703125	14597.067383	51.114426
496.629211	723.411316	27694.333984	14490.887695	51.045628
496.981140	717.838562	27590.828125	14437.761719	51.054695
497.333069	714.420654	27669.591797	14455.000000	50.975670
497.684967	718.061523	27755.632813	14493.562500	50.949478
498.036804	716.203918	27881.875000	14519.124023	50.810154
498.388580	716.724121	27865.453125	14497.425781	50.760025
498.740326	712.860352	27796.500000	14475.877930	50.816719
499.092072	717.392822	27621.443359	14386.937500	50.808502
499.443756	714.866455	27398.833984	14290.641602	50.876152
499.795410	717.838623	27162.771484	14149.616211	50.791496
500.147003	723.411316	26860.062500	14024.266602	50.889671
500.498566	725.937561	26520.275391	13846.385742	50.865612
500.850098	724.525818	26159.537109	13680.541992	50.937725
501.201599	717.689941	25856.455078	13518.710938	50.921440
501.553009	717.244141	25611.181641	13409.040039	50.983482
501.904449	714.420654	25427.431641	13328.868164	51.043747
502.255859	715.237976	25248.435547	13250.850586	51.096531
502.607178	721.776611	25168.634766	13215.481445	51.105568
502.958405	721.925232	25058.220703	13132.336914	50.995487
503.309692	718.655945	24992.093750	13103.582031	51.022545
503.660919	708.402161	24988.080078	13088.497070	50.989536
504.012115	713.751953	25023.968750	13131.816406	51.081669
504.363251	712.191589	25131.039063	13171.866211	51.024826
504.714294	725.194580	25144.931641	13195.122070	51.064957
505.065369	731.287354	25186.765625	13225.214844	51.088463
505.416443	746.073547	25222.281250	13250.479492	51.088005
505.767395	741.912659	25308.992188	13274.627930	51.014263
506.118317	734.036621	25310.181641	13264.225586	50.985172
506.469238	717.467102	25347.482422	13310.887695	51.130383
506.820160	711.671387	25294.205078	13331.989258	51.338558
507.170929	715.163635	25328.685547	13366.688477	51.400707
507.521729	717.021179	25350.304688	13377.165039	51.394463
507.872498	718.358704	25487.914063	13414.390625	51.256603
508.223236	711.299988	25671.812500	13505.708008	51.258598
508.573883	715.906799	25798.720703	13582.834961	51.297783
508.924500	716.872742	25937.369141	13643.614258	51.254906
509.275116	721.405090	26103.734375	13736.715820	51.277050
509.625702	722.148132	26354.953125	13852.925781	51.226456
509.976196	723.931335	26616.720703	13995.661133	51.256470
510.326660	723.114075	26853.447266	14103.770508	51.207367
510.677124	729.281250	27069.000000	14212.476563	51.189594
511.027557	737.305847	27267.611328	14360.710938	51.350353
511.377869	747.039551	27476.697266	14486.801758	51.402683
511.728180	741.838318	27641.726563	14574.479492	51.422672
512.078430	728.240967	27807.048828	14600.856445	51.230522
512.428650	714.346375	27950.232422	14670.776367	51.242794
512.778931	712.860352	28051.431641	14721.747070	51.242207
513.129028	720.141907	28105.451172	14771.752930	51.310764
513.479126	725.640381	28120.236328	14771.084961	51.270859
513.829285	725.714661	28119.271484	14776.656250	51.292870
514.179382	723.857117	28120.833984	14767.293945	51.259075
514.529297	724.600098	28101.437500	14769.449219	51.301941
514.879272	724.971680	28188.148438	14799.616211	51.249153
515.229187	720.810730	28098.687500	14789.733398	51.387924
515.579163	719.473206	28162.515625	14837.881836	51.446220
515.928955	714.420654	28141.787109	14863.145508	51.586155
516.278748	718.433044	28331.478516	14965.312500	51.594746
516.628540	722.519714	28513.447266	15055.215820	51.573292
516.978333	730.692932	28850.927734	15236.292969	51.584206
517.327942	726.309082	29278.244141	15463.659180	51.615940
517.677612	722.296814	29751.478516	15724.909180	51.681141
518.027222	717.615723	30272.634766	15964.831055	51.589256
518.376831	714.866455	30927.021484	16280.246094	51.520260
518.726379	709.145203	31560.080078	16586.447266	51.464573
519.075867	707.064697	32137.859375	16870.210938	51.424557
519.425293	721.033630	32574.833984	17128.041016	51.507221
519.774658	726.086243	32939.140625	17295.220703	51.436089
520.124084	727.423645	33140.277344	17396.421875	51.427124
520.473389	719.919006	33100.671875	17347.976563	51.351669
520.822693	717.689941	32885.496094	17268.546875	51.451618
521.171997	724.228577	32563.763672	17158.279297	51.615234
521.521240	727.720886	32195.146484	16988.869141	51.676132
521.870361	733.442139	31813.005859	16812.251953	51.734348
522.219482	725.343201	31458.507813	16615.275391	51.702885
522.568604	721.479431	31159.736328	16452.404297	51.681423
522.917664	721.182190	30966.031250	16305.286133	51.526470
523.266724	724.525879	30892.544922	16269.324219	51.527409
523.615662	721.628113	31038.697266	16362.351563	51.590488
523.964600	714.197754	31343.115234	16570.177734	51.768005
524.313538	714.792175	31822.294922	16844.650391	51.851990
524.662354	722.965393	32426.750000	17154.267578	51.827576
525.011169	731.584656	33165.019531	17533.732422	51.805023
525.359985	727.275085	34026.484375	17979.548828	51.809856
525.708740	716.798340	35049.484375	18486.962891	51.758732
526.057434	717.392822	36188.988281	19118.238281	51.874878
526.406067	716.055359	37543.378906	19865.724609	51.998539
526.754700	717.392761	39041.250000	20724.142578	52.204430
527.103333	709.962463	40785.730469	21692.158203	52.356312
527.451782	707.882019	42682.082031	22755.208984	52.525902
527.800293	715.535156	44673.394531	23863.283203	52.658951
528.148743	716.649719	46665.300781	25001.005859	52.851070
528.497131	724.005676	48548.207031	26071.041016	53.000435
528.845642	721.330811	50240.453125	27104.291016	53.278332
529.193909	722.593933	51714.988281	28005.585938	53.504044
529.542175	719.324646	52929.613281	28782.943359	53.751129
529.890503	718.061462	53747.761719	29335.306641	53.964565
530.238770	714.569153	54091.859375	29565.572266	54.051086
530.586914	710.705505	53936.050781	29498.626953	54.086868
530.934998	715.163635	53220.066406	28988.015625	53.848022
531.283142	722.222412	52070.457031	28214.453125	53.540752
531.631226	731.807434	50339.500000	27109.718750	53.173027
531.979248	721.479431	48384.296875	25951.267578	52.933903
532.327148	716.055359	46383.769531	24749.865234	52.627575
532.675110	712.414490	44704.234375	23805.998047	52.495178
533.023071	715.460876	43598.531250	23150.052734	52.315731
533.370850	722.296814	43032.199219	22850.835938	52.301086
533.718689	721.479431	43113.410156	22774.154297	52.020927
534.066467	725.640381	43370.277344	22847.416016	51.874695
534.414246	720.290527	43674.394531	22980.642578	51.823570
534.761963	713.677673	43782.433594	23082.513672	51.937500
535.109619	717.541443	43858.441406	23101.533203	51.885780
535.457153	713.603333	43577.730469	22959.318359	51.898209
535.804749	720.885010	43049.136719	22650.587891	51.808670
536.152344	715.386536	42200.902344	22281.603516	51.984932
536.499817	723.857117	41233.925781	21744.691406	51.890392
536.847229	712.191589	40214.937500	21169.216797	51.786339
537.194641	708.922302	39241.644531	20612.095703	51.652653
537.542114	705.281433	38556.648438	20239.318359	51.607216
537.889404	716.724060	38028.578125	20013.513672	51.717583
538.236694	719.696106	37663.976563	19813.787109	51.683483
538.583984	713.974854	37394.554688	19666.369141	51.668747
538.931213	712.340149	37239.488281	19580.921875	51.656322
539.278381	706.470276	37142.968750	19555.138672	51.730183
539.625488	713.231873	37049.343750	19560.117188	51.868191
539.972595	709.293762	37118.964844	19626.916016	51.957687
540.319641	714.272156	37422.488281	19823.296875	52.056538
540.666687	714.197754	37989.121094	20150.525391	52.143177
541.013611	717.169922	38936.781250	20603.251953	52.031097
541.360596	721.925293	40047.312500	21168.845703	51.994198
541.707458	719.250305	41359.273438	21853.767578	52.004196
542.054260	718.953125	42542.691406	22432.734375	51.917362
542.401062	724.897278	43758.730469	23029.681641	51.830814
542.747864	725.640381	44688.550781	23495.708984	51.793816
543.094666	728.686829	45237.875000	23819.076172	51.877804
543.441284	725.640442	45166.246094	23803.248047	51.929104
543.787903	724.451599	44637.503906	23515.400391	51.900173
544.134460	721.702332	43729.980469	23022.771484	51.852966
544.481079	715.089355	42489.042969	22343.718750	51.775394
544.827637	720.736328	40963.832031	21497.634766	51.628483
545.174072	718.210144	39281.101563	20626.880859	51.626499
545.520508	722.593933	37806.121094	19876.349609	51.650307
545.866943	719.547546	36607.390625	19216.990234	51.542366
546.213318	728.612488	35649.257813	18692.855469	51.443043
546.559631	731.213074	34834.597656	18248.226563	51.364445
546.905823	726.309082	34113.265625	17896.330078	51.427334
547.252136	720.141907	33584.828125	17621.037109	51.425697
547.598389	714.717957	33102.230469	17354.736328	51.377884
547.944458	719.696106	32790.160156	17164.224609	51.276241
548.290588	727.275085	32391.007813	16964.722656	51.280903
548.636658	732.550476	31993.490234	16730.744141	51.176304
548.982727	730.024231	31399.587891	16424.021484	51.171242
549.328735	723.857117	30821.365234	16107.046875	51.111172
549.674622	719.696106	30097.359375	15753.364258	51.173801
550.020569	723.708496	29439.556641	15426.582031	51.201252
550.366455	720.439209	28655.140625	15055.143555	51.315044
550.712280	711.151367	27985.822266	14727.617188	51.390045
551.058044	710.854187	27366.359375	14413.167969	51.405190
551.403748	713.528992	26865.708984	14150.879883	51.381378
551.749512	720.290588	26536.919922	13962.520508	51.293411
552.095154	713.603333	26311.115234	13829.965820	51.240772
552.440735	720.810730	26258.580078	13796.528320	51.201488
552.786316	717.615723	26213.033203	13788.356445	51.267017
553.131897	722.593994	26222.619141	13781.891602	51.212883
553.477417	717.838562	26203.744141	13758.932617	51.169827
553.822815	721.850891	26183.609375	13710.190430	51.011166
554.168213	724.302979	26139.843750	13690.425781	51.016514
554.513672	721.553711	26099.500000	13636.854492	50.891830
554.859009	724.005676	26024.156250	13605.348633	50.914097
555.204285	730.024231	25902.599609	13568.270508	51.000923
555.549500	736.711487	25727.093750	13497.757813	51.063828
555.894714	733.888000	25543.492188	13398.563477	51.047474
556.239990	728.909729	25280.906250	13267.270508	51.068600
556.585022	725.714661	25067.062500	13128.101563	50.951931
556.930115	724.525879	24788.130859	12978.605469	50.923706
557.275146	722.222473	24545.009766	12843.893555	50.882671
557.620178	719.176086	24307.093750	12739.424805	50.959347
557.965149	725.566101	24097.859375	12655.090820	51.041309
558.310059	718.210144	23937.216797	12582.421875	51.096985
558.654968	722.371094	23801.390625	12510.793945	51.078526
558.999756	712.637390	23680.650391	12434.040039	51.033592
559.344604	724.451477	23630.865234	12386.114258	50.910034
559.689331	717.987244	23534.568359	12333.062500	50.906288
560.033997	723.039795	23472.080078	12297.249023	50.877789
560.378723	718.804504	23404.017578	12268.418945	50.912521
560.723389	720.290588	23419.548828	12270.500000	50.883640
561.067932	713.974915	23480.552734	12284.989258	50.824566
561.412476	711.894348	23485.232422	12286.104492	50.823513
561.757019	714.494934	23448.525391	12285.210938	50.896015
562.101501	721.850891	23474.978516	12294.424805	50.861465
562.445862	727.200684	23472.970703	12291.007813	50.839375
562.790222	728.612488	23470.224609	12277.484375	50.782997
563.134644	731.658875	23417.541016	12292.346680	50.959831
563.478943	730.247070	23437.603516	12283.429688	50.878590
563.823181	727.572266	23450.384766	12317.385742	51.005188
564.167358	719.547546	23459.005859	12317.458008	51.003456
564.511536	712.637390	23491.322266	12339.453125	51.042522
564.855774	707.510559	23489.244141	12325.706055	50.997852
565.199768	713.751953	23581.306641	12355.352539	50.908813
565.543823	721.256531	23684.216797	12409.743164	50.901478
565.887817	726.234863	23905.787109	12510.422852	50.838718
566.231812	725.417480	24059.070313	12583.909180	50.821415
566.575745	726.903564	24239.330078	12667.424805	50.783878
566.919617	728.389648	24432.515625	12736.898438	50.659996
567.263428	727.869446	24647.400391	12824.723633	50.573124
567.607239	716.649719	24853.812500	12896.351563	50.460373
567.950989	716.798340	24939.187500	12944.872070	50.482529
568.294678	714.940857	25001.900391	12971.174805	50.464260
568.638367	713.900574	24929.751953	12920.203125	50.406250
568.981995	713.231750	24830.037109	12869.008789	50.403763
569.325623	712.191589	24679.203125	12801.988281	50.443489
569.669128	715.460938	24527.179688	12751.238281	50.545605
570.012573	712.191589	24396.109375	12689.344727	50.570827
570.356140	716.203918	24260.208984	12616.082031	50.543133
570.699524	714.940735	24196.013672	12569.198242	50.484314
571.042908	714.569336	24231.826172	12572.391602	50.421791
571.386230	713.008972	24330.500000	12603.152344	50.344654
571.729492	717.318542	24460.306641	12688.898438	50.421539
572.072815	726.086182	24589.369141	12752.872070	50.398708
572.416016	725.714661	24719.994141	12810.680664	50.366028
572.759094	728.761047	24844.302734	12872.723633	50.357414
573.102234	722.148193	24939.259766	12894.495117	50.263412
573.445374	719.473328	24999.595703	12919.608398	50.247417
573.788391	710.705566	25049.826172	12918.346680	50.156456
574.131409	711.374207	25078.208984	12939.522461	50.183575
574.474365	714.494934	25064.314453	12932.315430	50.176224
574.817261	724.823059	24950.703125	12892.710938	50.226810
575.160156	723.485657	24771.634766	12808.006836	50.251358
575.502930	717.838623	24602.968750	12690.682617	50.126766
575.845703	714.717957	24400.343750	12558.422852	50.003769
576.188477	722.965515	24179.888672	12455.290039	50.016464
576.531250	729.206848	23913.216797	12355.354492	50.147266
576.873901	727.126404	23688.599609	12248.581055	50.177334
577.216431	721.628113	23490.431641	12095.741211	49.954815
577.559082	723.337097	23289.072266	11975.890625	49.865665
577.901611	724.377258	23026.859375	11836.051758	49.822594
578.244080	726.309082	22751.640625	11719.694336	49.912460
578.586487	722.668274	22444.771484	11551.250000	49.850521
578.928955	764.723633	22162.865234	11424.265625	49.815273
579.271301	762.643127	21821.072266	11251.363281	49.807701
579.613647	759.819580	21434.402344	11073.854492	49.887516
579.955872	713.454651	21085.031250	10869.374023	49.853378
580.298157	715.832336	20765.974609	10718.166992	49.886604
580.640320	715.163757	20548.044922	10602.403320	49.852764
580.982483	718.581604	20296.531250	10490.057617	49.910618
581.324524	712.786072	20058.689453	10386.925781	50.006138
581.666626	716.129639	19880.361328	10287.210938	49.942417
582.008728	716.203918	19754.640625	10223.608398	49.937943
582.350647	718.210144	19643.113281	10169.144531	49.939144
582.692566	718.953125	19559.894531	10111.782227	49.853291
583.034424	726.383362	19495.548828	10066.383789	49.762466
583.376343	717.244141	19459.140625	10023.436523	49.654488
583.718201	720.959290	19375.029297	10020.686523	49.853611
584.059937	715.683777	19305.703125	9977.219727	49.819939
584.401611	721.107910	19219.736328	9924.762695	49.753170
584.743347	719.770447	19132.728516	9855.141602	49.613811
585.085022	710.928406	19015.775391	9810.114258	49.709156
585.426514	713.008972	18966.587891	9776.083008	49.650948
585.768127	702.978027	18893.548828	9744.727539	49.705700
586.109619	704.166809	18840.570313	9706.313477	49.635784
586.451172	707.436218	18766.490234	9650.809570	49.522930
586.792542	715.832458	18754.601563	9605.707031	49.282047
587.133850	721.330872	18695.603516	9586.016602	49.318741
587.475220	726.977844	18638.539063	9595.453125	49.512581
587.816589	732.104675	18572.783203	9586.908203	49.632664
588.157776	738.791992	18642.406250	9594.561523	49.463589
588.498962	734.928223	18723.468750	9604.221680	49.305237
588.840210	718.581726	18787.146484	9623.540039	49.284260
589.181335	714.049133	18815.306641	9665.000977	49.449337
589.522400	717.095520	18847.183594	9689.446289	49.488731
589.863403	728.538269	18908.482422	9701.557617	49.356697
590.204407	739.312073	18912.419922	9688.480469	49.244015
590.545410	734.556702	18989.767578	9702.450195	49.125114
590.886353	739.237793	18991.626953	9728.975586	49.252392
591.227112	727.572266	19005.150391	9717.680664	49.186543
591.567932	724.748718	18936.716797	9668.046875	49.106705
591.908752	717.021240	18858.478516	9626.808594	49.112854
592.249512	719.696106	18850.304688	9636.171875	49.179127
592.590149	717.467102	18766.193359	9605.335938	49.243748
592.930786	719.101746	18731.119141	9572.791992	49.154350
593.271423	715.386536	18614.910156	9501.311523	49.084686
593.612000	724.451477	18542.167969	9456.135742	49.005630
593.952576	725.863281	18481.314453	9424.854492	48.993355
594.292969	732.624817	18481.908203	9410.663086	48.892330
594.633484	724.748718	18497.289063	9431.319336	48.988888
594.973877	728.686768	18568.025391	9466.612305	48.981224
595.314209	716.872620	18664.398438	9524.197266	49.072639
595.654480	720.067627	18874.080078	9604.889648	48.941372
595.994812	712.265930	19041.556641	9727.191406	49.183167
596.335022	719.473328	19233.927734	9801.048828	49.051270
596.675171	719.919128	19371.982422	9869.629883	49.054688
597.015320	726.309082	19565.392578	9887.537109	48.628841
597.355408	726.309082	19714.593750	9938.582031	48.515564
597.695496	731.956055	19856.361328	9990.446289	48.411911
598.035461	728.389587	19919.445313	10005.157227	48.339016
598.375366	725.640381	19926.205078	10016.600586	48.388992
598.715271	718.284424	19885.562500	9999.437500	48.421867
599.055176	726.011902	19765.638672	9971.276367	48.558014
599.395081	722.965515	19600.166016	9891.995117	48.571976
599.734802	730.395691	19329.925781	9768.282227	48.592018
600.074524	723.411316	19013.025391	9605.856445	48.565517
600.414246	726.383362	18602.130859	9414.081055	48.600468
600.753906	718.878845	18198.146484	9225.351563	48.666069
601.093506	718.358704	17808.728516	9048.584961	48.742226
601.433044	719.473145	17564.865234	8930.518555	48.743565
601.772583	719.101746	17406.154297	8847.002930	48.707832
602.112122	720.067688	17364.173828	8792.910156	48.502712
602.451538	724.005676	17329.326172	8758.878906	48.387341
602.790894	720.885010	17364.396484	8782.358398	48.436134
603.130310	721.702332	17477.560547	8854.655273	48.537971
603.469604	715.312317	17678.474609	8951.842773	48.555393
603.808838	718.953125	17945.222656	9040.932617	48.309818
604.148010	710.928406	18239.386719	9153.797852	48.166637
604.487305	727.200684	18511.705078	9255.518555	47.953648
604.826416	733.293518	18744.423828	9359.616211	47.894394
605.165527	737.900330	18920.373047	9455.245117	47.943668
605.504456	720.141907	19116.826172	9564.840820	48.077682
605.843445	713.974854	19249.978516	9640.777344	48.159264
606.182434	716.055359	19339.662109	9660.096680	48.025288
606.521423	724.080078	19294.708984	9624.952148	47.929836
606.860229	731.584656	19137.556641	9555.627930	47.941193
607.199036	728.018066	18946.896484	9472.631836	47.997540
607.537903	725.268799	18760.322266	9375.220703	47.961891
607.876648	716.946960	18534.515625	9245.858398	47.867985
608.215271	723.039795	18198.445313	9107.358398	47.977818
608.553955	723.188477	17846.027344	8960.016602	48.104336
608.892578	728.315247	17574.304688	8832.661133	48.108456
609.231140	722.965515	17449.177734	8732.874023	47.888359
609.569641	721.256531	17360.087891	8657.233398	47.695518
609.908081	723.188416	17304.583984	8629.963867	47.684616
610.246521	722.371094	17280.658203	8623.128906	47.714825
610.584961	725.789001	17321.673828	8630.112305	47.628212
610.923340	721.627991	17359.419922	8641.407227	47.601147
611.261597	730.841553	17356.447266	8615.994141	47.427761
611.599854	721.479431	17274.044922	8593.778320	47.559383
611.938110	718.210144	17210.666016	8553.505859	47.508366
612.276245	715.089355	17022.826172	8471.921875	47.565353
612.614319	721.107910	16790.630859	8336.170898	47.388233
612.952393	714.569275	16469.123047	8183.404785	47.407471
613.290466	715.386658	16175.851563	8054.415527	47.469650
613.628479	716.872620	15848.176758	7920.744141	47.609062
613.966370	725.863281	15568.502930	7784.770020	47.558296
614.304260	724.154297	15320.776367	7659.792969	47.515369
614.642151	724.748779	15107.304688	7549.304688	47.450230
614.979980	725.714661	14902.598633	7463.411621	47.525936
615.317749	729.355469	14699.159180	7362.062500	47.478886
615.655396	730.024231	14608.359375	7292.218262	47.283726
615.993164	724.674500	14512.137695	7239.537109	47.252079
616.330811	722.371094	14456.411133	7230.026855	47.383404
616.668396	719.176025	14373.489258	7203.946777	47.492470
617.005859	722.593994	14347.187500	7178.311035	47.382820
617.343445	729.132629	14348.375000	7150.150879	47.146664
617.680908	734.333801	14375.718750	7172.738770	47.197590
618.018311	742.209900	14416.734375	7177.419922	47.059845
618.355652	730.915833	14450.393555	7183.513184	47.032383
618.692993	735.745544	14470.008789	7177.048340	46.899513
619.030273	732.179016	14470.676758	7180.169434	46.933735
619.367554	737.454407	14476.843750	7189.679688	46.961514
619.704712	724.748718	14466.516602	7184.553223	47.008541
620.041870	727.126404	14456.413086	7162.262207	46.871593
620.379028	724.600098	14406.926758	7125.482422	46.782120
620.716064	724.228577	14375.347656	7102.002441	46.719788
621.053040	714.792175	14327.050781	7084.095703	46.790939
621.389954	712.934570	14258.765625	7085.136230	47.041794
621.726929	715.163635	14162.618164	7045.681152	47.075954
622.063843	717.987244	14088.092773	7016.925781	47.112106
622.400635	714.123535	14051.684570	6957.484375	46.810364
622.737427	718.284424	14035.856445	6935.564453	46.684788
623.074219	717.615723	13998.781250	6903.911621	46.579464
623.410889	724.377197	13928.862305	6880.877441	46.624310
623.747559	719.324646	13874.769531	6846.326660	46.573883
624.084167	727.572205	13827.661133	6831.541016	46.594864
624.420715	726.011902	13809.085938	6830.352051	46.658302
624.757324	730.172852	13787.093750	6844.023438	46.824596
625.093750	723.262695	13843.340820	6854.128906	46.728886
625.430176	729.281250	13899.588867	6860.296387	46.551800
625.766602	737.900330	13938.448242	6869.509766	46.449657
626.102905	743.101563	13974.484375	6886.895996	46.433502
626.439209	744.290344	14036.007813	6910.152832	46.388756
626.775452	733.219238	14167.523438	6937.347656	46.181240
627.111694	723.559875	14232.909180	6951.167969	46.098503
627.447876	715.015137	14303.942383	6989.434082	46.173023
627.783997	713.306152	14352.387695	7005.260254	46.131802
628.120056	717.392761	14423.198242	7059.278809	46.271530
628.456055	719.027344	14488.734375	7071.613281	46.134502
628.792053	715.683777	14458.121094	7072.133301	46.254166
629.128052	713.157532	14384.932617	7023.390625	46.155182
629.463928	715.535217	14279.347656	6983.192871	46.208672
629.799744	721.925232	14197.317383	6933.558594	46.096123
630.135559	723.559875	14083.782227	6855.095215	45.893959
630.471375	715.015076	13957.692383	6765.560059	45.689739
630.807068	720.142029	13771.268555	6690.216309	45.743744
631.142700	729.281250	13648.593750	6636.569824	45.724480
631.478333	731.658936	13482.377930	6581.289063	45.876865
631.813965	723.485596	13364.905273	6541.759766	46.025482
632.149475	711.968689	13221.574219	6464.856934	45.987766
632.484924	714.197754	13116.881836	6416.337402	45.975048
632.820435	716.501038	13039.383789	6344.041016	45.667400
633.155884	718.730164	12962.554688	6326.728027	45.802666
633.491150	729.355469	12900.289063	6313.204590	45.878559
633.826477	727.200684	12847.312500	6296.783691	45.953232
634.161804	734.110840	12788.463867	6255.621094	45.805115
634.497009	725.491699	12729.691406	6185.553223	45.484596
634.832153	724.674377	12618.237305	6135.695313	45.495377
635.167297	718.804504	12542.225586	6118.457031	45.669121
635.502380	718.358704	12446.002930	6083.609375	45.748749
635.837463	726.903503	12387.006836	6042.743652	45.589993
636.172424	727.943787	12278.450195	5998.830078	45.633377
636.507324	722.073792	12200.877930	5968.812012	45.708057
636.842224	716.203918	12102.575195	5907.437500	45.591640
637.177124	715.758118	11998.997070	5835.438965	45.374210
637.511963	722.593933	11879.445313	5773.618652	45.272854
637.846741	721.627991	11756.176758	5710.907715	45.215076
638.181396	726.234802	11641.898438	5639.130859	45.007763
638.516113	728.835449	11537.950195	5590.759766	44.979855
638.850769	726.903564	11430.731445	5547.664063	45.037727
639.185303	720.885010	11349.295898	5520.470215	45.158066
639.519836	720.141907	11274.620117	5466.748535	44.972439
639.854370	720.810730	11189.692383	5436.953125	45.049152
640.188843	723.114075	11078.386719	5390.216309	45.069813
640.523254	717.169861	10956.085938	5368.743164	45.430328
640.857605	720.439209	10862.983398	5320.446777	45.353592
641.191895	716.501160	10794.031250	5285.152832	45.335033
641.526184	716.501160	10733.844727	5240.719238	45.163853
641.860413	710.779785	10692.161133	5224.000977	45.216400
642.194580	713.603333	10605.970703	5202.082031	45.373150
642.528748	716.501160	10542.886719	5155.865723	45.178001
642.862793	724.451477	10479.284180	5112.770020	44.986095
643.196838	727.795105	10452.386719	5065.513184	44.605659
643.530823	728.018066	10388.932617	5065.810547	44.900436
643.864746	725.268860	10319.384766	5039.061523	44.962894
644.198669	722.148132	10255.485352	5020.188965	45.084328
644.532532	724.748779	10196.117188	4972.338379	44.846634
644.866333	728.018066	10164.315430	4959.706543	44.844799
645.200073	733.293518	10131.027344	4956.660156	44.940269
645.533813	728.835388	10096.922852	4941.056152	44.963505
645.867554	725.045898	10064.898438	4924.041016	44.957832
646.201172	718.358704	10048.551758	4885.403809	44.661934
646.534729	726.383484	10089.864258	4885.478027	44.418255
646.868225	723.485657	10096.848633	4890.827637	44.459408
647.201782	725.789063	10097.071289	4905.614258	44.602489
647.535217	723.039795	10098.779297	4913.267578	44.692238
647.868591	734.408142	10112.600586	4913.638672	44.563282
648.201965	737.751709	10150.124023	4906.654785	44.291740
648.535278	737.231628	10135.633789	4891.422363	44.201035
648.868591	728.909729	10139.497070	4875.373047	44.061687
649.201782	722.519714	10101.826172	4875.150391	44.274391
649.534912	718.210144	10081.245117	4860.215332	44.237850
649.868103	716.426819	10013.925781	4838.073242	44.330700
650.201172	717.912903	9971.424805	4812.438965	44.248348
650.534180	717.541443	9941.480469	4800.030273	44.259708
650.867188	725.045959	9912.949219	4780.562988	44.139744
651.200134	725.120300	9872.007813	4763.695801	44.152454
651.533020	724.154297	9806.472656	4731.448730	44.121933
651.865845	726.531982	9763.526367	4715.324707	44.138489
652.198608	733.813660	9727.266602	4691.325195	44.004360
652.531433	742.432800	9688.257813	4686.718750	44.090801
652.864136	731.510315	9663.291992	4662.050293	44.006229
653.196777	1345.102173	10317.602539	5292.063477	43.989540
653.529358	1369.027466	10284.016602	5286.267578	43.939934
653.861938	1371.851074	10223.534180	5259.741699	43.922611
654.194519	751.200500	9449.671875	4559.363281	43.779678
654.526978	720.959412	9408.433594	4523.698730	43.772667
654.859375	717.169922	9342.155273	4496.652344	43.820160
655.191833	717.764343	9319.195313	4498.509766	43.954842
655.524170	713.306152	9261.313477	4452.739746	43.746258
655.856445	721.033691	9219.110352	4432.974609	43.679779
656.188660	748.302734	9201.648438	4445.531738	43.736874
656.520874	753.058105	9148.299805	4436.243652	43.872295
656.853088	746.816589	9141.537109	4422.943848	43.790939
657.185181	719.919128	9105.797852	4381.928223	43.668755
657.517212	717.764343	9140.051758	4375.538574	43.429703
657.849243	729.429871	9158.330078	4391.885254	43.451164
658.181274	734.408020	9214.428711	4430.151367	43.581776
658.513123	731.361633	9262.206055	4456.974609	43.672264
658.844971	721.702332	9343.195313	4495.017578	43.766376
659.176819	715.238037	9426.414063	4504.082520	43.494064
659.508667	714.792175	9509.782227	4534.397949	43.429333
659.840393	713.231873	9559.788086	4552.898926	43.402954
660.172058	712.785950	9608.382813	4574.149902	43.407589
660.503662	719.621826	9661.062500	4576.602051	43.136005
660.835266	721.330811	9709.359375	4572.663574	42.849583
661.166931	722.148132	9681.644531	4550.446777	42.728951
661.498413	724.525818	9632.159180	4542.645020	42.863449
661.829773	726.680603	9528.803711	4509.580566	42.977131
662.161194	727.572266	9425.597656	4471.909180	43.048126
662.492615	721.256531	9290.811523	4415.662109	43.110821
662.823975	729.132629	9148.001953	4361.420898	43.144611
663.155212	730.470032	8983.644531	4290.016113	43.129417
663.486450	731.064514	8814.085938	4198.995605	42.903896
663.817627	722.073792	8679.152344	4120.977539	42.715473
664.148743	719.027405	8549.567383	4053.807617	42.586849
664.479858	720.513489	8419.463867	4016.359375	42.809032
664.810913	720.513489	8315.514648	3977.424805	42.882305
665.141907	722.742493	8229.917969	3941.536377	42.876232
665.472778	725.120178	8173.076172	3915.307861	42.833065
665.803711	727.943787	8125.002441	3895.096924	42.816383
666.134583	724.748718	8085.770996	3877.784912	42.834213
666.465454	726.754883	8063.109375	3850.366943	42.577168
666.796143	727.349304	7998.687988	3815.667725	42.472485
667.126831	727.720886	7996.830566	3810.392334	42.407825
667.457458	727.200745	7951.505371	3796.051758	42.479534
667.788147	724.302917	7939.021973	3793.822998	42.545246
668.118774	725.343079	7880.917969	3776.584717	42.641464
668.449219	724.302917	7887.605469	3774.355469	42.578857
668.779663	729.727051	7885.524902	3764.250000	42.406494
669.110107	734.110840	7875.493652	3762.541260	42.406780
669.440552	727.052063	7826.008301	3749.018311	42.569164
669.770874	724.674500	7799.779297	3729.922119	42.476368
670.101135	720.067688	7791.753906	3706.442627	42.230026
670.431396	723.411316	7783.433105	3682.740234	41.916710
670.761597	722.519714	7736.622559	3662.604248	41.916756
671.091797	721.479431	7677.552246	3650.121094	42.101940
671.421875	717.169861	7616.919922	3633.477539	42.266861
671.751892	715.386536	7584.003906	3613.638672	42.195572
672.081909	714.940735	7572.636230	3590.530518	41.932308
672.411865	718.878845	7543.509277	3570.691406	41.787060
672.741821	719.919128	7490.754395	3536.883545	41.604385
673.071716	717.689941	7448.921875	3513.255127	41.531258
673.401550	719.621826	7420.092285	3495.571289	41.429173
673.731262	713.529053	7399.659668	3498.617920	41.654716
674.060974	718.210144	7312.205078	3478.853516	41.866020
674.390625	714.494934	7268.292480	3471.646240	42.069523
674.720276	721.182190	7229.283203	3441.479248	41.798630
675.049927	720.290527	7207.661621	3429.739014	41.764969
675.379395	723.114075	7173.407715	3396.526123	41.446365
675.708923	720.216309	7119.761230	3390.359131	41.723949
676.038330	726.309082	7089.891113	3370.148438	41.546402
676.367737	730.990173	7051.031250	3353.430420	41.494038
676.697083	738.049011	7018.189453	3338.049805	41.400360
677.026428	749.937317	6980.592285	3318.062500	41.217583
677.355652	745.256348	6934.078613	3291.610596	41.144409
677.684875	745.627869	6943.812500	3278.162109	40.859291
678.013977	729.652649	6933.335938	3276.601563	41.055431
678.343079	730.024170	6956.071777	3289.604492	41.110836
678.672180	723.336975	6926.722656	3280.613525	41.223885
679.001221	716.946960	6973.979980	3288.341064	41.096058
679.330139	715.163757	6996.790527	3299.709717	41.144531
679.659058	716.203918	7044.566406	3315.684814	41.076675
679.987976	719.993347	7046.572754	3322.446045	41.135223
680.316772	715.832458	7090.411621	3332.328369	41.045784
680.645630	711.448547	7123.179199	3348.303467	41.125481
680.974304	720.141907	7189.011719	3356.402344	40.753033
681.302979	724.525818	7207.884277	3367.622070	40.767391
681.631653	723.188416	7236.861816	3364.873047	40.555988
681.960266	715.015137	7254.545410	3382.111328	40.784218
682.288757	717.987244	7276.613281	3384.117432	40.650742
682.617249	720.216309	7282.929688	3383.003174	40.574482
682.945679	722.965515	7261.232910	3364.501221	40.401154
683.274109	722.891174	7239.388184	3367.622314	40.585167
683.602478	727.052063	7192.355469	3346.148682	40.510036
683.930725	728.686768	7116.863281	3310.706299	40.418724
684.259033	725.566101	7032.381348	3269.171143	40.331051
684.587280	722.148132	6962.981934	3241.233398	40.364559
684.915344	721.850891	6906.363281	3223.846436	40.455830
685.243469	727.275085	6849.596191	3194.942627	40.306076
685.571533	730.544373	6776.928223	3175.326904	40.433796
685.899536	724.748718	6705.597656	3147.463135	40.507866
686.227539	717.541321	6627.505859	3113.655518	40.543633
686.555420	715.535156	6603.654785	3077.098633	40.107262
686.883301	712.786072	6589.313965	3069.593750	40.105446
687.211121	720.216309	6574.453613	3065.135742	40.055080
687.538940	725.194580	6548.818848	3077.098389	40.385571
687.866638	730.544434	6535.815918	3065.581787	40.222706
688.194336	723.634216	6539.679199	3049.309326	39.987225
688.521973	719.101746	6540.645996	3033.780273	39.760555
688.849609	723.114075	6531.357910	3030.213867	39.721127
689.177063	720.587830	6532.621094	3037.272217	39.860134
689.504578	718.655945	6494.206543	3019.811279	39.843044
689.832031	715.312317	6466.490723	2992.913330	39.602337
690.159485	721.702332	6384.386719	2962.152344	39.565155
690.486816	728.166687	6310.753418	2919.799805	39.258377
690.814087	729.949951	6236.524902	2887.626221	39.183636
691.141296	730.470032	6134.878418	2857.682373	39.360691
691.468506	727.869385	6032.563965	2832.345459	39.671959
691.795715	720.364807	5894.286621	2778.475830	39.778549
692.122803	725.937561	5824.292969	2724.012207	39.190571
692.449829	718.284424	5768.492188	2698.823486	39.216980
692.776855	718.135803	5720.566406	2681.882568	39.255852
693.103821	710.036865	5652.951172	2662.415039	39.498524
693.430664	712.786072	5572.480469	2626.006836	39.369156
693.757568	721.182190	5517.273438	2605.573486	39.290146
694.084351	719.621887	5463.775879	2580.162109	39.217537
694.411133	725.120300	5415.256348	2564.038330	39.208199
694.737854	720.141907	5360.792480	2534.465820	39.096329
695.064575	725.863281	5333.375000	2516.559082	38.864704
695.391174	722.371094	5330.849121	2514.849854	38.895245
695.717773	725.937561	5303.356934	2507.122314	38.912422
696.044250	721.627991	5279.951660	2505.041992	39.124340
696.370789	717.615540	5250.750488	2480.819336	38.895905
696.697205	717.467041	5273.858398	2486.763428	38.831085
697.023621	719.324524	5319.852051	2489.809814	38.484402
697.349915	726.903503	5384.718262	2510.540283	38.293423
697.676208	722.593994	5457.312012	2528.150146	38.134399
698.002380	722.891113	5511.850098	2565.524658	38.476704
698.328674	720.884949	5598.338379	2601.412842	38.555523
698.654724	723.559875	5688.318848	2634.402832	38.488132
698.980896	726.234863	5786.250000	2653.127197	38.080761
699.306946	726.680664	5867.611816	2683.888428	38.071075
699.632935	729.875671	5940.650879	2702.092773	37.848820
699.958862	722.519714	5995.932129	2726.092285	37.993851
700.284729	720.142029	6013.467285	2716.953125	37.723186
700.610596	714.569275	5989.244629	2715.169922	37.928413
700.936340	712.414551	5913.529785	2689.906982	38.020546
701.262146	710.631287	5797.469238	2660.037354	38.322552
701.587830	711.745789	5660.158203	2623.926025	38.642296
701.913513	708.922180	5525.595703	2566.193115	38.559208
702.239075	712.265869	5391.776855	2508.013916	38.374695
702.564697	713.528992	5268.954590	2452.435547	38.172207
702.890137	721.405090	5120.869629	2400.720947	38.170918
703.215698	715.163757	4998.492676	2364.461182	38.505035
703.541016	708.773621	4888.673340	2305.241943	38.193935
703.866455	712.191589	4824.624512	2268.387695	37.841248
704.191711	722.668274	4759.163574	2237.477783	37.527840
704.517029	726.532043	4677.579102	2205.230469	37.425484
704.842163	731.213074	4623.263672	2196.091309	37.637695
705.167419	729.132568	4572.143555	2174.543457	37.611416
705.492493	735.894226	4547.103516	2170.085205	37.630863
705.817566	724.302917	4484.020996	2128.550049	37.349796
706.142578	725.343201	4457.123047	2110.197510	37.109753
706.467590	722.668274	4429.705566	2102.767090	37.229160
706.792480	724.451477	4427.401855	2111.088867	37.446827
707.117371	721.627991	4429.036621	2109.677246	37.439880
707.442200	727.497864	4436.838379	2120.525391	37.554588
707.766907	726.829163	4446.646484	2117.033203	37.372913
708.091675	719.250305	4421.829102	2105.739258	37.446575
708.416321	710.928467	4397.978027	2086.791992	37.316113
708.741028	714.346375	4399.241211	2094.296631	37.448837
709.065552	719.696106	4425.172852	2100.166260	37.254860
709.390137	722.073914	4463.438965	2096.971436	36.748550
709.714600	723.039795	4480.454590	2084.414307	36.231682
710.039063	725.640381	4507.277344	2095.708252	36.229492
710.363403	726.754944	4538.187012	2120.822510	36.575954
710.687744	722.742615	4583.437500	2145.862549	36.861755
711.012085	725.789001	4619.103027	2162.209229	36.894539
711.336304	721.553711	4655.957031	2166.370117	36.722630
711.660461	722.742493	4700.910156	2176.549561	36.544640
711.984619	722.668274	4731.374512	2185.020020	36.479397
712.308716	728.240906	4767.039551	2199.732178	36.433884
712.632751	727.943665	4769.863281	2205.750488	36.562004
712.956726	720.884949	4776.401855	2194.753906	36.342319
713.280701	724.525879	4743.931641	2180.264648	36.217762
713.604553	724.080078	4706.037109	2161.168945	36.090015
713.928467	725.863281	4656.180176	2149.503174	36.222012
714.252258	722.371094	4577.567383	2119.856689	36.249401
714.575989	721.182190	4518.348145	2084.711426	35.909130
714.899719	723.485657	4437.878418	2052.909912	35.791161
715.223267	720.439148	4388.987793	2033.591187	35.794868
715.546936	726.457703	4331.997559	2032.030762	36.210194
715.870422	724.377258	4301.607422	2022.371460	36.284893
716.193970	724.005676	4279.762207	2016.204224	36.341026
716.517395	721.627991	4262.970215	1994.953613	35.956017
716.840820	722.222412	4225.893066	1972.885742	35.695801
717.164124	720.439148	4169.645996	1949.703247	35.639038
717.487488	717.021240	4119.045898	1930.533203	35.670288
717.810730	716.501160	4096.383301	1921.393921	35.648960
718.133972	714.197754	4067.256592	1909.505493	35.648277
718.457092	715.758118	4029.362305	1897.394165	35.660141
718.780212	713.454773	3969.548828	1886.174438	36.016151
719.103210	715.758118	3912.781250	1863.214966	35.891411
719.426208	712.637390	3836.621094	1835.203003	35.933788
719.749207	722.965515	3797.983398	1811.500366	35.399303
720.072083	722.965515	3753.402100	1796.713989	35.432140
720.394958	729.132629	3716.696533	1779.996094	35.174595
720.717773	718.507324	3643.508545	1740.466919	34.938774
721.040527	720.216309	3610.666748	1718.696289	34.544098
721.363281	718.135803	3577.007568	1708.813965	34.652767
721.685913	721.107910	3556.574219	1708.888306	34.836613
722.008545	720.885010	3532.722900	1705.841797	35.028931
722.331055	715.312317	3495.719971	1688.009155	34.983963
722.653503	711.745789	3465.404541	1683.179565	35.277931
722.976013	709.442383	3442.890625	1669.805054	35.133743
723.298401	713.751953	3441.181641	1665.644043	34.900700
723.620789	713.826233	3428.550537	1650.040405	34.486526
723.943115	712.340149	3417.925049	1642.461548	34.377831
724.265381	715.758118	3393.776611	1646.399780	34.751129
724.587585	720.290527	3382.185547	1655.018921	35.115150
724.909790	720.736328	3366.730469	1658.436646	35.438488
725.231873	719.250305	3370.148438	1650.189087	35.117863
725.553894	725.343201	3385.529297	1639.563965	34.366798
725.875916	932.424866	3603.310547	1837.060547	33.870251
726.197937	939.855164	3617.130615	1844.565063	33.792187
726.519775	928.189636	3614.307373	1854.744507	34.494202
726.841675	714.717834	3401.578857	1654.498657	34.976906
727.163513	704.612732	3411.757813	1646.845581	34.805408
727.485291	713.454773	3416.959229	1650.634888	34.665382
727.806946	735.968445	3463.472656	1650.412109	33.526756
728.128662	739.386414	3480.562500	1663.489380	33.711918
728.450256	743.770203	3511.323486	1669.656616	33.455055
728.771790	734.928223	3512.438232	1678.647095	33.977154
729.093323	742.507080	3528.413086	1679.167114	33.621380
729.414795	734.185120	3534.803467	1682.139282	33.848030
729.736145	731.807434	3525.812500	1666.312866	33.446804
730.057495	723.782776	3518.010986	1665.272461	33.694088
730.378845	718.210144	3515.930420	1654.795898	33.476749
730.700134	720.810730	3505.082275	1664.455200	33.891972
731.021301	725.491699	3506.791260	1667.650269	33.874760
731.342468	734.408142	3502.555908	1668.913452	33.759228
731.663574	733.962341	3514.147217	1672.034180	33.741348
731.984680	728.166687	3503.224609	1657.173462	33.477024
732.305664	724.005676	3506.271484	1650.783569	33.310184
732.626648	718.878845	3522.171875	1645.136597	33.041775
732.947571	709.219421	3550.778564	1652.492554	33.195618
733.268433	712.860291	3569.205811	1649.594727	32.794857
733.589233	715.758118	3569.874268	1649.074585	32.700718
733.909973	731.584656	3550.629883	1639.043579	32.190292
734.230713	731.956055	3517.342529	1633.173828	32.355213
734.551331	732.476257	3468.153564	1625.074829	32.628067
734.871948	727.720886	3421.268799	1605.384644	32.583931
735.192505	725.194580	3373.417969	1590.152466	32.661816
735.513062	727.052063	3332.402588	1570.090820	32.357979
735.833435	723.114075	3281.579834	1561.471680	32.767982
736.153931	719.993347	3234.620361	1539.923950	32.606449
736.474304	715.758057	3185.803467	1519.119141	32.524143
736.794617	724.451477	3155.933838	1508.939819	32.263790
737.114807	726.829285	3131.414063	1510.723022	32.599964
737.434998	723.262695	3116.479248	1515.701172	33.111858
737.755188	716.649719	3117.816406	1500.320679	32.637089
738.075256	717.244141	3117.816406	1497.348511	32.496601
738.395325	715.609558	3112.466797	1485.980103	32.140862
738.715271	717.912903	3114.770264	1495.862305	32.457058
739.035278	714.717834	3128.813232	1493.410522	32.256084
739.355164	714.569275	3157.568359	1490.438354	31.758879
739.675049	711.448547	3161.432373	1497.422852	32.080795
739.994873	717.615723	3158.014404	1503.887085	32.218971
740.314636	723.114075	3147.686279	1510.425781	32.472191
740.634277	729.132568	3138.398438	1496.011108	31.830383
740.953979	727.052063	3128.292969	1479.367188	31.330263
741.273499	734.482361	3122.200195	1477.212280	31.106270
741.593140	732.847839	3096.714600	1468.296021	31.112083
741.912598	733.888000	3059.563232	1458.636719	31.162937
742.232117	723.114197	3002.870117	1437.311890	31.327814
742.551453	718.804504	2938.524170	1425.274780	31.827003
742.870850	715.015137	2907.985596	1414.723755	31.906887
743.190063	708.996582	2866.598877	1405.956055	32.302498
743.509338	710.779785	2857.088135	1389.237915	31.610468
743.828552	719.844727	2823.875000	1386.637329	31.691208
744.147705	732.624817	2804.630127	1379.652954	31.227146
744.466797	736.191406	2771.045654	1380.395874	31.658506
744.785828	731.956055	2737.238281	1366.129883	31.625166
745.104858	730.321472	2714.873047	1350.154785	31.232916
745.423706	729.801331	2694.736816	1339.975220	31.053125
745.742615	733.516418	2687.009277	1329.201294	30.493322
746.061401	744.959045	2670.959961	1320.730835	29.894678
746.380249	741.095398	2670.662598	1307.207886	29.338833
746.698975	728.315247	2658.476807	1300.074707	29.622362
747.017639	713.974854	2644.582764	1291.901489	29.934956
747.336304	711.894348	2621.771484	1296.359497	30.602238
747.654907	719.621826	2612.855225	1292.198608	30.243328
747.973389	721.925293	2613.969971	1298.662964	30.482244
748.291931	721.776672	2615.604492	1297.399780	30.394690
748.610352	712.265930	2606.465088	1296.062378	30.820225
748.928711	713.751953	2623.703369	1299.108765	30.647734
749.247070	724.005798	2630.985107	1293.758911	29.877258
749.565308	731.287415	2623.554688	1289.523804	29.500927
749.883545	724.525879	2588.483887	1283.579590	29.992828
750.201782	715.683838	2570.725342	1276.149292	30.213095
750.519836	716.946960	2571.096924	1278.824097	30.303761
750.837952	718.433044	2554.527588	1269.982056	30.039249
751.155884	721.925232	2537.660889	1278.229736	30.637968
751.473877	712.934570	2521.016846	1270.279175	30.825180
751.791809	714.940735	2514.998535	1269.759155	30.822254
752.109619	712.191589	2510.317627	1251.777832	30.008255
752.427490	718.358704	2504.224609	1253.932739	29.989599
752.745300	724.748718	2511.803467	1251.406372	29.470707
753.062988	729.429871	2511.060547	1248.434204	29.130861
753.380615	731.213074	2498.503418	1238.774902	28.719776
753.698303	722.445313	2485.351807	1239.220703	29.313829
754.015808	721.850891	2474.429443	1238.552002	29.482336
754.333374	725.863281	2477.846924	1242.118530	29.466900
754.650757	726.903503	2475.097900	1233.053711	28.952744
754.968262	722.148132	2479.110352	1233.945313	29.129663
755.285583	716.872742	2474.132080	1228.075317	29.090902
755.602905	722.445313	2465.215576	1226.143555	28.902159
755.920105	725.343079	2443.147705	1218.341675	28.699339
756.237305	729.727051	2424.126221	1217.970215	28.815121
756.554443	731.361633	2416.398682	1218.564575	28.913485
756.871582	727.795166	2417.141846	1214.775024	28.826521
757.188599	727.275085	2409.414307	1208.459595	28.605511
757.505615	727.497864	2421.822754	1207.047729	28.303299
757.822510	729.875671	2434.082764	1213.512085	28.378971
758.139465	725.789063	2465.587158	1225.251953	28.708096
758.456238	718.061523	2472.348633	1227.109497	29.017370
758.773010	720.513489	2478.515869	1231.418945	29.061703
759.089783	732.030334	2491.296143	1224.657593	28.001865
759.406433	737.008789	2504.967773	1227.109497	27.721272
759.723145	731.287415	2508.757080	1231.121826	28.120558
760.039673	727.349304	2514.404053	1240.706909	28.726463
760.356201	728.463867	2516.113037	1241.375610	28.691969
760.672668	736.562805	2520.348389	1239.220825	28.179283
760.989136	727.795166	2511.951904	1240.335327	28.727306
761.305481	716.649719	2506.304932	1229.710083	28.668112
761.621826	710.705566	2515.221436	1232.756470	28.930246
761.938049	720.216309	2533.648682	1228.818359	28.046375
762.254333	733.070618	2553.190186	1251.109253	28.461790
762.570496	731.807434	2590.118408	1254.750122	28.140751
762.886597	721.107910	2643.095947	1268.421753	28.476444
763.202637	716.723938	2734.117188	1284.248169	28.131561
763.518677	715.906738	2846.760010	1322.811279	28.481762
763.834656	719.250305	2981.619873	1352.606812	27.995272
764.150574	717.021301	3111.575195	1389.089478	28.066528
764.466370	721.330750	3220.800049	1408.779663	27.503796
764.782288	719.027405	3278.384766	1422.674316	27.493109
765.097961	724.154297	3312.118408	1418.290405	26.821705
765.413696	725.937500	3282.917236	1403.578491	26.501617
765.729309	732.699036	3219.834229	1388.049194	26.349598
766.044861	728.463867	3099.612061	1353.275513	26.350594
766.360474	723.708496	2950.709717	1317.312988	26.654879
766.675903	723.708496	2797.868896	1277.486694	26.698910
766.991394	720.959290	2659.962891	1241.598511	26.850863
767.306763	727.720764	2558.762451	1224.360229	27.123329
767.622131	722.148132	2479.407471	1199.840332	27.183933
767.937378	725.863281	2415.804443	1189.512207	27.435802
768.252625	725.417480	2356.139404	1174.280151	27.525396
768.567810	723.485535	2308.883057	1157.264771	27.360914
768.882996	726.754883	2265.787354	1145.005005	27.176172
769.197998	728.686768	2229.081787	1122.491211	26.246717
769.513062	729.578430	2183.459717	1123.160034	27.071095
769.828064	728.909668	2143.039063	1115.358154	27.327662
770.142944	724.302979	2117.850342	1111.568726	27.789923
770.457825	724.748718	2097.045898	1105.773071	27.765442
770.772705	717.021240	2072.897217	1094.999146	27.877026
771.087402	722.296692	2055.807617	1088.014771	27.425201
771.402100	724.823059	2026.160767	1070.925171	26.595873
771.716736	730.841614	2004.464478	1068.324585	26.497875
772.031372	726.903503	1976.229492	1064.535034	27.025097
772.345947	725.120300	1967.090210	1062.900391	27.197123
772.660461	720.141907	1944.204956	1054.950073	27.352201
772.974854	719.696106	1933.802612	1050.491821	27.246023
773.289246	716.575439	1914.632446	1047.073853	27.586201
773.603638	713.826233	1901.703735	1044.844849	27.866394
773.917908	704.464050	1886.026001	1036.300049	28.084518
774.232178	706.395935	1873.691772	1034.070923	28.071287
774.546265	708.402100	1862.992188	1031.916138	28.019817
774.860474	715.683777	1851.846680	1035.854370	28.179991
775.174561	720.587830	1846.942749	1028.572632	27.343494
775.488586	724.377258	1846.125366	1023.297119	26.647682
775.802551	725.045959	1828.367065	1016.312683	26.399090
776.116516	725.045959	1816.478516	1009.922607	26.101168
776.430359	725.863281	1814.323853	1006.578918	25.790152
776.744202	728.463867	1813.358032	997.959778	24.840755
777.057922	724.823059	1798.571777	1001.749329	25.790602
777.371704	727.349365	1778.955688	994.541931	25.408041
777.685303	728.018066	1767.661743	996.102295	25.786165
777.998962	732.624817	1750.646362	981.093079	24.406975
778.312500	732.030457	1737.643188	979.904297	24.649036
778.626038	728.315247	1727.315430	976.040527	24.797321
778.939453	728.018066	1740.392578	980.350098	24.924770
779.252869	732.030457	1753.767212	984.362488	24.696384
779.566223	725.194580	1755.104492	976.857910	24.435471
779.879578	723.782898	1749.903320	987.334534	25.684280
780.192749	713.974792	1730.807617	988.820618	27.029598
780.505920	719.919006	1734.745605	1001.823547	27.778591
780.819031	719.547546	1728.950195	997.068176	27.493551
781.132141	742.804382	1748.120117	1008.065002	26.385801
781.445190	748.822815	1733.036743	996.473816	25.162313
781.758118	753.801086	1729.321655	986.442932	23.847969
782.071045	739.609192	1707.402222	965.266663	23.316708
782.383911	727.720886	1684.665527	956.424622	23.899370
782.696838	719.993347	1661.111694	956.424622	25.122374
783.009583	708.253601	1640.827148	947.211121	25.623451
783.322266	712.785950	1639.043823	948.028503	25.397091
783.634888	713.083191	1631.910645	952.189392	26.022970
783.947510	718.210144	1619.873657	950.257507	25.735472
784.260132	714.569275	1609.174194	952.932434	26.644516
784.572571	715.609558	1601.520874	937.774597	25.077572
784.885010	718.284424	1592.233032	936.139954	24.927729
785.197449	726.754883	1586.437500	932.201965	23.898016
785.509766	735.522644	1585.248657	933.465149	23.294863
785.822083	739.163391	1582.573608	935.322693	23.257875
786.134277	739.609314	1574.994751	936.660156	23.588015
786.446533	731.658875	1568.158813	933.019226	24.071772
786.758606	726.011902	1573.806030	935.322571	24.688856
787.070740	731.064514	1583.167969	935.099792	23.944895
787.382690	730.544373	1588.071899	937.848877	24.174677
787.694641	725.863281	1591.787109	938.889160	24.600996
788.006653	710.556946	1602.858398	939.632141	25.672400
788.318481	718.135803	1629.384399	947.954102	25.220154
788.630310	718.210144	1657.545044	948.399902	24.505611
788.942017	724.525879	1671.216797	946.542297	23.451838
789.253784	717.021301	1684.665527	946.170837	23.681177
789.565430	724.005676	1687.786133	945.353516	22.966625
789.877014	722.668274	1683.476685	949.291565	23.586731
790.188538	719.919006	1668.467407	951.372070	24.400764
790.500061	714.272034	1652.046753	940.300964	24.102690
790.811462	712.785950	1646.325317	930.121582	23.280821
791.122925	711.151367	1625.223511	916.226868	22.435373
791.434204	715.535156	1602.858398	920.610657	23.111702
791.745483	719.844788	1574.251831	922.170959	23.680302
792.056702	715.683777	1552.852539	920.090576	24.416439
792.367920	722.593933	1533.088013	916.672668	23.945732
792.678955	720.587830	1529.075684	904.189880	22.709314
792.990112	722.965515	1513.174805	903.595398	22.858486
793.301086	710.408386	1499.131714	895.199219	23.429108
793.612122	714.495056	1476.617798	902.555176	24.675831
793.922974	714.940735	1472.902832	902.629456	24.762283
794.233826	722.445313	1475.800659	908.425110	24.686863
794.544556	719.473328	1477.212524	902.852356	24.200811
794.855286	721.925293	1471.639648	901.440613	23.944496
795.166016	718.581543	1470.896484	896.982422	23.713591
795.476624	720.513489	1476.395020	895.942200	23.208492
795.787292	725.120300	1491.478516	898.022705	22.561565
796.097778	728.835449	1504.481445	904.041199	22.588366
796.408264	732.179016	1520.902466	906.270325	22.072540
796.718689	730.098572	1530.413208	907.979248	22.226343
797.029053	728.018066	1542.821777	904.635681	21.676094
797.339355	721.999512	1535.019897	908.424988	22.929987
797.649658	723.262695	1538.214966	898.319885	21.480667
797.959839	717.244141	1519.639160	897.353943	22.446526
798.270020	712.934570	1520.828125	895.645020	22.615658
798.580078	715.758118	1513.843628	900.697571	23.172888
798.890137	729.652771	1506.784790	899.062988	21.799414
799.200195	728.761047	1484.716919	899.434509	22.577173
799.510071	727.349304	1457.299194	894.233215	22.862379
799.820007	714.940735	1438.872070	893.713196	24.694672
800.129883	717.838562	1441.175415	886.505798	23.317938
800.439575	716.278259	1436.791626	883.013489	23.141171
800.749329	717.392761	1436.717407	876.326355	22.094835
801.058960	720.736328	1426.537964	879.967102	22.560272
801.368591	723.559875	1414.352417	881.230286	22.824568
801.678162	727.200684	1407.739258	883.162109	22.917353
801.987671	731.361633	1395.479492	871.050781	21.033789
802.297119	730.692932	1397.188354	868.153015	20.624310
802.606506	725.194519	1392.804565	873.131287	22.159159
802.915894	717.095520	1393.250366	878.109558	23.813190
803.225159	713.603271	1374.674438	873.354187	24.165464
803.534424	715.832336	1372.073853	865.478088	22.803457
803.843628	713.751953	1370.290649	858.567932	22.057493
804.152771	721.479431	1379.504272	866.518372	22.041559
804.461792	724.674500	1383.813843	868.153015	21.767555
804.770874	726.309082	1382.699341	870.604980	21.983248
805.079773	726.383362	1390.501099	865.849609	21.000229
805.388733	727.646484	1392.210083	863.917725	20.505373
805.697571	729.206848	1394.364868	865.403809	20.475880
806.006470	724.377258	1402.463745	868.153015	21.203159
806.315125	721.776672	1411.305786	869.193176	21.379301
806.623901	721.776672	1417.175781	862.580261	20.247881
806.932495	718.804504	1409.745605	859.608215	20.378540
807.241150	721.256531	1399.120239	860.351257	20.519571
807.549622	724.674377	1400.383423	862.951843	20.464054
807.858154	722.668274	1404.098633	858.716492	19.965096
808.166565	716.575500	1401.423706	849.725891	19.442322
808.474915	718.507324	1393.696167	853.515320	19.995590
808.783264	725.491760	1380.544556	858.716492	20.338015
809.091492	726.383362	1369.547729	855.967285	20.147871
809.399719	725.268799	1357.064941	852.326477	20.110550
809.707825	720.884949	1352.160889	841.106750	19.044256
810.015930	722.445313	1344.507690	839.620789	18.836613
810.323975	717.169861	1342.575806	841.032471	19.805155
810.632080	717.615662	1338.043457	846.976746	20.850304
810.939880	715.981018	1329.498657	850.914795	21.993464
811.247864	717.095520	1314.712280	851.657776	22.516479
811.555664	716.352539	1302.229492	843.707336	21.737465
811.863464	714.866516	1296.805298	848.388428	22.944323
812.171143	716.575439	1296.062378	842.221375	21.682272
812.478882	719.770508	1300.371948	847.422546	21.986174
812.786438	733.070618	1310.031250	846.233704	19.613659
813.094055	739.534973	1303.492554	850.617615	19.696985
813.401489	737.974609	1292.867310	844.896240	19.268885
813.708984	727.795105	1284.099609	836.871582	19.607332
814.016357	732.624817	1289.226563	831.521790	17.767996
814.323730	740.575195	1291.455688	830.853027	16.387917
814.630981	734.928223	1282.836426	832.041809	17.724426
814.938232	725.343201	1276.743530	826.097656	18.272469
815.245361	717.467102	1275.851929	829.738464	20.106449
815.552490	719.176086	1279.046997	824.834473	18.871920
815.859619	714.049133	1284.099609	829.441223	20.242434
816.166565	713.751953	1283.951050	826.692078	19.807138
816.473572	716.872620	1283.802368	837.911804	21.349945
816.780457	721.925232	1275.777710	841.329651	21.558886
817.087341	720.439209	1272.954224	850.914734	23.614838
817.394043	712.785950	1272.359741	848.982910	24.339411
817.700806	707.584778	1284.916870	846.530945	24.066940
818.007507	703.869629	1293.833252	843.781738	23.715380
818.314209	713.677673	1312.631958	838.134705	20.779053
818.620667	709.665344	1321.028076	832.859192	20.150696
818.927246	714.569275	1334.551147	826.989258	18.132786
819.233704	713.454773	1343.170288	836.945801	19.610605
819.540161	717.689941	1370.662231	844.153259	19.367332
819.846497	724.228577	1415.020996	860.499817	19.726801
820.152832	726.086243	1462.277710	858.567932	17.995548
820.458984	733.442200	1504.035767	872.759766	18.079254
820.765259	733.665039	1559.391235	875.954834	17.232080
821.071350	738.197510	1652.418335	908.202148	18.595577
821.377502	728.389587	1810.608765	935.174011	19.107443
821.683472	721.107910	2065.392822	986.219971	19.721418
821.989441	711.671448	2492.039063	1064.683716	19.828054
822.295349	719.770447	3082.151123	1179.555786	19.462797
822.601196	718.432922	3753.476318	1307.876465	19.421255
822.907043	720.736328	4359.786621	1403.726929	18.768375
823.212769	718.507324	4766.593750	1466.958618	18.489016
823.518494	723.188416	4939.347656	1486.500366	18.104439
823.824097	724.228577	4857.540527	1463.392090	17.883080
824.129700	725.268860	4627.202637	1417.770142	17.747643
824.435242	724.748779	4326.647949	1365.238281	17.781994
824.740723	722.296814	4043.405518	1312.186035	17.761816
825.046082	721.182312	3775.395752	1258.167847	17.581795
825.351501	728.389648	3476.698486	1202.961060	17.267761
825.656799	724.674500	3152.590576	1151.469238	17.578646
825.962036	729.801331	2834.054688	1101.166382	17.648304
826.267212	724.005676	2577.412842	1062.826172	18.280952
826.572449	733.665039	2434.454346	1037.488892	17.863697
826.877502	724.154297	2388.906738	1037.860474	18.844013
827.182495	730.098450	2454.590332	1048.114136	18.441124
827.487488	729.058289	2554.453125	1059.631226	18.109669
827.792419	733.293518	2665.610107	1073.154297	17.588255
828.097290	719.770447	2701.275635	1075.234741	17.939106
828.402100	716.055359	2666.873291	1076.423584	18.472673
828.706848	717.912903	2569.908203	1053.166748	18.102304
829.011597	720.290527	2439.804199	1029.390015	17.975983
829.316223	725.937500	2309.699951	998.702942	17.222624
829.620789	721.850891	2179.595947	983.025085	17.916313
829.925354	725.937561	2070.816895	959.099548	17.337019
830.229797	724.080017	1946.062622	936.065613	17.347675
830.534302	733.813660	1822.200073	912.957520	16.459581
830.838562	729.058289	1685.408691	892.672913	17.108231
831.142944	727.869446	1573.657349	881.824707	18.202585
831.447144	714.494934	1479.961548	861.540039	19.209866
831.751404	718.433044	1423.120117	850.246033	18.705181
832.055542	717.541321	1385.002808	841.775574	18.612947
832.359619	724.377258	1366.278442	838.431885	17.768253
832.663635	723.336975	1372.519897	841.329773	18.175585
832.967651	726.457703	1395.256470	844.747559	17.686913
833.271545	722.371094	1449.646118	855.893066	18.359213
833.575439	722.668274	1520.902344	859.682434	17.164660
833.879211	722.222412	1625.520508	877.292175	17.167065
834.183044	723.262695	1729.767212	896.536621	17.215414
834.486694	720.513489	1818.113281	915.483826	17.763334
834.790344	727.275085	1868.713379	929.304199	17.699522
835.093933	727.423645	1868.341919	932.276184	17.955059
835.397522	730.544373	1841.072876	929.006897	17.870996
835.700928	721.925232	1785.494507	914.889465	18.143080
836.004395	731.361633	1745.445190	908.425049	17.460436
836.307739	735.076843	1694.250610	893.936035	16.562086
836.611023	729.875671	1641.421387	883.533691	16.856863
836.914307	727.423645	1564.815308	852.698059	14.960074
837.217529	723.931396	1497.348267	850.394714	16.351250
837.520691	731.138855	1424.234497	833.973816	14.837052
837.823730	723.262695	1353.126831	827.286438	16.515266
838.126831	723.559998	1282.093384	807.596191	15.045868
838.429749	723.262695	1231.864746	802.023621	15.485766
838.732727	724.005676	1204.447144	802.320801	16.300659
839.035522	720.587708	1190.775269	801.577820	17.225065
839.338379	719.324707	1186.763062	801.206238	17.517076
839.641113	721.925293	1190.701050	801.354919	16.944056
839.943848	719.547546	1194.861938	804.995667	17.977179
840.246460	714.494934	1200.583374	814.357910	20.544199
840.549072	716.798340	1219.753418	821.268066	20.771185
840.851563	723.931396	1237.957642	820.599304	18.806026
841.154053	729.058289	1249.697388	815.546692	16.611969
841.456482	727.200684	1241.598511	805.515808	15.224622
841.758850	723.857117	1228.744019	807.001892	16.468000
842.061157	719.473328	1220.719360	795.113464	15.090421
842.363403	717.095520	1198.651489	791.769775	15.506869
842.665588	710.408264	1187.654663	786.345703	15.911579
842.967712	720.662048	1156.819092	787.980286	15.434403
843.269775	721.405090	1140.992676	794.296082	17.372057
843.571777	721.925232	1110.751587	790.135071	17.542494
843.873840	715.980957	1089.500977	796.302246	21.503878
844.175659	716.872620	1063.569214	793.998840	22.246027
844.477600	727.497986	1049.302979	799.868835	22.489038
844.779297	729.206848	1051.086304	795.707825	20.660212
845.081116	732.476257	1038.083374	788.426208	18.307804
845.382751	736.934387	1032.213501	780.327148	14.695506
845.684387	732.699219	1004.498535	765.763855	12.165092
845.985962	729.206970	1004.721375	769.850525	14.751880
846.287537	720.364929	1002.863831	760.637024	14.255664
846.588989	723.857117	1002.789551	767.101318	15.503469
846.890381	726.606384	998.702942	766.432617	14.636802
847.191711	726.160461	991.718445	767.547119	15.584791
847.493042	721.702332	982.950684	762.940430	15.785018
847.794250	722.296692	978.938293	761.900146	15.431424
848.095459	723.262695	966.901306	766.581238	17.779835
848.396606	729.949951	967.347168	763.460449	14.115792
848.697693	729.058289	958.207825	756.030212	11.770447
848.998657	727.720886	958.802246	757.962097	13.086824
849.299622	730.915833	963.483398	765.095154	14.696512
849.600464	727.795166	972.771240	765.763855	15.498938
849.901367	728.835388	965.266663	757.739075	12.224984
850.202087	723.485596	954.344177	757.219055	14.612175
850.502808	727.274963	944.610535	759.596680	14.871802
850.803467	726.531982	942.901550	764.129211	17.376394
851.104065	727.869446	957.167664	770.519226	18.600136
851.404663	726.086182	956.573242	769.404724	18.794350
851.705139	721.850891	971.656677	763.757629	16.775728
852.005615	722.668274	956.201660	762.420227	17.021957
852.306030	720.736328	945.873596	759.819580	17.359743
852.606384	723.114075	932.424805	763.757629	19.417807
852.906616	719.101746	935.545593	759.150879	18.503244
853.206909	714.866394	947.211121	756.773193	18.036476
853.506958	717.838562	951.372070	753.875488	15.431159
853.807129	723.634094	948.548523	752.612305	12.884105
854.107178	732.773438	934.876892	755.064270	11.029417
854.407166	735.076843	931.384583	767.770020	16.654043
854.707092	725.194519	934.653870	770.147766	21.461561
855.007019	721.182190	943.570313	771.187988	22.485823
855.306763	718.730225	947.211121	770.519226	22.666666
855.606567	717.318420	946.022278	769.553284	22.839520
855.906250	721.850891	944.759094	772.376770	22.666676
856.205933	723.559875	936.883118	768.215820	20.933464
856.505493	726.754883	926.926453	766.209656	19.710478
856.805054	720.364929	930.047119	762.791809	20.233898
857.104492	716.946960	939.260681	755.435791	17.312845
857.403931	716.278259	944.536133	754.469910	16.731800
857.703308	711.968689	941.192566	751.572021	17.277142
858.002563	713.454773	927.372253	747.708252	16.012472
858.301819	715.089355	932.201965	759.002258	20.225864
858.601013	725.937683	930.047180	761.305664	17.327946
858.900208	724.674500	930.715820	762.866028	18.535858
859.199219	722.593994	925.663269	755.881653	16.392267
859.498291	719.696106	934.505310	749.194336	13.732293
859.797302	727.423584	939.780762	744.959167	8.257589
860.096191	739.089111	948.548523	744.884766	2.766958
860.395020	740.946716	940.449646	748.748535	3.910629
860.693787	727.795105	936.808777	759.671082	15.250666
860.992554	712.488770	925.068848	750.531738	17.895830
861.291260	712.934631	931.087402	750.754700	17.336506
861.589844	724.228577	932.573425	740.798096	7.952929
861.888428	734.185120	940.003723	744.141785	4.837592
862.186890	731.658875	938.443359	749.045715	8.408195
862.485413	725.937561	934.728210	756.847473	14.804260
862.783813	717.690002	939.260681	754.767029	16.733725
863.082153	718.284424	938.666260	745.107666	12.171258
863.380371	719.844727	942.678650	746.519470	11.970683
863.678589	729.875671	939.335022	751.200500	10.180891
863.976746	732.996399	938.740540	754.395508	10.400835
864.274902	737.305969	941.266907	752.612244	7.504513
864.572937	735.299744	944.090332	754.321228	9.110317
864.870911	728.166687	946.839600	760.934143	14.984689
865.168884	725.045959	937.477356	761.751465	17.278757
865.466736	724.971680	931.013000	759.299500	16.660648
865.764587	725.714661	925.886169	751.497742	12.880495
866.062317	725.417480	935.991394	748.971375	11.185571
866.360107	726.234802	938.071960	750.011658	11.224119
866.657715	728.984070	936.362976	751.572083	10.892146
866.955322	725.789063	937.774658	748.748535	10.830676
867.252808	722.519714	928.338196	751.646301	14.151589
867.550293	721.182312	932.053284	755.064270	16.067625
867.847717	723.188477	922.914063	760.711243	18.787161
868.145081	721.776672	929.081238	757.664795	17.311787
868.442383	714.940735	928.041016	750.977600	16.910755
868.739624	713.529053	933.539368	756.698914	19.621744
869.036804	716.203918	939.706543	757.144714	18.317814
869.333984	721.776611	938.146179	764.872253	19.917608
869.631042	719.770447	938.814880	761.305664	18.962006
869.928101	712.637451	932.350586	759.002258	21.102428
870.224976	717.689941	926.703613	755.287170	17.987928
870.521851	739.237732	939.929504	763.088928	11.884491
870.818726	745.479187	948.251282	764.352051	9.307426
871.115479	745.404846	956.573242	764.649231	9.113288
871.412231	723.559875	948.474182	755.138489	14.040287
871.708862	718.284424	945.056335	750.903259	14.383984
872.005493	706.618896	950.406067	748.822815	17.311789
872.302063	707.733398	944.981934	745.256348	15.815883
872.598572	711.225586	949.068665	752.463623	17.338339
872.895020	721.033630	946.170837	754.841370	15.016504
873.191406	730.693054	953.229553	756.178711	11.452349
873.487671	728.984070	949.365906	749.268616	9.204273
873.783997	727.126465	946.170837	750.383240	10.617381
874.080200	721.182190	941.341125	747.039551	11.744861
874.376343	729.875671	942.530029	742.358459	5.869989
874.672424	737.677429	955.087219	748.005432	4.750477
874.968445	740.946716	962.517395	750.308899	4.225371
875.264465	739.312073	963.483398	762.420227	10.308256
875.560364	737.083008	958.059326	756.476074	8.776084
875.856201	727.869446	959.842590	748.748535	9.000649
876.152039	722.742615	967.124207	746.593750	9.759792
876.447754	719.250305	965.712463	745.256287	10.551714
876.743469	725.045959	966.827087	764.872253	16.472044
877.039063	726.086182	961.477234	758.482117	13.762603
877.334595	723.782898	956.573242	766.283936	18.257217
877.630127	727.943787	949.365906	751.794922	10.771794
877.925537	730.024231	947.656921	762.568848	14.953919
878.221008	732.699036	950.183289	759.671082	12.401838
878.516296	722.296692	951.372070	768.067200	19.980545
878.811646	721.776672	969.130371	766.061035	17.903255
879.106812	719.993347	989.860840	767.918640	17.758823
879.401978	722.891113	1009.996887	759.448059	12.732919
879.697083	716.798340	1015.792480	754.989929	12.773357
879.992126	714.940735	1031.247559	754.544128	12.520562
880.287109	722.668213	1064.832397	764.352051	12.182408
880.582031	730.098450	1131.704712	769.924805	9.916766
880.876892	726.383362	1257.573608	787.088684	11.428169
881.171753	726.754944	1448.011353	811.088562	11.692598
881.466492	724.302979	1722.931519	847.125305	12.299100
881.761230	721.850891	2042.953491	885.316895	12.373453
882.055786	713.826172	2377.389893	926.109070	12.760732
882.350403	711.671387	2631.282471	953.675354	12.606927
882.644958	721.256531	2789.250000	963.037537	11.691575
882.939453	718.804504	2817.781982	959.991150	11.490673
883.233826	718.284424	2774.463623	958.876648	11.700936
883.528137	715.015076	2695.034180	949.514465	11.843289
883.822449	722.222473	2627.492676	940.003723	11.430465
884.116577	721.776611	2552.521240	927.446594	11.234225
884.410828	727.498047	2445.673828	917.935852	11.083721
884.704956	720.885071	2286.963623	897.576904	11.282437
884.999023	719.398926	2084.934326	877.812317	11.600826
885.292969	713.974854	1857.567993	849.948792	11.890062
885.586914	715.535156	1654.870117	831.893250	12.387284
885.880798	726.977783	1505.150269	811.905823	10.913781
886.174622	723.485535	1401.572266	800.834717	11.406975
886.468384	724.154297	1318.427490	789.986511	11.077769
886.762085	712.934570	1251.555054	781.961853	12.815570
887.055664	715.089355	1204.521362	784.933899	14.270531
887.349304	714.866516	1159.271118	776.389099	13.843822
887.642822	716.575439	1123.382813	772.005310	13.625582
887.936340	715.981018	1098.937256	753.578186	9.817615
888.229736	718.284363	1078.578247	758.110657	11.053836
888.523071	721.702332	1066.838501	763.014648	11.969860
888.816284	730.618652	1052.200806	779.138367	15.087813
889.109619	729.132507	1052.498047	779.435547	15.556091
889.402710	728.315186	1039.346436	772.822571	14.309619
889.695862	722.371033	1010.888489	759.819641	12.979669
889.988892	723.634216	987.037354	751.720703	10.662928
890.281921	724.005676	973.662903	747.633972	9.464294
>>>>>End Processed Spectral Data<<<<<
