Jaz Data File
++++++++++++++++++++++++++++++++++++
Date: Fri Jun 04 13:38:17 2021
User: jaz
Dark Spectrum Present: Yes
Reference Spectrum Present: Yes
Processed Spectrum Present: Yes
Spectrometers: JAZA3586
Integration Time (usec): 30700 (JAZA3586)
Spectra Averaged: 10 (JAZA3586)
Boxcar Smoothing: 1 (JAZA3586)
Correct for Electrical Dark: No (JAZA3586)
Strobe/Lamp Enabled: Yes (JAZA3586)
Correct for Detector Non-linearity: No (JAZA3586)
Correct for Stray Light: No (JAZA3586)
Number of Pixels in Processed Spectrum: 2048
>>>>>Begin Processed Spectral Data<<<<<
W	D	R	S	P
191.335022	0.000000	0.000000	0.000000	0.000000
191.713211	290.375031	294.164459	287.774414	-68.628197
192.091385	586.397034	587.808777	590.929504	321.054901
192.469528	886.431458	888.140381	892.895752	378.267090
192.847641	899.657288	900.549011	903.520996	433.285431
193.225739	907.161926	913.180420	907.607727	7.407182
193.603790	918.233093	923.137024	912.214539	-122.729195
193.981842	924.771729	924.102966	912.660339	1811.015747
194.359863	931.310242	928.486816	914.369324	600.013000
194.737854	934.653809	925.366150	921.428040	142.401535
195.115829	935.174011	929.155518	931.013123	69.135048
195.493774	934.951111	928.561096	930.790100	65.117393
195.871704	940.003723	937.700378	925.291748	638.722229
196.249603	938.814880	935.991394	923.805664	531.584534
196.627457	935.025391	938.889160	924.994568	-259.612335
197.005310	920.982178	929.972900	931.013123	111.569954
197.383133	924.548767	937.551758	932.870605	63.999416
197.760910	929.972839	945.502136	931.384521	9.090445
198.138687	931.756165	951.372070	921.873840	-50.379139
198.516449	930.195801	942.307129	928.635315	-12.884515
198.894180	923.359863	927.223694	930.418701	182.690155
199.271866	918.010193	920.759338	935.174072	624.335083
199.649536	919.273254	924.548828	931.087402	223.940536
200.027191	918.976074	921.428040	923.211243	172.725464
200.404816	923.805725	929.304016	913.849182	-181.084320
200.782410	924.177246	933.687988	909.390930	-155.469635
201.159988	923.582764	952.189270	914.220703	-32.727032
201.537537	923.731445	956.944763	918.307312	-16.331200
201.915070	915.632385	959.916809	921.799561	13.926286
202.292557	918.010071	958.579407	925.440430	18.315210
202.670029	919.793457	961.402893	927.298035	18.035759
203.047485	918.530273	956.944641	927.669495	23.791153
203.424911	913.403320	959.619629	922.096680	18.810156
203.802292	911.917297	958.505066	924.177185	26.315680
204.179688	908.647949	966.529785	919.050293	17.971689
204.557037	911.397217	959.619629	919.198975	16.178698
204.934357	906.641785	962.443115	918.010071	20.372787
205.311661	908.722351	953.303894	915.186707	14.500072
205.688934	910.654114	957.687744	911.322815	1.421751
206.066177	911.397156	956.870422	901.886414	-20.915018
206.443390	906.418945	960.288330	900.028870	-11.862165
206.820587	905.304382	957.984924	896.610840	-16.502378
207.197769	904.932861	956.573242	901.366211	-6.906708
207.574921	910.059753	965.638184	902.778015	-13.101734
207.952042	908.350769	968.610291	904.487061	-6.411781
208.329147	904.412781	961.477234	909.242432	8.463502
208.706223	918.233093	968.164490	916.821289	-2.827488
209.083267	914.666504	964.226379	918.232971	7.196280
209.460297	920.164856	964.375000	912.140137	-18.151308
209.837280	904.784363	950.108887	905.230042	0.983306
210.214264	907.830750	954.492737	910.059753	4.776916
210.591217	904.858582	955.161438	909.688232	9.601147
210.968124	904.709961	961.625793	909.911133	9.138357
211.345016	901.514893	961.848694	910.356934	14.655203
211.721893	901.737793	969.056152	909.316711	11.258323
212.098724	902.778076	963.409119	912.363098	15.808770
212.475555	905.378723	967.941589	905.155762	-0.356380
212.852356	903.223938	969.947754	910.505554	10.913069
213.229126	908.425110	969.056152	901.737793	-11.029527
213.605865	907.682068	963.037598	905.601563	-3.758442
213.982590	908.870911	955.310059	901.886414	-15.040106
214.359283	904.561340	954.789978	903.669739	-1.775086
214.735931	907.087646	952.783752	896.833801	-22.439211
215.112579	912.214539	956.350281	894.679016	-39.730888
215.489197	902.406555	959.693909	897.502625	-8.560232
215.865799	899.508789	964.895203	898.542786	-1.477376
216.242355	891.632629	965.415283	897.948425	8.560001
216.618896	894.010315	957.464844	895.273438	1.990595
216.995407	896.239441	954.269836	894.010315	-3.841308
217.371902	899.954529	948.919983	894.233215	-11.684387
217.748367	901.886414	949.811707	897.874084	-8.372049
218.124802	895.942200	947.359680	899.657410	7.225578
218.501236	895.645020	954.566956	898.468506	4.791910
218.877609	905.527344	964.226379	901.291992	-7.215368
219.253983	911.620117	975.371826	903.966858	-12.004790
219.630295	911.620117	978.789734	903.892578	-11.504516
220.006592	906.344543	971.136536	898.765686	-11.697213
220.382889	901.291992	971.582336	904.338379	4.334004
220.759140	905.081482	967.198547	912.585999	12.081247
221.135391	903.372559	971.136536	906.121643	4.056852
221.511581	909.242432	961.997314	902.406555	-12.957808
221.887772	907.236267	960.808411	894.456238	-23.855736
222.263931	913.774902	963.409119	902.332214	-23.054031
222.640060	912.065918	968.090149	901.069092	-19.628696
223.016159	910.951416	971.210754	909.465332	-2.466147
223.392212	906.790344	971.730957	908.127869	2.059612
223.768265	902.778015	978.566833	908.350769	7.353003
224.144302	906.567444	982.876404	910.802734	5.550188
224.520294	910.579834	988.300476	912.883240	2.963699
224.896286	907.459167	985.551270	906.047363	-1.807871
225.272217	904.487061	988.151855	901.069092	-4.085313
225.648148	901.143372	988.671936	902.034973	1.018641
226.024048	908.350769	988.077637	907.682068	-0.838740
226.399902	910.059753	987.408875	896.536621	-17.483240
226.775772	905.527344	995.359314	894.158936	-12.655191
227.151581	902.852356	1007.024719	895.942200	-6.633387
227.527374	894.902039	1014.380676	905.230042	8.644225
227.903137	896.165039	1030.504395	900.623291	3.318649
228.278870	898.988586	1044.919067	907.384827	5.753589
228.654572	896.016418	1060.299683	909.316711	8.095951
229.030273	893.415833	1062.454468	914.369324	12.395681
229.405930	895.793518	1063.569214	905.007141	5.491632
229.781555	903.892578	1068.398804	905.675842	1.084010
230.157181	913.997742	1072.931274	909.762512	-2.664780
230.532761	913.849121	1073.599976	910.951355	-1.813928
230.908325	915.409485	1064.312134	918.678772	2.195587
231.283859	911.471497	1056.658813	914.815125	2.302975
231.659332	911.694397	1052.052124	916.301208	3.282193
232.034821	903.892578	1049.377319	903.521179	-0.255284
232.410263	898.096985	1045.439331	901.663574	2.420614
232.785690	888.883484	1039.643677	895.273438	4.238489
233.161087	889.329285	1041.947144	900.177429	7.108044
233.536469	900.846191	1047.148193	898.542786	-1.574418
233.911804	901.143372	1060.522827	910.059753	5.594436
234.287140	901.886414	1064.535034	907.459045	3.426178
234.662430	892.152771	1061.414429	906.121582	8.252791
235.037704	898.394226	1063.569214	900.400330	1.214532
235.412933	906.938965	1061.785889	900.400391	-4.222605
235.788162	906.938965	1067.878540	905.304382	-1.015650
236.163345	908.796570	1060.745605	904.487061	-2.836154
236.538513	901.069153	1064.312134	905.973083	3.004068
236.913635	895.867920	1073.377197	906.047363	5.734598
237.288742	892.524353	1080.138672	910.133972	9.386074
237.663834	895.570740	1092.250000	910.133972	7.404559
238.038879	900.251770	1087.866089	911.842957	6.178199
238.413910	903.818298	1096.039429	918.232971	7.499005
238.788910	905.155701	1097.971313	918.381592	6.859346
239.163879	907.384766	1111.345825	915.706726	4.080171
239.538834	905.898743	1119.147461	903.521057	-1.114982
239.913757	906.047363	1138.763550	907.459045	0.606611
240.288651	909.539551	1160.014038	911.248535	0.682299
240.663528	906.121643	1188.323364	919.941895	4.897295
241.038361	900.400391	1210.094116	917.192810	5.422266
241.413177	897.279602	1237.734741	918.158691	6.132699
241.787979	901.514893	1268.644653	914.369324	3.501332
242.162735	907.904968	1314.638062	913.403320	1.351833
242.537476	909.019470	1344.582031	915.706726	1.535315
242.912170	906.938965	1363.380493	915.335205	1.839500
243.286865	903.521057	1361.745850	916.672668	2.870122
243.661514	903.372498	1346.811035	913.626221	2.312321
244.036148	910.134033	1335.591309	916.598328	1.519376
244.410751	911.991638	1318.427368	920.164856	2.010950
244.785339	908.127930	1327.863892	923.582825	3.682052
245.159882	905.675964	1339.157959	922.542542	3.890952
245.534378	906.641846	1374.600220	918.158691	2.461083
245.908890	908.870850	1432.853638	915.781006	1.318775
246.283356	909.242371	1516.518555	910.282654	0.171303
246.657791	908.053528	1598.623047	913.180481	0.742424
247.032196	910.282654	1666.907227	920.536377	1.355193
247.406586	909.019531	1703.761353	924.920227	2.000737
247.780960	909.985413	1715.204102	924.845947	1.845528
248.155289	910.505554	1695.513794	921.650940	1.419779
248.529602	906.195984	1655.018677	923.508545	2.311971
248.903870	905.898743	1599.588989	921.576660	2.260075
249.278122	910.728455	1532.493652	908.499329	-0.358516
249.652344	910.282532	1478.624023	901.886414	-1.477302
250.026550	914.517883	1438.946411	905.601563	-1.700197
250.400711	908.945129	1419.033325	920.536377	2.272401
250.774857	910.431213	1411.454468	921.873840	2.283851
251.148987	905.304382	1426.017944	917.341370	2.311633
251.523071	902.257996	1457.224976	903.000977	0.133878
251.897125	899.805969	1495.490845	908.127869	1.397030
252.271164	896.313782	1516.741577	911.768738	2.491016
252.645187	899.360168	1517.484497	915.632385	2.632515
253.019165	906.790466	1494.822266	918.307373	1.958552
253.393112	907.904968	1476.469360	922.096863	2.496093
253.767044	903.372498	1455.664551	929.601379	4.749096
254.140930	894.976257	1439.243774	927.743835	6.020491
254.514801	902.852356	1423.268555	927.297913	4.697309
254.888657	908.499329	1417.844604	928.189636	3.865808
255.262466	909.539551	1426.835083	926.777832	3.332386
255.636276	903.149597	1434.934204	917.490051	2.696666
256.010010	904.858582	1458.636719	912.288818	1.341735
256.383759	909.539551	1485.608765	914.889404	0.928682
256.757446	915.335205	1529.595825	918.901794	0.580631
257.131134	907.830750	1568.827759	918.158691	1.562479
257.504791	910.356934	1631.464844	917.267090	0.958269
257.878418	908.053528	1711.117554	915.855286	0.971499
258.252014	911.248596	1809.196899	925.068909	1.539099
258.625580	909.019531	1926.372437	927.595215	1.825884
258.999115	901.886414	2067.621826	936.883057	3.002109
259.372650	904.932800	2236.586182	936.660156	2.382554
259.746124	900.549011	2375.755127	944.833435	3.001915
260.119598	897.799805	2457.636719	942.901550	2.891440
260.493042	900.697571	2459.940186	944.536194	2.811533
260.866425	902.332275	2388.312256	941.192566	2.615129
261.239838	908.870911	2272.251709	944.164612	2.588690
261.613159	900.697571	2137.837891	936.139954	2.864863
261.986511	903.966980	2037.157715	931.161621	2.399829
262.359802	900.697571	1970.285156	929.081238	2.653702
262.733063	897.502625	1942.718872	934.876892	3.575745
263.106293	896.239441	1929.864624	937.180237	3.960894
263.479523	907.682129	1914.038086	937.180237	2.931180
263.852692	912.957581	1896.279663	940.821106	2.833611
264.225861	911.917297	1879.487305	942.232727	3.133151
264.598969	900.697571	1885.728882	938.740662	3.862120
264.972076	894.010315	1907.573853	933.390808	3.885350
265.345154	901.143372	1958.173828	933.687988	3.078872
265.718201	903.149597	2023.040161	936.288635	2.959132
266.091217	913.031921	2088.054932	935.099792	1.878080
266.464203	906.270325	2145.565430	934.430969	2.272311
266.837158	908.276428	2190.146973	936.882996	2.231627
267.210114	903.818298	2228.784424	942.975891	2.955366
267.583038	908.647949	2253.155762	942.752930	2.536614
267.955902	911.397156	2267.644775	940.895325	2.174984
268.328766	912.511719	2270.022461	935.322571	1.680344
268.701569	906.716125	2277.526855	933.613586	1.962157
269.074371	906.939026	2296.399658	932.647705	1.850263
269.447144	910.505554	2342.541992	933.390686	1.598083
269.819885	911.620117	2416.101563	934.208069	1.501378
270.192596	911.843018	2523.320313	935.991394	1.498524
270.565277	907.384766	2670.588135	949.663086	2.397813
270.937927	908.202148	2812.358154	958.728027	2.653453
271.310577	904.041199	2922.845947	964.746582	3.006996
271.683136	904.784180	2979.093018	955.830261	2.460872
272.055725	901.589172	2992.021729	961.254333	2.854202
272.428284	901.663513	2964.827148	967.941589	3.212449
272.800812	901.737793	2915.787354	970.913757	3.434670
273.173279	901.886414	2842.376221	962.963379	3.147503
273.545776	900.994812	2804.555908	946.839600	2.408370
273.918152	901.514893	2764.803955	948.028381	2.496311
274.290558	904.487000	2763.021240	948.251282	2.354774
274.662964	905.452942	2738.798096	953.303894	2.610035
275.035278	902.555176	2755.516357	948.177002	2.462104
275.407593	907.236267	2785.460205	944.090332	1.962176
275.779907	906.195984	2853.150391	945.947937	2.041751
276.152161	907.384766	2912.963867	947.879822	2.019120
276.524384	897.056702	2960.666260	953.526855	2.736475
276.896606	899.285828	2994.325439	960.437012	2.918856
277.268799	900.474670	2998.635010	955.384338	2.617039
277.640930	901.217773	3007.253906	956.424622	2.621363
278.013031	904.561340	3017.210693	949.960266	2.148910
278.385162	903.818298	3042.399170	957.167664	2.494615
278.757233	901.069092	3051.984375	957.910645	2.642668
279.129272	899.954590	3071.748779	963.632019	2.932019
279.501282	899.731628	3105.705078	962.443115	2.842803
279.873230	905.378662	3175.475342	954.121277	2.147160
280.245178	911.025696	3283.883057	957.241882	1.947702
280.617126	917.341370	3417.182373	968.535950	2.047913
280.988983	918.233093	3555.756836	980.647278	2.366393
281.360870	914.369324	3686.306641	976.560730	2.243608
281.732697	912.660339	3783.643311	975.669006	2.194672
282.104492	911.917236	3835.803711	975.148926	2.162591
282.476288	914.146423	3831.196533	978.121033	2.193127
282.848053	912.214539	3815.964844	973.662842	2.116170
283.219757	911.620117	3812.769775	976.263489	2.228199
283.591461	909.985413	3805.191406	979.235535	2.391889
283.963135	907.830750	3818.119873	985.328369	2.662884
284.334747	907.087646	3878.601807	989.712219	2.780555
284.706360	900.771912	3982.997314	989.563660	2.880768
285.077942	897.651123	4096.309082	988.597839	2.843277
285.449524	901.737793	4188.444336	984.585449	2.520689
285.821014	900.177429	4207.986328	988.300537	2.664093
286.192535	903.075256	4252.790527	989.786560	2.588617
286.563995	896.536621	4252.790527	991.124023	2.818243
286.935425	898.691406	4246.771973	993.055969	2.818468
287.306824	905.007080	4154.339355	991.124023	2.650297
287.678223	912.957520	4069.114258	990.752441	2.464862
288.049561	915.781006	4006.625244	988.820557	2.363094
288.420898	910.654114	3983.368408	994.913391	2.742177
288.792145	913.626282	4018.959717	997.216858	2.691839
289.163452	912.660339	4134.500488	995.210632	2.562210
289.534668	912.808899	4292.839355	991.792725	2.336778
289.905914	908.870911	4434.980957	992.461426	2.370615
290.277039	914.220703	4534.249512	996.622498	2.276274
290.648193	910.208313	4581.431641	1001.674988	2.491449
291.019318	903.743958	4572.960938	998.479919	2.581912
291.390381	901.886414	4503.784668	993.278748	2.537338
291.761475	905.007141	4411.426758	986.294250	2.318237
292.132507	910.654236	4352.875977	981.390320	2.054954
292.503510	901.143494	4340.616211	982.579163	2.367679
292.874481	905.378662	4400.652832	985.254089	2.285241
293.245422	907.236267	4506.088379	987.706055	2.235985
293.616364	912.734680	4680.476563	994.467590	2.169281
293.987213	910.208313	4840.153809	993.353088	2.115672
294.358093	906.567566	4956.140137	1004.944336	2.429312
294.728943	908.202148	5062.838867	1000.560547	2.223020
295.099731	910.356873	5194.503418	1007.173340	2.259878
295.470490	910.133972	5331.814941	1004.424255	2.132453
295.841248	905.007141	5464.296875	1015.420898	2.421732
296.211975	903.298157	5576.196777	1019.507629	2.486882
296.582642	904.264099	5709.569824	1026.863647	2.551337
296.953308	904.412659	5781.643066	1025.674805	2.486291
297.323883	907.979187	5770.943848	1020.324951	2.310232
297.694519	902.183594	5639.873535	1021.736633	2.523446
298.065063	910.282532	5491.268066	1019.879150	2.392425
298.435608	903.743958	5310.118652	1018.987488	2.615382
298.806122	896.239319	5126.516113	1011.631531	2.727770
299.176575	900.325989	4927.979004	1009.179504	2.702654
299.547028	905.007141	4815.781738	1013.043274	2.762525
299.917450	913.106201	4759.460938	1006.355957	2.424367
300.287872	908.499329	4750.247559	1001.080566	2.409873
300.658234	905.081543	4722.829590	988.300476	2.179791
301.028564	907.384827	4699.052246	988.374817	2.135999
301.398865	906.047424	4647.337891	978.715515	1.942327
301.769135	906.196045	4590.199219	987.854736	2.216575
302.139374	905.452942	4539.079590	989.266418	2.306607
302.509583	895.719299	4489.964844	998.479980	2.859033
302.879791	897.428223	4420.417480	997.068176	2.828279
303.249939	901.366272	4371.897949	1000.560364	2.858181
303.620087	911.471497	4335.117676	999.371582	2.567441
303.990173	910.356934	4337.272949	997.142578	2.532471
304.360260	910.579834	4326.201660	992.684387	2.403795
304.730286	905.229980	4312.530273	1002.715271	2.861071
305.100281	898.914307	4302.053223	1000.634766	2.989019
305.470276	893.118652	4330.659668	1005.241516	3.261717
305.840179	894.456116	4362.906738	1001.897949	3.097690
306.210144	899.657410	4403.848145	1002.492371	2.934628
306.579987	904.338379	4423.314941	1000.411865	2.730154
306.949890	909.836914	4466.262207	996.176575	2.427709
307.319702	908.573730	4555.722656	998.034180	2.452887
307.689484	909.688232	4673.715332	997.737000	2.339217
308.059265	916.152527	4802.630371	990.678223	1.917564
308.429016	918.233093	4897.069336	996.622375	1.970156
308.798737	920.313477	4971.595215	999.445984	1.953271
309.168396	905.675842	5032.746582	1007.990723	2.479116
309.538055	902.406555	5069.823242	1003.681152	2.430153
309.907684	892.524231	5069.674805	1001.006287	2.597035
310.277313	897.131042	5084.312012	1005.018555	2.576614
310.646851	901.143372	5071.829590	1007.619141	2.552956
311.016388	907.830566	5064.473145	1008.510742	2.422151
311.385895	905.007141	4996.263184	1006.207336	2.473573
311.755371	905.675842	4930.431641	1010.071106	2.593828
312.124817	907.310547	4863.855957	1011.260071	2.627280
312.494232	911.322815	4804.934082	1008.956604	2.507538
312.863617	906.864746	4780.265625	1001.972168	2.455398
313.232971	900.251770	4804.339844	1001.674988	2.597872
313.602295	899.360168	4883.323730	1008.956604	2.750940
313.971619	895.645020	4987.792969	1011.631531	2.834368
314.340820	897.874023	5022.641113	1021.959656	3.008307
314.710083	899.360168	5028.213867	1018.987488	2.897350
315.079285	907.607727	4951.162109	1024.485840	2.890480
315.448486	911.620056	4873.218262	1017.501465	2.672694
315.817596	909.390930	4723.201172	1016.089661	2.797694
316.186707	904.784241	4579.054199	1007.247742	2.788677
316.555786	907.087585	4472.949219	1005.241516	2.752601
316.924866	912.808899	4415.884766	1000.486145	2.502865
317.293884	918.530273	4422.126465	994.764832	2.175894
317.662872	914.443665	4445.605957	993.501648	2.238866
318.031830	913.329102	4509.506348	995.507874	2.285170
318.400757	911.248535	4545.097656	1006.133118	2.611132
318.769684	905.007141	4576.229980	1008.585144	2.821349
319.138550	903.521057	4565.084961	999.891785	2.631955
319.507416	901.366272	4539.524902	998.182800	2.661141
319.876190	906.195984	4483.797852	990.232422	2.348960
320.244995	908.499329	4397.160645	1003.012451	2.709152
320.613770	908.425110	4349.161133	994.170410	2.492063
320.982483	910.282654	4342.622559	999.223083	2.591248
321.351166	902.629395	4394.634277	999.148743	2.764009
321.719818	895.867920	4458.237793	1008.659485	3.166195
322.088440	894.084656	4582.694824	1005.836121	3.029636
322.457062	894.902039	4755.596680	1007.693604	2.921535
322.825623	903.372559	4959.111816	1013.489197	2.715082
323.194183	904.264099	5104.968262	1019.061829	2.732821
323.562653	898.914307	5203.567871	1016.907043	2.741051
323.931183	899.211487	5218.577637	1014.157898	2.661187
324.299591	894.827637	5180.014160	1010.739929	2.704953
324.668060	905.081482	5083.271973	1007.321960	2.447004
325.036407	905.378601	5012.535645	1000.040344	2.304800
325.404755	909.539551	4941.428223	999.000000	2.218822
325.773102	906.939026	4882.208984	1002.046448	2.392477
326.141388	907.236267	4790.519531	1003.755554	2.485507
326.509674	902.852356	4685.604004	1002.938171	2.645847
326.877899	900.474670	4603.945313	995.210693	2.558033
327.246124	900.474670	4542.645508	988.894958	2.427681
327.614288	911.471497	4500.367676	986.368652	2.086913
327.982422	914.517883	4485.135254	988.820618	2.080949
328.350525	921.205261	4500.887207	996.770996	2.110962
328.718628	916.449768	4556.763184	999.000000	2.267668
329.086700	915.260925	4619.103027	1004.349854	2.405311
329.454712	905.898743	4683.448730	1001.749207	2.537371
329.822693	899.880188	4709.900879	1004.721375	2.751722
330.190674	897.205383	4747.201172	1005.984558	2.825436
330.558563	902.332275	4778.779785	1007.173340	2.704566
330.926483	909.168152	4874.184082	1009.030945	2.518598
331.294312	911.694336	4980.659668	1008.139343	2.370259
331.662231	908.796631	5100.212891	1017.501404	2.593509
332.029999	905.007141	5224.669922	1018.913147	2.636919
332.397766	905.304382	5300.087402	1020.473572	2.620589
332.765503	903.000977	5360.049805	1016.758484	2.552306
333.133240	901.069153	5365.548340	1016.238281	2.579677
333.500916	898.022705	5373.052734	1016.386963	2.644994
333.868561	901.663513	5352.248047	1023.445618	2.736317
334.236176	901.291992	5312.644531	1029.092651	2.897086
334.603790	907.310547	5261.227051	1035.334106	2.940423
334.971344	899.508789	5224.893066	1027.680908	2.963254
335.338867	907.607727	5211.741699	1030.801636	2.862223
335.706360	901.366394	5208.100098	1022.851257	2.820812
336.073853	906.939026	5227.122559	1021.811035	2.658961
336.441284	905.081482	5249.562012	1020.696472	2.661193
336.808655	909.093750	5300.904785	1030.058594	2.754327
337.176086	911.099915	5344.223145	1036.002930	2.817495
337.543396	906.493164	5387.393066	1037.860352	2.931714
337.910706	901.812073	5391.033691	1040.460938	3.088483
338.277954	905.007141	5373.646973	1048.931519	3.220765
338.645264	901.960754	5333.820801	1049.600220	3.331321
339.012421	905.824524	5286.415527	1041.649780	3.100615
339.379669	896.982422	5194.354980	1028.052368	3.050002
339.746796	903.669678	5091.520020	1021.142273	2.805081
340.113953	911.174316	5016.622559	1026.937866	2.819754
340.481018	920.908020	4996.560547	1037.117310	2.851305
340.848114	920.685059	4999.978516	1043.581543	3.012691
341.215118	908.945129	5054.888672	1040.609497	3.175740
341.582153	901.143372	5189.971191	1046.182251	3.381784
341.949066	897.948425	5395.046387	1057.030640	3.537441
342.316010	901.663574	5656.592285	1071.816772	3.578460
342.682922	907.459167	5954.248535	1072.559814	3.271399
343.049835	911.991516	6315.508301	1081.550415	3.137936
343.416656	922.171082	6640.434082	1082.367676	2.801490
343.783478	920.016296	6877.683105	1098.640015	2.998216
344.150269	921.725281	7011.873535	1100.646118	2.937873
344.516998	909.762512	7046.350098	1115.803955	3.357590
344.883728	908.202148	6956.294922	1108.968140	3.319493
345.250427	896.833801	6822.847656	1105.624512	3.523291
345.617065	898.171204	6636.718750	1092.398560	3.384609
345.983704	901.886414	6481.797363	1089.797974	3.367644
346.350281	911.917236	6311.273438	1086.231445	3.228426
346.716827	908.202148	6173.515625	1082.367676	3.307790
347.083405	903.000977	6074.321777	1081.624634	3.454121
347.449860	907.384766	6012.130371	1085.637085	3.491894
347.816376	913.031799	5989.468750	1091.729858	3.520147
348.182770	910.877014	6000.613281	1088.609253	3.491973
348.549194	907.533386	6034.644043	1091.804199	3.594048
348.915558	908.573547	6122.023926	1095.222168	3.580136
349.281921	903.298157	6216.982910	1102.875244	3.755908
349.648193	899.657410	6265.726074	1104.584351	3.818940
350.014526	896.759583	6291.137207	1104.361328	3.848484
350.380737	906.344666	6324.499512	1106.813354	3.699944
350.746948	903.669678	6398.652832	1112.906128	3.807772
351.113159	902.703796	6453.265625	1112.906128	3.787046
351.479309	903.372498	6514.119629	1115.729614	3.784828
351.845428	902.332275	6626.911621	1110.677124	3.639479
352.211517	903.075256	6792.382813	1118.404541	3.656275
352.577576	901.886414	6945.149902	1122.119629	3.644276
352.943604	905.527283	7079.488281	1127.840942	3.600827
353.309601	908.945251	7215.908691	1142.627319	3.705144
353.675537	914.592102	7386.730469	1152.658081	3.678320
354.041473	913.626221	7595.224609	1162.243164	3.720920
354.407379	905.824402	7738.703125	1155.333008	3.651588
354.773254	895.719238	7922.973145	1163.877808	3.815979
355.139038	892.672852	8086.438965	1176.063477	3.939392
355.504913	900.623291	8357.570313	1196.348145	3.965763
355.870636	899.583008	8640.663086	1200.806274	3.891231
356.236389	904.115540	8947.754883	1211.877319	3.826151
356.602081	901.737793	9233.822266	1223.171387	3.857781
356.967804	904.932861	9439.195313	1242.490112	3.955318
357.333405	905.601563	9567.739258	1243.604614	3.902074
357.699036	908.127869	9601.249023	1243.678833	3.859960
358.064606	907.682068	9555.180664	1238.700562	3.827910
358.430176	911.843018	9467.282227	1244.124756	3.883865
358.795654	905.230042	9493.584961	1247.022583	3.979721
359.161163	907.161926	9689.297852	1260.099731	4.018815
359.526581	892.598633	10130.209961	1274.142944	4.130335
359.892029	894.307556	10713.413086	1303.121094	4.163450
360.257416	896.165039	11358.062500	1334.031128	4.185341
360.622772	906.567444	11898.762695	1356.693359	4.094959
360.988098	904.561340	12227.254883	1366.427124	4.079116
361.353394	902.926697	12358.549805	1356.916382	3.963029
361.718658	901.960754	12152.878906	1348.074341	3.965131
362.083893	907.607666	11691.534180	1333.065063	3.945292
362.449097	911.545837	10964.257813	1315.306763	4.016438
362.814209	903.372498	10224.425781	1289.598022	4.143582
363.179382	903.000977	9558.079102	1258.911011	4.112153
363.544434	906.641846	9102.604492	1237.363281	4.035175
363.909546	916.004089	8818.692383	1226.886597	3.933883
364.274536	914.072083	8631.003906	1224.434570	4.021838
364.639587	902.852478	8471.699219	1223.319946	4.234033
365.004517	900.103210	8370.499023	1223.988647	4.335586
365.369507	898.840027	8314.102539	1215.072388	4.264615
365.734344	899.360168	8296.865234	1208.756714	4.182445
366.099274	898.171326	8259.936523	1201.995117	4.127051
366.464081	903.223877	8226.500000	1209.945435	4.188311
366.828918	899.731628	8176.419434	1216.335449	4.350933
367.193665	902.555176	8110.142090	1217.078491	4.363781
367.558411	896.462341	8027.740723	1215.146606	4.468824
367.923126	905.452942	7920.596191	1203.109741	4.243061
368.287781	903.446777	7855.729004	1196.199463	4.210886
368.652435	908.202148	7787.519531	1191.890015	4.123779
369.017059	910.579895	7809.066406	1198.502930	4.173713
369.381653	915.186707	7831.209473	1201.846558	4.144866
369.746185	914.666504	7922.156250	1207.122070	4.173471
370.110687	911.174255	8001.288574	1212.620483	4.251641
370.475220	912.808899	8131.838379	1213.734985	4.168512
370.839661	907.979248	8194.030273	1213.512085	4.193394
371.204041	904.784241	8245.745117	1223.171387	4.337132
371.568451	910.579834	8239.280273	1228.372681	4.336278
371.932770	913.997742	8242.698242	1224.731812	4.239961
372.297150	908.945129	8200.642578	1201.846558	4.016917
372.661377	898.840027	8212.976563	1201.252075	4.134624
373.025696	900.474670	8240.394531	1203.406860	4.127187
373.389862	909.019531	8314.548828	1212.768921	4.101657
373.754059	909.242371	8405.717773	1216.632813	4.100466
374.118225	910.356934	8545.036133	1225.623413	4.129400
374.482361	912.957520	8731.312500	1246.056763	4.260478
374.846436	917.638489	8981.860352	1253.264038	4.161909
375.210510	913.774841	9305.895508	1258.168091	4.103769
375.574524	914.072021	9663.960938	1263.517822	3.993717
375.938538	909.316711	10009.468750	1279.864380	4.071884
376.302460	909.688293	10289.144531	1297.028320	4.129664
376.666412	909.762512	10462.195313	1296.136719	4.044773
377.030304	910.728516	10455.805664	1290.118164	3.974715
377.394196	917.118591	10307.348633	1281.201782	3.877255
377.757996	912.214539	10042.236328	1274.588867	3.969041
378.121796	909.539612	9728.901367	1264.706665	4.027129
378.485565	903.446777	9407.467773	1252.075195	4.099571
378.849304	899.434509	9169.698242	1243.158813	4.156147
379.212982	898.765808	9020.275391	1234.242554	4.130719
379.576630	901.291992	8960.461914	1226.292114	4.032675
379.940277	914.889404	8925.539063	1222.131226	3.835417
380.303864	916.969910	8904.289063	1227.183716	3.883829
380.667450	922.319641	8917.737305	1234.242554	3.901271
381.030945	908.796570	8943.373047	1249.994751	4.246623
381.394501	914.666504	8976.139648	1250.217651	4.162405
381.757935	908.425049	9012.994141	1250.291992	4.218200
382.121399	916.524109	9084.101563	1245.536621	4.028275
382.484741	919.644836	9265.327148	1253.784180	4.003739
382.848145	919.867676	9479.764648	1266.044067	4.044166
383.211487	914.220703	9641.743164	1266.787109	4.039708
383.574768	902.778015	9722.882813	1264.260742	4.098395
383.938019	900.920593	9742.944336	1261.808838	4.081512
384.301270	898.245605	9765.383789	1267.827271	4.167993
384.664459	900.326172	9798.374023	1277.412231	4.237852
385.027649	903.372559	9821.555664	1292.198608	4.359924
385.390778	918.233093	9963.325195	1295.616699	4.172247
385.753876	924.623047	10054.198242	1291.009766	4.013185
386.116943	924.325867	10170.110352	1286.254395	3.914525
386.479980	912.140198	10196.563477	1301.040527	4.188740
386.842987	906.790466	10222.048828	1316.495483	4.398214
387.205994	902.406555	10218.853516	1319.170532	4.473422
387.568909	906.938965	10188.240234	1311.963135	4.363873
387.931793	903.595398	10112.897461	1298.885864	4.292296
388.294678	900.400391	10063.634766	1293.164551	4.286305
388.657471	892.672913	10054.420898	1287.294556	4.307274
389.020294	893.936035	10144.327148	1297.548340	4.363192
389.383057	900.920410	10358.467773	1307.876465	4.302977
389.745819	905.527283	10599.506836	1325.040405	4.327564
390.108521	905.304382	10881.559570	1329.052734	4.247570
390.471191	902.778076	11170.746094	1343.764648	4.294779
390.833801	903.595398	11414.309570	1348.371460	4.231645
391.196442	905.081482	11597.911133	1368.507690	4.333990
391.558960	905.007141	11625.031250	1367.690308	4.316064
391.921509	905.452942	11605.266602	1365.758301	4.301994
392.284027	906.493164	11523.237305	1353.646851	4.211778
392.646484	903.595398	11487.573242	1346.811157	4.187611
393.008911	901.960754	11468.847656	1347.034058	4.211963
393.371307	896.759521	11499.089844	1359.071167	4.360472
393.733673	894.381836	11443.807617	1365.163940	4.462633
394.096008	895.199158	11329.827148	1360.557007	4.459745
394.458344	902.480774	11156.106445	1349.857422	4.363107
394.820587	901.514893	10937.360352	1342.724365	4.396336
395.182831	905.452942	10695.801758	1329.424194	4.330502
395.545013	894.976318	10438.417969	1309.659790	4.345220
395.907196	904.709961	10234.234375	1301.040649	4.248134
396.269287	911.694397	10138.754883	1306.910522	4.283229
396.631409	929.452698	10096.476563	1309.808472	4.149174
396.993469	927.372253	10081.988281	1305.275879	4.128012
397.355530	922.914063	10080.798828	1307.727905	4.201995
397.717499	914.443542	10130.358398	1320.730957	4.408541
398.079468	911.397156	10162.382813	1325.560547	4.476965
398.441376	905.155762	10168.847656	1323.703003	4.518147
398.803284	896.982422	10109.925781	1315.752563	4.545455
399.165131	896.313721	10073.666016	1315.158081	4.563891
399.526978	897.131042	10032.799805	1313.077637	4.552996
399.888763	899.211487	10029.381836	1312.037476	4.521559
400.250519	904.932861	10026.854492	1307.207886	4.409981
400.612244	905.007141	10065.937500	1307.207886	4.390392
400.973938	904.709961	10151.386719	1302.675293	4.303874
401.335602	898.468506	10269.824219	1305.275879	4.340966
401.697205	897.279602	10439.161133	1311.740234	4.343594
402.058807	902.257996	10628.335938	1322.216919	4.317865
402.420349	907.756348	10914.327148	1335.368408	4.273313
402.781860	910.951355	11184.492188	1348.222778	4.256287
403.143341	910.802734	11437.492188	1361.448608	4.280984
403.504822	919.570496	11625.700195	1369.027466	4.198127
403.866241	921.502441	11776.015625	1368.061646	4.114041
404.227631	917.861572	11894.602539	1366.575684	4.087862
404.588959	906.939026	11911.247070	1370.513672	4.212665
404.950287	905.081360	11856.633789	1371.479614	4.258741
405.311554	904.115540	11710.628906	1372.222656	4.331713
405.672821	900.771912	11618.641602	1370.365112	4.381404
406.034027	897.279602	11470.481445	1363.603516	4.410432
406.395203	902.480774	11304.565430	1361.894531	4.416554
406.756348	905.601563	11147.860352	1351.046387	4.349088
407.117493	903.446777	11087.601563	1349.560303	4.380467
407.478516	904.487000	11115.835938	1342.501587	4.289488
407.839600	909.465332	11181.519531	1348.594360	4.274987
408.200592	912.437317	11322.992188	1352.458130	4.226680
408.561554	907.013367	11488.315430	1357.882202	4.260996
408.922485	903.223877	11661.515625	1357.956543	4.226811
409.283417	907.310547	11770.963867	1370.067871	4.259684
409.644257	911.025635	11888.510742	1378.463989	4.258155
410.005096	903.669678	11944.385742	1390.500977	4.409418
410.365906	902.703674	11925.585938	1381.807617	4.346449
410.726715	897.279602	11867.258789	1376.383667	4.367411
411.087433	898.617126	11775.049805	1364.495117	4.283371
411.448120	901.886536	11737.377930	1366.055542	4.283784
411.808807	910.728516	11680.906250	1368.581909	4.251122
412.169434	919.793457	11654.233398	1376.903809	4.258353
412.530029	913.849182	11691.385742	1376.978027	4.297168
412.890564	909.168152	11802.168945	1376.829468	4.293228
413.251099	909.985535	11977.598633	1376.680786	4.216765
413.611572	915.335205	12169.671875	1386.488770	4.186418
413.972076	912.660339	12349.038086	1402.909668	4.286754
414.332489	908.053528	12471.637695	1413.014771	4.366823
414.692871	904.041260	12673.815430	1422.674194	4.406482
415.053223	903.075378	12847.312500	1429.212769	4.404948
415.413574	904.561340	13165.847656	1450.686157	4.454058
415.773834	904.932922	13420.112305	1458.933960	4.426633
416.134094	906.493225	13765.174805	1475.280640	4.423373
416.494263	907.161926	14103.622070	1468.964844	4.257225
416.854462	904.264160	14541.117188	1491.255493	4.304449
417.214630	901.663513	15044.890625	1501.435059	4.240698
417.574738	896.165100	15490.409180	1528.704224	4.334168
417.934784	900.920593	16005.102539	1546.091187	4.271470
418.294861	909.168152	16578.572266	1573.508789	4.239731
418.654846	912.140198	17272.189453	1603.378418	4.225160
419.014832	906.270325	17992.777344	1634.734253	4.263387
419.374756	901.514954	18765.228516	1660.517090	4.248849
419.734680	900.623291	19533.814453	1692.690308	4.250839
420.094543	898.840027	20145.251953	1716.615723	4.248977
420.454376	905.452942	20501.681641	1730.584595	4.210666
420.814148	903.075256	20688.033203	1738.015015	4.220074
421.173920	906.641785	20836.638672	1746.931274	4.216205
421.533691	903.966980	20935.757813	1760.900024	4.277865
421.893341	908.796570	20984.427734	1764.986816	4.264823
422.253021	910.505554	20956.712891	1765.581177	4.265523
422.612640	913.774902	20936.279297	1756.813477	4.210455
422.972260	900.251770	20962.283203	1748.491577	4.228086
423.331757	898.691406	21060.884766	1751.835327	4.231404
423.691315	897.279724	21176.943359	1769.222046	4.299590
424.050781	908.573730	21184.150391	1780.516113	4.300457
424.410248	919.273254	20979.226563	1772.788574	4.254822
424.769653	914.889404	20678.001953	1748.268677	4.216842
425.128998	911.917297	20260.048828	1725.903687	4.207055
425.488373	902.406555	19725.439453	1706.361938	4.271126
425.847656	899.657410	19234.375000	1695.216431	4.339086
426.206940	907.310547	18759.431641	1684.888672	4.355662
426.566193	904.338379	18339.917969	1659.254028	4.329742
426.925385	902.332214	17826.560547	1633.991211	4.323145
427.284576	894.679138	17338.837891	1605.235962	4.321029
427.643677	896.610901	16936.041016	1587.329102	4.306376
428.002777	896.388000	16666.322266	1577.075195	4.316360
428.361847	907.533386	16438.363281	1568.010376	4.252683
428.720856	905.007141	16208.840820	1565.335449	4.314790
429.079865	910.059753	16068.112305	1565.781250	4.325895
429.438812	901.440613	16055.332031	1556.939331	4.325613
429.797760	908.350769	16085.053711	1554.264282	4.255954
430.156616	917.490051	16010.377930	1541.855835	4.136821
430.515503	917.267151	15858.875977	1552.332397	4.250314
430.874268	918.604553	15823.061523	1548.320190	4.225016
431.233093	908.647949	15912.819336	1549.063110	4.268247
431.591827	905.155762	16130.971680	1540.666992	4.173906
431.950562	903.223877	16342.510742	1547.948608	4.175871
432.309204	908.573669	16499.216797	1565.261108	4.212061
432.667877	919.496094	16691.212891	1589.632446	4.248975
433.026459	919.347595	16737.876953	1593.644897	4.262705
433.385010	915.260925	16829.416016	1586.363159	4.217014
433.743561	913.180481	16805.716797	1583.167969	4.215737
434.102051	910.654236	16833.951172	1582.424927	4.218791
434.460510	911.174316	16836.476563	1584.877075	4.230392
434.818939	907.756348	16812.253906	1574.920532	4.194815
435.177338	905.973083	16775.845703	1573.434448	4.205839
435.535675	907.236267	16759.052734	1574.028809	4.206411
435.894012	909.985352	16763.064453	1573.062866	4.182642
436.252289	914.369324	17013.984375	1590.449707	4.199358
436.610535	913.551941	17120.312500	1601.892212	4.247241
436.968719	909.242371	17497.326172	1628.344116	4.335050
437.326935	902.778076	17768.900391	1645.953979	4.406323
437.685028	903.372498	18109.357422	1652.343872	4.352970
438.043152	906.121765	18322.009766	1655.390259	4.302212
438.401215	908.350769	18600.423828	1659.402710	4.245132
438.759277	906.716125	19026.400391	1679.761719	4.266331
439.117249	906.344543	19613.095703	1702.795410	4.257558
439.475250	911.322815	20152.160156	1731.550415	4.262951
439.833130	913.106140	20649.468750	1750.274902	4.241758
440.191071	912.363098	20818.583984	1755.253296	4.234305
440.548889	914.220703	20906.185547	1747.897339	4.170059
440.906708	907.459167	20772.439453	1750.572266	4.244218
441.264496	903.075256	20554.732422	1738.237915	4.249834
441.622223	897.576904	20219.626953	1721.519653	4.264261
441.979950	908.722351	19911.865234	1708.665405	4.209530
442.337616	912.437439	19695.421875	1700.937866	4.197951
442.695251	906.344543	19433.281250	1694.622070	4.254765
443.052887	902.629456	19305.705078	1673.297241	4.187712
443.410461	905.452942	19375.326172	1686.448853	4.228486
443.768005	908.499451	19654.333984	1703.092773	4.238773
444.125458	905.973145	19951.990234	1726.646606	4.308898
444.482941	902.034973	20350.994141	1745.890991	4.338824
444.840393	901.069092	20926.025391	1766.472778	4.321626
445.197754	904.115540	21447.480469	1785.345703	4.289609
445.555084	904.932861	21906.748047	1799.166016	4.257885
445.912415	910.356934	22149.568359	1800.875000	4.192802
446.269714	913.923523	22328.787109	1813.877930	4.202476
446.626953	918.827454	22299.361328	1805.630371	4.147712
446.984161	926.109070	22093.320313	1803.847168	4.146688
447.341309	922.765442	21838.611328	1792.107422	4.156380
447.698456	916.449707	21480.248047	1782.522339	4.211637
448.055542	908.870911	21256.595703	1783.339722	4.297625
448.412598	906.567566	20871.783203	1771.005493	4.329720
448.769653	908.573730	20497.814453	1755.699097	4.324442
449.126617	909.465332	19957.859375	1723.897461	4.275595
449.483582	912.585999	19600.687500	1701.309448	4.220458
449.840515	907.236267	19240.095703	1689.643921	4.267788
450.197388	900.326172	19037.769531	1677.309570	4.283864
450.554230	889.700867	18898.005859	1666.387085	4.312933
450.911041	903.298279	18861.671875	1658.956909	4.207835
451.267822	906.790466	18932.037109	1666.535767	4.214896
451.624573	916.226807	18984.568359	1677.161133	4.211423
451.981262	910.579773	18946.451172	1677.309692	4.251139
452.337921	918.827393	18766.638672	1673.074585	4.225993
452.694580	913.626282	18382.492188	1656.653442	4.253437
453.051147	910.059753	18142.865234	1651.600952	4.303079
453.407715	911.025635	17726.994141	1644.021973	4.358930
453.764221	909.019531	17586.710938	1640.752563	4.387496
454.120728	908.425049	17208.363281	1629.235718	4.422168
454.477142	902.109375	17166.232422	1615.786987	4.388049
454.833557	899.583008	17071.794922	1609.916992	4.392312
455.189911	901.217712	17103.296875	1605.979004	4.349820
455.546265	899.657410	17183.693359	1602.412476	4.315608
455.902557	902.852356	17209.548828	1602.041016	4.287739
456.258820	897.279602	17508.396484	1610.362793	4.292807
456.615051	899.360168	17807.687500	1633.396851	4.341273
456.971252	904.932861	18248.599609	1663.043457	4.371109
457.327393	909.093811	18852.755859	1701.532227	4.416258
457.683502	905.378662	19586.791016	1731.476440	4.422031
458.039612	907.756348	20663.736328	1778.435669	4.407168
458.395630	912.883301	21719.798828	1809.345581	4.308482
458.751648	917.787292	22642.195313	1840.181152	4.245887
459.107605	913.923523	23388.712891	1858.013794	4.200664
459.463562	915.038086	23618.087891	1869.159180	4.202612
459.819458	911.471497	23473.939453	1880.007324	4.292686
460.175323	913.923523	22740.646484	1855.933228	4.315855
460.531158	908.425110	21873.828125	1825.097656	4.372311
460.886932	906.790344	20979.150391	1782.745117	4.363985
461.242676	905.378601	20209.001953	1745.148071	4.350320
461.598419	908.276367	19646.382813	1718.473267	4.323793
461.954102	909.390930	19076.554688	1686.597290	4.278083
462.309723	903.075256	18633.265625	1666.981445	4.308506
462.665344	897.799805	18253.800781	1644.690796	4.303359
463.020905	902.257996	18060.763672	1646.919800	4.339899
463.376373	910.728455	18054.076172	1651.303711	4.319899
463.731873	920.536377	18048.947266	1650.634888	4.262500
464.087341	912.288818	18129.716797	1630.275879	4.170118
464.442749	909.911133	18253.798828	1633.545288	4.172272
464.798126	905.304382	18389.033203	1641.272827	4.209448
465.153503	900.994812	18539.273438	1662.894897	4.319583
465.508820	900.400391	18692.931641	1672.479858	4.339346
465.864105	895.719299	18824.669922	1685.259888	4.403719
466.219330	906.195984	19089.855469	1683.625366	4.275428
466.574524	901.589172	19122.400391	1677.458130	4.258147
466.929657	904.115540	18981.298828	1671.811157	4.246766
467.284790	913.477722	18761.806641	1676.046509	4.272494
467.639893	915.112305	18473.810547	1667.947632	4.287535
467.994934	912.734619	18321.044922	1659.031250	4.287014
468.349945	899.657410	18097.169922	1654.572876	4.389678
468.704926	896.610901	17942.546875	1649.223145	4.415201
469.059875	899.805908	17775.662109	1639.935181	4.385729
469.414764	901.589172	17649.943359	1628.789917	4.341924
469.769653	907.533386	17653.435547	1633.768188	4.336791
470.124451	908.276428	17728.257813	1635.031372	4.320784
470.479248	903.075256	17802.634766	1635.922974	4.336490
470.834015	900.920471	17874.263672	1631.910645	4.306695
471.188721	902.406555	18090.707031	1649.668945	4.347506
471.543365	908.202148	18396.908203	1675.452026	4.387116
471.898010	905.155701	18631.779297	1687.192017	4.411649
472.252625	900.400391	18924.087891	1692.764648	4.396238
472.607178	894.902039	19191.947266	1703.835815	4.421117
472.961700	894.530457	19345.160156	1713.569336	4.439084
473.316193	898.171326	19383.351563	1712.974976	4.407875
473.670654	903.149597	19289.431641	1701.383789	4.341466
474.025055	913.997742	19397.617188	1702.052368	4.263530
474.379456	914.294983	19466.644531	1703.835571	4.255744
474.733795	918.381653	19640.884766	1710.671509	4.231751
475.088104	910.951355	19913.056641	1732.070679	4.321202
475.442383	902.852356	20287.244141	1750.869263	4.374741
475.796570	896.462219	20675.548828	1764.912598	4.390751
476.150787	897.056702	21149.154297	1773.011597	4.325255
476.504944	907.756348	21589.398438	1796.639771	4.297935
476.859070	911.322815	22006.906250	1813.803711	4.278056
477.213135	916.226868	22249.728516	1818.930542	4.231390
477.567200	909.613953	22540.474609	1829.109985	4.250853
477.921173	907.384949	22776.681641	1847.239868	4.297600
478.275146	902.926697	22999.884766	1868.936157	4.371685
478.629089	907.459167	23301.630859	1877.258301	4.330587
478.983002	910.356934	23778.876953	1893.530640	4.299245
479.336823	911.248596	24470.189453	1918.050415	4.273544
479.690643	913.477600	25256.609375	1951.858276	4.265600
480.044403	902.703796	26280.576172	1987.226196	4.273496
480.398163	900.177429	27603.609375	2040.798462	4.271440
480.751862	898.691406	29446.759766	2115.027100	4.260658
481.105499	908.870911	31887.828125	2225.366455	4.249645
481.459137	913.923523	35504.214844	2365.204346	4.195630
481.812744	913.106140	40200.964844	2572.360352	4.223325
482.166290	909.019531	45694.015625	2821.571533	4.270520
482.519806	905.304382	50753.667969	3087.352295	4.377371
482.873291	898.394226	54665.109375	3319.102295	4.502243
483.226715	897.131042	57032.542969	3476.104248	4.594200
483.580139	905.527283	57867.703125	3548.475342	4.639830
483.933502	912.214539	57342.605469	3501.664307	4.588750
484.286804	922.988464	55630.152344	3382.780273	4.496288
484.640106	917.118469	53042.855469	3204.379150	4.387968
484.993347	913.329102	50227.300781	3041.507568	4.315569
485.346558	905.007141	48023.406250	2925.743896	4.288637
485.699738	902.852356	47031.468750	2888.220947	4.303985
486.052887	900.623291	47336.781250	2918.684814	4.345884
486.405975	904.115540	48345.140625	2958.065674	4.329481
486.759064	910.728333	49482.792969	3000.938232	4.303317
487.112061	913.254700	49975.562500	3018.696533	4.291363
487.464996	918.753113	49638.972656	3009.483154	4.291298
487.817963	919.644775	48438.167969	2962.226563	4.298496
488.170868	917.638611	46557.785156	2861.026367	4.258066
488.523743	904.487000	44306.121094	2745.188232	4.241087
488.876587	894.679138	42227.058594	2644.582275	4.233734
489.229401	898.840027	40863.453125	2602.527100	4.262989
489.582153	907.830627	40570.402344	2609.437256	4.290208
489.934845	911.917297	41173.445313	2640.124268	4.292453
490.287537	905.378662	42452.121094	2682.848389	4.278241
490.640198	901.217712	43847.894531	2730.922119	4.260410
490.992798	898.394226	44662.996094	2758.414063	4.250055
491.345337	909.911133	44533.113281	2760.643311	4.242541
491.697876	916.449768	43216.390625	2701.126709	4.219100
492.050354	919.421875	41067.707031	2617.610596	4.229792
492.402832	910.134033	38196.054688	2486.540771	4.227887
492.755219	910.208313	35118.214844	2352.795654	4.217104
493.107605	911.471497	32351.179688	2233.465576	4.204855
493.459930	915.632507	30268.548828	2149.057373	4.202052
493.812225	906.716064	28868.240234	2091.547119	4.237362
494.164490	910.505554	28053.140625	2052.389648	4.206975
494.516724	902.480896	27590.828125	2040.501343	4.264110
494.868896	904.784363	27564.750000	2043.399048	4.270879
495.221039	902.629456	27769.750000	2052.092529	4.278327
495.573120	917.861511	28077.291016	2055.956299	4.190422
495.925201	917.341370	28358.601563	2068.141846	4.193687
496.277222	915.260925	28533.134766	2081.590820	4.223098
496.629211	906.790466	28556.392578	2088.278076	4.273073
496.981140	913.923523	28431.490234	2081.887939	4.244432
497.333069	909.391113	28123.505859	2075.794922	4.286025
497.684967	908.870911	27697.083984	2046.148071	4.245439
498.036804	905.007141	27143.228516	2033.665527	4.301581
498.388580	907.087646	26626.306641	2006.544922	4.274847
498.740326	906.493164	26100.912109	1983.585449	4.275123
499.092072	902.183594	25637.263672	1965.901367	4.300442
499.443756	906.121643	25145.156250	1942.421875	4.275336
499.795410	907.310547	24776.615234	1936.551758	4.311986
500.147003	914.517822	24410.226563	1908.688354	4.231286
500.498566	907.682068	24079.208984	1895.462402	4.262906
500.850098	907.979187	23892.859375	1884.317017	4.247739
501.201599	900.474670	23732.664063	1882.608032	4.301529
501.553009	898.988586	23670.916016	1886.323120	4.335753
501.904449	905.527344	23618.455078	1880.081665	4.290747
502.255859	917.787292	23658.359375	1888.923828	4.270502
502.607178	925.886230	23784.228516	1889.221069	4.214369
502.958405	920.610657	23890.554688	1905.493164	4.287701
503.309692	905.378662	24019.916016	1902.669800	4.314562
503.660919	898.840027	24123.865234	1910.397095	4.355462
504.012115	894.381836	24096.521484	1905.418945	4.357516
504.363251	895.422119	24032.250000	1901.555298	4.348622
504.714294	899.657410	23847.162109	1889.741211	4.314560
505.065369	903.075195	23755.250000	1889.592407	4.316951
505.416443	912.585999	23578.109375	1888.254883	4.304639
505.767395	916.078186	23620.388672	1893.158813	4.303503
506.118317	913.923523	23612.662109	1879.190063	4.252512
506.469238	907.236145	23800.796875	1880.304688	4.250403
506.820160	899.360107	23960.177734	1883.202515	4.266294
507.170929	902.629395	24200.468750	1900.217773	4.281892
507.521729	903.743958	24417.210938	1910.322876	4.280861
507.872498	914.815125	24623.328125	1912.254883	4.207095
508.223236	911.768738	24949.218750	1922.806030	4.206092
508.573883	910.134033	25235.876953	1930.607788	4.195036
508.924500	904.709961	25526.031250	1954.458862	4.263577
509.275116	907.459167	25710.302734	1969.245117	4.280904
509.625702	907.236145	25945.617188	1982.025024	4.292565
509.976196	903.149597	26121.195313	1981.950806	4.277894
510.326660	906.716064	26364.388672	1986.483398	4.241422
510.677124	914.517883	26542.119141	1996.291138	4.221126
511.027557	919.941956	26751.283203	2016.501587	4.245074
511.377869	913.923523	26886.367188	2026.755371	4.284664
511.728180	909.836853	26896.173828	2035.077271	4.330123
512.078430	910.208313	26807.603516	2029.578979	4.322329
512.428650	915.409607	26658.333984	2021.479858	4.296599
512.778931	914.072083	26496.427734	2004.464478	4.262283
513.129028	904.338440	26342.841797	1993.170410	4.280252
513.479126	899.508789	26185.318359	1986.037476	4.296990
513.829285	896.908203	26109.826172	1993.467773	4.349197
514.179382	900.994812	26023.041016	1987.894897	4.326479
514.529297	904.189758	26025.791016	1984.625610	4.300824
514.879272	901.366272	26178.333984	1985.220093	4.287910
515.229187	898.468567	26339.421875	1994.730835	4.309045
515.579163	898.617126	26778.552734	2015.461304	4.315483
515.928955	902.629456	27322.521484	2029.801758	4.266377
516.278748	901.886414	28171.353516	2059.671631	4.245720
516.628540	901.960754	29053.181641	2102.469971	4.264502
516.978333	903.000977	30042.523438	2147.719971	4.271583
517.327942	908.722351	31016.482422	2182.345215	4.230215
517.677612	912.288879	31861.453125	2213.552490	4.204520
518.027222	915.781067	32401.705078	2232.053711	4.180511
518.376831	913.700623	32546.968750	2248.920166	4.220934
518.726379	905.378723	32277.992188	2239.260986	4.251741
519.075867	899.805969	31633.490234	2210.951904	4.266153
519.425293	898.542786	30877.609375	2180.784912	4.277125
519.774658	899.360168	30085.396484	2146.903076	4.274451
520.124084	902.406555	29435.619141	2131.150635	4.306365
520.473389	900.771912	28835.250000	2098.011475	4.285884
520.822693	900.103210	28396.937500	2083.225342	4.302757
521.171997	900.920471	28135.765625	2067.027588	4.281673
521.521240	912.065918	28121.945313	2069.405029	4.253378
521.870361	908.350769	28249.001953	2069.850830	4.248253
522.219482	910.505554	28515.154297	2077.652588	4.228081
522.568604	901.663574	28784.875000	2086.717529	4.250063
522.917664	906.195984	29237.898438	2111.014648	4.252546
523.266724	901.663513	29905.138672	2143.113525	4.280349
523.615662	902.257996	30900.937500	2196.536865	4.314453
523.964600	897.502502	32145.509766	2245.279541	4.313162
524.313538	903.075256	33589.582031	2301.155029	4.277238
524.662354	906.641785	35099.117188	2358.962646	4.247487
525.011169	912.808899	36509.011719	2416.324463	4.223809
525.359985	907.904968	37858.128906	2471.011230	4.230302
525.708740	907.384827	39323.675781	2537.437744	4.243130
526.057434	910.877136	41142.308594	2626.378662	4.264083
526.406067	916.524109	43450.527344	2739.244141	4.285324
526.754700	917.564270	46425.972656	2873.509033	4.297986
527.103333	905.750183	49848.511719	3030.436768	4.341166
527.451782	895.422058	53146.656250	3220.057373	4.448957
527.800293	894.530457	55516.542969	3372.674805	4.536897
528.148743	905.378601	56710.437500	3465.553467	4.587711
528.497131	911.991516	56669.937500	3460.723633	4.571065
528.845642	910.505554	55491.347656	3381.368164	4.526978
529.193909	908.350769	53255.207031	3231.053711	4.437139
529.542175	900.474670	50021.636719	3044.702393	4.365181
529.890503	900.103210	46391.574219	2861.397705	4.311345
530.238770	895.942200	42987.621094	2705.213623	4.298407
530.586914	897.056702	40609.785156	2598.440430	4.284228
530.934998	903.149597	39383.117188	2532.311035	4.233791
531.283142	907.087646	39393.000000	2536.620850	4.234103
531.631226	911.248596	40143.460938	2572.731689	4.234997
531.979248	905.081482	41481.578125	2640.272705	4.276346
532.327148	902.703796	42750.664063	2705.138916	4.307104
532.675110	905.898743	43736.734375	2749.944092	4.305416
533.023071	908.127869	43967.074219	2764.135498	4.310388
533.370850	911.545715	43194.328125	2728.767578	4.297782
533.718689	910.877014	41793.871094	2667.690430	4.297174
534.066467	913.031799	39953.839844	2583.505615	4.278789
534.414246	912.660339	38280.464844	2513.438232	4.283842
534.761963	913.551941	36918.347656	2460.683350	4.297015
535.109619	911.991516	36158.972656	2428.584473	4.302760
535.457153	911.025635	35831.671875	2408.745850	4.288925
535.804749	907.236145	35770.296875	2405.104736	4.296434
536.152344	910.133972	35667.535156	2404.956055	4.300730
536.499817	905.230042	35413.566406	2390.987061	4.305502
536.847229	910.951355	34882.226563	2356.213379	4.254365
537.194641	900.623291	34044.242188	2315.421387	4.268690
537.542114	904.115417	33083.656250	2275.743652	4.262423
537.889404	897.279602	32201.015625	2250.183594	4.321861
538.236694	904.561279	31735.583984	2231.161865	4.302811
538.583984	913.254822	31918.962891	2233.539795	4.258199
538.931213	916.449768	32846.335938	2267.718994	4.231989
539.278381	915.706726	34513.613281	2334.219971	4.222029
539.625488	912.511719	36711.785156	2423.457275	4.220604
539.972595	913.254700	39465.371094	2542.193115	4.225289
540.319641	917.564270	42101.039063	2657.808105	4.225588
540.666687	910.505554	44230.699219	2755.218994	4.258322
541.013611	908.202148	45360.324219	2798.537842	4.252521
541.360596	903.000977	45512.343750	2810.352295	4.275677
541.707458	902.109375	44678.519531	2784.494385	4.299999
542.054260	898.691406	43066.824219	2726.166992	4.333784
542.401062	899.062927	41067.562500	2636.334961	4.324961
542.747864	904.338379	38896.878906	2541.896240	4.310209
543.094666	904.041199	36851.398438	2445.822510	4.288998
543.441284	902.703674	34882.152344	2362.455078	4.295983
543.787903	898.914368	33301.066406	2286.814697	4.283359
544.134460	911.248596	31891.392578	2234.059814	4.269868
544.481079	905.007141	30938.312500	2203.744385	4.324324
544.827637	912.883118	30281.181641	2191.113037	4.352414
545.174072	906.567444	29992.884766	2179.521729	4.376472
545.520508	910.728516	29942.435547	2171.422852	4.342474
545.866943	906.790466	29946.001953	2156.636475	4.303994
546.213318	905.973145	29839.005859	2157.676758	4.326210
546.559631	908.425110	29470.242188	2151.881104	4.353561
546.905823	913.477722	28891.275391	2126.098145	4.334224
547.252136	911.100037	28017.994141	2087.014893	4.338065
547.598389	911.768738	27030.509766	2031.882202	4.288543
547.944458	905.229980	25963.822266	1988.935181	4.324685
548.290588	908.276428	24999.001953	1943.759155	4.298263
548.636658	910.431152	24059.369141	1904.898804	4.295954
548.982727	905.304260	23288.775391	1878.595581	4.348259
549.328735	902.332214	22710.255859	1854.372925	4.365572
549.674622	900.474609	22299.955078	1841.444336	4.397161
550.020569	912.214539	22022.435547	1824.874878	4.323310
550.366455	918.381653	21778.201172	1813.506470	4.291143
550.712280	917.712891	21684.357422	1809.791382	4.295728
551.058044	913.180420	21709.841797	1809.791382	4.311321
551.403748	905.601563	21851.390625	1806.744751	4.302264
551.749512	902.778137	22084.849609	1816.850098	4.315310
552.095154	902.406555	22244.525391	1829.704468	4.344920
552.440735	905.750183	22329.156250	1833.791138	4.331902
552.786316	906.716125	22219.634766	1825.840820	4.312524
553.131897	903.595398	22012.255859	1815.289673	4.319053
553.477417	904.635559	21679.900391	1815.215454	4.383000
553.822815	906.493164	21279.630859	1794.633423	4.359369
554.168213	905.155701	20865.615234	1772.045532	4.343036
554.513672	898.468506	20469.361328	1749.903320	4.350516
554.859009	897.502625	20189.314453	1745.370728	4.394963
555.204285	900.994873	19979.705078	1737.197632	4.382910
555.549500	899.360107	19825.302734	1725.309082	4.364110
555.894714	900.846191	19685.763672	1717.061646	4.345057
556.239990	893.861755	19515.087891	1718.547729	4.428741
556.585022	907.756348	19409.876953	1723.080078	4.406650
556.930115	907.310547	19242.544922	1707.848022	4.366115
557.275146	910.728455	19155.687500	1691.427246	4.278984
557.620178	902.406555	19056.642578	1678.944336	4.277447
557.965149	903.223877	18989.472656	1690.684204	4.353918
558.310059	904.709961	18905.138672	1698.188843	4.408111
558.654968	900.697571	18830.017578	1706.287720	4.493144
558.999756	899.508789	18857.732422	1696.405396	4.437503
559.344604	897.354004	18928.099609	1695.216675	4.425012
559.689331	906.716125	18995.640625	1693.359009	4.348754
560.033997	908.945129	19009.013672	1693.061890	4.332120
560.378723	913.849121	19066.671875	1688.975220	4.270003
560.723389	910.728455	19104.789063	1682.882324	4.243989
561.067932	907.384827	19172.255859	1689.866821	4.284081
561.412476	906.418945	19132.576172	1699.897583	4.353516
561.757019	905.452942	19118.384766	1697.074219	4.346479
562.101501	907.459167	19049.656250	1686.597534	4.294620
562.445862	906.344543	18940.654297	1673.891602	4.256038
562.790222	905.378662	18847.703125	1676.120728	4.295665
563.134644	904.041260	18804.384766	1678.869751	4.328568
563.478943	905.601563	18892.359375	1685.779907	4.337515
563.823181	906.493164	19036.136719	1693.210327	4.339396
564.167358	900.177429	19308.009766	1703.166992	4.362217
564.511536	897.948425	19721.205078	1722.337036	4.379628
564.855774	892.672913	20162.935547	1734.448608	4.368263
565.199768	902.183655	20542.994141	1759.785767	4.366429
565.543823	902.703796	20798.669922	1769.296509	4.355620
565.887817	909.316650	21005.750000	1786.163086	4.363194
566.231812	911.545715	21036.511719	1787.128906	4.350731
566.575745	909.911133	20901.503906	1780.887695	4.356714
566.919617	907.756348	20607.265625	1768.627563	4.370013
567.263428	901.960693	20272.384766	1747.971558	4.367539
567.607239	907.607727	19999.990234	1735.414429	4.335795
567.950989	908.127869	19760.365234	1721.817017	4.316141
568.294678	910.728455	19633.751953	1713.420776	4.287194
568.638367	910.282654	19546.373047	1712.603394	4.305199
568.981995	907.904968	19554.025391	1703.835815	4.268613
569.325623	902.555176	19659.236328	1703.538574	4.270390
569.669128	897.651184	19815.421875	1712.974976	4.309830
570.012573	894.827637	20064.632813	1724.566040	4.328362
570.356140	899.211609	20322.982422	1739.352417	4.325323
570.699524	896.462402	20612.169922	1748.045898	4.319315
571.042908	900.400391	20916.662109	1766.695801	4.327958
571.386230	897.428284	21157.253906	1779.550171	4.354045
571.729492	898.096985	21295.160156	1791.290039	4.379028
572.072815	891.929871	21335.060547	1798.422974	4.434218
572.416016	893.861633	21244.783203	1796.119629	4.433499
572.759094	901.960754	21071.210938	1777.915405	4.343020
573.102234	916.524109	20822.818359	1756.293335	4.218611
573.445374	922.468262	20577.691406	1744.553589	4.182528
573.788391	919.719055	20390.375000	1746.708496	4.247363
574.131409	911.768738	20241.472656	1746.113892	4.316389
574.474365	908.350769	20120.806641	1738.980835	4.323394
574.817261	906.418884	20005.634766	1729.767456	4.310902
575.160156	905.972961	19788.375000	1724.863281	4.336791
575.502930	904.858459	19541.466797	1727.984009	4.416713
575.845703	903.075195	19269.443359	1715.798462	4.425063
576.188477	910.133972	18924.455078	1691.427124	4.337067
576.531250	910.356934	18539.123047	1665.718384	4.284823
576.873901	910.431213	18067.376953	1641.792969	4.262774
577.216431	902.034973	17706.931641	1634.882813	4.360919
577.559082	900.771790	17375.693359	1614.226563	4.330550
577.901611	906.493164	17104.857422	1604.493164	4.309077
578.244080	906.938965	16793.751953	1592.233032	4.313603
578.586487	904.189758	16538.818359	1592.456055	4.402192
578.928955	910.505554	16280.247070	1586.660278	4.399259
579.271301	911.620117	16088.100586	1581.830688	4.416113
579.613647	907.310547	15816.078125	1568.307617	4.433613
579.955872	891.335449	15682.184570	1553.818726	4.479008
580.298157	894.158875	15547.101563	1541.855835	4.420252
580.640320	896.536560	15522.656250	1540.964233	4.406005
580.982483	906.121643	15421.381836	1543.564819	4.391538
581.324524	900.028809	15334.077148	1543.416016	4.457427
581.666626	902.480896	15231.538086	1542.524414	4.466753
582.008728	906.344543	15163.550781	1538.066406	4.430895
582.350647	910.951355	15095.415039	1534.796875	4.398090
582.692566	916.152527	15040.133789	1518.152954	4.262257
583.034424	909.168152	14999.043945	1510.945679	4.270992
583.376343	910.728455	14931.355469	1502.326660	4.219485
583.718201	909.762512	14896.803711	1504.407227	4.251398
584.059937	906.641846	14815.367188	1512.357544	4.354933
584.401611	902.332275	14805.411133	1518.524780	4.432058
584.743347	903.892578	14752.656250	1514.735229	4.410810
585.085022	906.195984	14695.518555	1495.342285	4.272482
585.426514	913.403320	14627.011719	1485.608765	4.172537
585.768127	912.065918	14611.778320	1490.884155	4.225039
586.109619	912.363098	14638.528320	1500.320679	4.283480
586.451172	906.418945	14652.792969	1500.023315	4.318262
586.792542	901.886414	14708.148438	1497.497070	4.314062
587.133850	902.257996	14774.946289	1499.354614	4.304116
587.475220	911.768738	14874.809570	1507.007813	4.262961
587.816589	911.843018	14939.304688	1507.750854	4.248151
588.157776	917.861511	15018.362305	1511.985962	4.213499
588.498962	913.923401	15110.721680	1515.403931	4.236734
588.840210	924.994568	15185.098633	1528.927124	4.235120
589.181335	920.462097	15289.864258	1536.431641	4.286675
589.522400	925.663330	15315.127930	1535.391235	4.237322
589.863403	917.267151	15305.989258	1528.406860	4.247352
590.204407	923.285645	15220.690430	1520.976563	4.180416
590.545410	915.781067	15081.223633	1517.930298	4.250833
590.886353	910.208313	14887.961914	1512.877563	4.311632
591.227112	901.737854	14706.143555	1512.208984	4.422292
591.567932	896.833801	14608.731445	1514.437988	4.504148
591.908752	901.217712	14632.731445	1504.630005	4.394361
592.249512	905.527283	14680.135742	1505.075806	4.352563
592.590149	907.533447	14718.031250	1499.428833	4.285837
592.930786	913.180481	14786.985352	1511.614624	4.313410
593.271423	912.957520	14834.166992	1509.459595	4.284844
593.612000	909.762512	15037.460938	1515.181030	4.285330
593.952576	905.972961	15186.584961	1527.441040	4.351831
594.292969	902.629395	15408.304688	1537.249023	4.374975
594.633484	907.236145	15603.421875	1537.620483	4.289442
594.973877	912.734680	15912.075195	1544.307617	4.210671
595.314209	914.740784	16254.687500	1553.298340	4.162711
595.654480	914.146423	16610.894531	1579.229980	4.237079
595.994812	914.220703	16934.111328	1594.833618	4.248549
596.335022	915.781067	17197.363281	1605.756226	4.237765
596.675171	912.140198	17253.312500	1606.722046	4.250502
597.015320	900.103210	17168.832031	1593.198853	4.260294
597.355408	895.570740	16839.300781	1586.437378	4.333156
597.695496	899.062988	16428.109375	1565.409790	4.290970
598.035461	907.459229	15874.554688	1549.063110	4.286763
598.375366	909.391113	15361.046875	1517.781616	4.209832
598.715271	914.072083	14891.825195	1505.001587	4.227643
599.055176	912.957520	14462.950195	1484.122437	4.215241
599.395081	917.935852	14149.020508	1481.150391	4.256752
599.734802	911.099915	13917.567383	1471.193848	4.306273
600.074524	914.517883	13834.051758	1464.506714	4.257033
600.414246	908.350769	13761.754883	1454.698730	4.250609
600.753906	908.425049	13799.204102	1454.773071	4.238286
601.093506	903.075256	13862.286133	1457.001953	4.274386
601.433044	908.945251	14073.307617	1465.695435	4.229223
601.772583	911.545837	14338.418945	1471.639771	4.171440
602.112122	918.901794	14705.846680	1491.701538	4.154653
602.451538	919.942078	15107.081055	1510.054199	4.159486
602.790894	920.982239	15533.503906	1532.642212	4.185862
603.130310	911.843079	16020.484375	1557.756470	4.275126
603.469604	906.939148	16433.607422	1572.914429	4.289235
603.808838	900.994812	16814.185547	1581.830688	4.278437
604.148010	902.480896	17083.013672	1578.561157	4.178356
604.487305	903.372498	17194.095703	1587.180298	4.197529
604.826416	909.539612	17055.447266	1591.935913	4.226435
605.165527	915.038025	16644.033203	1590.895508	4.296889
605.504456	908.053528	16159.131836	1566.078491	4.314613
605.843445	909.019531	15671.187500	1538.586426	4.264732
606.182434	904.709961	15198.101563	1513.472168	4.259047
606.521423	916.672668	14770.043945	1497.868530	4.195339
606.860229	917.861511	14425.500977	1486.277344	4.208107
607.199036	915.112305	14251.335938	1478.029785	4.220966
607.537903	907.830750	14212.104492	1478.698608	4.290861
607.876648	902.109375	14254.679688	1478.549805	4.317075
608.215271	901.440613	14403.582031	1478.995728	4.277507
608.553955	903.446777	14652.273438	1492.964478	4.287767
608.892578	910.133972	14869.386719	1506.339233	4.271040
609.231140	919.050293	15007.515625	1520.902344	4.271949
609.569641	918.753235	14966.054688	1514.289429	4.239506
609.908081	912.660400	14823.765625	1505.670410	4.262853
610.246521	911.842957	14586.143555	1497.571411	4.283425
610.584961	914.889343	14247.323242	1485.014160	4.276225
610.923340	920.387756	13892.676758	1476.246460	4.284970
611.261597	910.431152	13450.426758	1457.002075	4.358621
611.599854	908.573547	13073.859375	1443.256226	4.395151
611.938110	904.635559	12753.393555	1424.160156	4.384634
612.276245	912.140137	12528.403320	1414.575195	4.325273
612.614319	904.264099	12370.288086	1411.305786	4.422123
612.952393	908.202148	12216.628906	1406.178833	4.403589
613.290466	912.363098	12075.973633	1404.767090	4.410795
613.628479	917.787109	11890.590820	1397.262329	4.369669
613.966370	916.969910	11757.143555	1399.194336	4.448493
614.304260	914.815125	11643.831055	1391.318359	4.441258
614.642151	912.585938	11586.468750	1385.225708	4.428002
614.979980	907.830566	11538.618164	1382.030640	4.460630
615.317749	904.487000	11535.719727	1378.538452	4.459045
615.655396	909.836853	11497.305664	1375.343384	4.396769
615.993164	915.335205	11490.768555	1364.420776	4.246498
616.330811	916.524109	11477.838867	1357.733643	4.177600
616.668396	915.038025	11497.604492	1361.374512	4.217658
617.005859	917.564270	11504.811523	1367.392944	4.248778
617.343445	920.610779	11486.531250	1369.101929	4.244695
617.680908	911.917297	11504.141602	1358.179565	4.213112
618.018311	903.372498	11495.968750	1359.814087	4.309062
618.355652	897.576843	11521.082031	1361.523071	4.367167
618.692993	904.561340	11484.674805	1371.628296	4.414574
619.030273	903.223938	11439.870117	1363.009155	4.363677
619.367554	898.171326	11380.874023	1360.037109	4.405980
619.704712	898.171387	11329.382813	1356.767700	4.396386
620.041870	899.211609	11316.675781	1356.693359	4.391489
620.379028	908.350769	11243.933594	1354.315796	4.314851
620.716064	901.589172	11224.094727	1347.999878	4.324635
621.053040	899.731628	11191.104492	1341.015503	4.287901
621.389954	892.672852	11181.742188	1339.678101	4.344467
621.726929	904.264099	11124.378906	1336.928833	4.233462
622.063843	911.991638	11090.573242	1340.792603	4.212777
622.400635	916.821289	11105.953125	1333.139404	4.085904
622.737427	908.945251	11145.629883	1332.767944	4.140234
623.074219	905.007141	11130.176758	1339.900879	4.253169
623.410889	906.641846	11131.366211	1349.188843	4.328205
623.747559	914.592285	11169.929688	1353.646973	4.281231
624.084167	916.598389	11268.007813	1345.696655	4.145313
624.420715	915.112305	11388.675781	1354.612915	4.196285
624.757324	917.341370	11546.049805	1365.535522	4.216826
625.093750	917.564270	11732.028320	1376.234985	4.241271
625.430176	921.279480	11925.290039	1386.488770	4.227634
625.766602	917.044250	12113.945313	1394.067749	4.260317
626.102905	920.462097	12315.527344	1414.946777	4.339463
626.439209	916.078308	12448.602539	1408.333984	4.268412
626.775452	908.053528	12536.355469	1408.779663	4.306098
627.111694	898.394226	12475.797852	1400.234863	4.334656
627.447876	899.583008	12402.239258	1405.064453	4.394476
627.783997	902.109375	12249.992188	1403.801147	4.421017
628.120056	900.177490	12103.913086	1395.702148	4.422852
628.456055	896.388000	11905.227539	1390.946899	4.492380
628.792053	898.765808	11704.907227	1378.389648	4.438437
629.128052	903.000977	11554.148438	1365.758301	4.344671
629.463928	903.223877	11376.637695	1351.937988	4.284316
629.799744	898.542786	11252.625977	1342.575928	4.288484
630.135559	898.468506	11117.840820	1340.718262	4.327563
630.471375	899.285828	11029.718750	1344.582031	4.395629
630.807068	906.938965	10949.620117	1341.238403	4.324536
631.142700	912.883240	10849.088867	1338.489258	4.283386
631.478333	904.932861	10774.266602	1333.213745	4.339511
631.813965	903.223877	10701.524414	1327.046631	4.325472
632.149475	896.165100	10646.019531	1326.006470	4.408695
632.484924	909.762512	10652.260742	1324.446045	4.256440
632.820435	902.926697	10646.242188	1330.836060	4.391825
633.155884	902.555176	10691.864258	1330.093018	4.367396
633.491150	897.056824	10730.798828	1328.606934	4.388463
633.826477	903.892578	10738.600586	1333.882568	4.372169
634.161804	906.939148	10702.043945	1339.380981	4.414877
634.497009	909.539612	10604.559570	1336.111450	4.399907
634.832153	906.344543	10521.636719	1322.068359	4.323569
635.167297	908.127869	10438.566406	1310.997192	4.227186
635.502380	903.966797	10345.465820	1307.059082	4.269367
635.837463	901.143372	10231.633789	1307.430664	4.354404
636.172424	907.087585	10094.396484	1302.972534	4.309042
636.507324	908.276428	9958.496094	1297.696899	4.302884
636.842224	913.403320	9852.243164	1297.919922	4.301639
637.177124	905.452942	9756.244141	1297.399780	4.428382
637.511963	903.000977	9677.706055	1295.022095	4.467627
637.846741	899.805969	9595.230469	1287.889038	4.463072
638.181396	896.165100	9530.809570	1275.257690	4.390367
638.516113	898.096985	9447.145508	1272.656982	4.381306
638.850769	900.177429	9376.631836	1272.879883	4.396914
639.185303	905.601563	9314.143555	1276.446411	4.410335
639.519836	901.217712	9276.471680	1263.740601	4.328500
639.854370	903.669678	9187.382813	1247.394043	4.149400
640.188843	907.979187	9086.999023	1240.112427	4.060795
640.523254	918.010071	9013.440430	1242.490112	4.008188
640.857605	922.542664	8953.477539	1248.805664	4.062578
641.191895	911.174316	8925.094727	1254.155518	4.279818
641.526184	909.911133	8861.120117	1257.202026	4.367774
641.860413	905.898743	8841.503906	1259.728394	4.458761
642.194580	911.842957	8818.171875	1248.062866	4.252541
642.528748	908.202148	8815.051758	1244.050415	4.247561
642.862793	909.168152	8796.178711	1240.855347	4.205487
643.196838	909.985352	8741.566406	1252.000854	4.367132
643.530823	916.152527	8711.697266	1252.223755	4.311068
643.864746	914.963684	8674.545898	1252.669556	4.352114
644.198669	921.130798	8661.839844	1239.146484	4.108354
644.532532	926.034851	8612.279297	1242.861572	4.121996
644.866333	927.743835	8596.081055	1244.050415	4.124839
645.200073	920.164856	8615.772461	1249.400391	4.278227
645.533813	911.545715	8672.761719	1253.264038	4.402897
645.867554	906.493164	8696.315430	1255.270142	4.477342
646.201172	907.310547	8707.907227	1256.979126	4.482588
646.534729	904.932861	8696.315430	1246.576660	4.384893
646.868225	898.617188	8695.721680	1238.403442	4.357852
647.201782	899.805969	8704.934570	1234.316895	4.285784
647.535217	896.165100	8716.081055	1238.775024	4.381248
647.868591	905.155762	8711.250977	1241.301147	4.306191
648.201965	903.595459	8654.409180	1242.044312	4.366623
648.535278	905.898865	8617.778320	1238.180542	4.308699
648.868591	897.056824	8610.942383	1236.694580	4.402940
649.201782	899.062927	8621.418945	1236.768799	4.373094
649.534912	899.657288	8643.263672	1232.087769	4.292967
649.868103	903.669739	8647.722656	1233.202148	4.255297
650.201172	906.716125	8664.291992	1228.892700	4.153058
650.534180	912.511719	8641.555664	1234.242554	4.162621
650.867188	907.979248	8614.658203	1229.635864	4.173738
651.200134	903.298157	8601.283203	1233.053711	4.283661
651.533020	898.988586	8567.327148	1230.898926	4.328321
651.865845	904.338379	8540.354492	1240.186646	4.398213
652.198608	907.459167	8477.420898	1242.415649	4.424811
652.531433	900.103210	8450.894531	1241.375488	4.519689
652.864136	902.629395	8435.141602	1236.694458	4.434976
653.196777	1037.117310	8547.413086	1313.151978	3.675417
653.529358	1040.609497	8493.915039	1308.248047	3.590870
653.861938	1039.420776	8421.470703	1295.988159	3.475558
654.194519	896.685242	8221.076172	1212.174683	4.307381
654.526978	898.542786	8185.856934	1219.084717	4.398629
654.859375	900.400391	8136.371094	1222.948364	4.457563
655.191833	906.344666	8117.126465	1216.186890	4.296930
655.524170	908.053528	8096.990723	1209.276733	4.190094
655.856445	906.716064	8098.179688	1205.858887	4.159693
656.188660	908.870911	8139.937500	1217.301514	4.265354
656.520874	908.276428	8198.859375	1219.456299	4.268244
656.853088	912.734619	8293.668945	1232.682129	4.334783
657.185181	917.415710	8360.616211	1233.053711	4.240622
657.517212	917.490051	8495.699219	1242.341431	4.286651
657.849243	913.106140	8689.406250	1251.555054	4.352313
658.181274	911.248535	8929.180664	1262.328979	4.378691
658.513123	911.174255	9138.937500	1265.598145	4.307658
658.844971	913.849121	9350.700195	1271.691040	4.241416
659.176819	900.994812	9494.550781	1286.551636	4.486581
659.508667	907.904968	9569.000977	1294.873535	4.467894
659.840393	903.298157	9512.754883	1295.170776	4.551653
660.172058	911.694336	9380.050781	1271.616699	4.250203
660.503662	903.075195	9170.442383	1258.019409	4.293316
660.835266	899.880310	8969.377930	1241.895630	4.238372
661.166931	906.716125	8742.235352	1237.734741	4.224591
661.498413	910.505615	8554.843750	1226.737915	4.136817
661.829773	918.010193	8330.820313	1217.450073	4.039492
662.161194	920.164856	8139.565918	1214.403687	4.075668
662.492615	915.112305	7960.941895	1208.459473	4.163415
662.823975	913.551941	7840.349121	1203.852661	4.190980
663.155212	902.332214	7735.210449	1201.549316	4.379078
663.486450	903.149597	7672.572754	1201.920776	4.413539
663.817627	892.227051	7600.648438	1200.954834	4.602093
664.148743	888.734863	7549.082031	1188.917847	4.507017
664.479858	888.660583	7470.692871	1182.527832	4.464689
664.810913	901.366272	7421.727051	1177.400879	4.233425
665.141907	910.356934	7406.495605	1181.115967	4.168000
665.472778	915.112305	7407.907715	1185.425537	4.163280
665.803711	917.564270	7414.669434	1190.478149	4.200546
666.134583	908.722351	7391.857422	1197.016724	4.446836
666.465454	905.973083	7402.631348	1192.112915	4.404416
666.796143	898.914368	7381.826660	1185.945679	4.427506
667.126831	903.372559	7382.940918	1183.790894	4.327732
667.457458	911.545837	7369.417969	1191.592773	4.336520
667.788147	916.078308	7375.882813	1189.437866	4.231700
668.118774	913.997742	7379.448730	1185.499878	4.199276
668.449219	905.973083	7372.761719	1188.546265	4.369606
668.779663	905.304382	7358.124512	1190.403809	4.418214
669.110107	908.573669	7348.019531	1190.478149	4.377776
669.440552	903.818359	7322.236328	1177.400879	4.262460
669.770874	902.109375	7302.992188	1178.366821	4.315927
670.101135	898.320007	7272.156250	1176.509277	4.364550
670.431396	900.623352	7239.166016	1180.596069	4.416989
670.761597	906.641785	7174.225098	1175.543335	4.290355
671.091797	907.979248	7125.854004	1180.744507	4.386792
671.421875	912.586121	7068.714844	1179.184204	4.330613
671.751892	907.459167	7036.765137	1184.979858	4.527767
672.081909	916.672668	6999.910156	1176.732178	4.275018
672.411865	915.855286	6992.183594	1178.589722	4.323901
672.741821	918.158691	6952.654785	1177.029297	4.289846
673.071716	905.378662	6925.385254	1172.125366	4.431004
673.401550	905.304382	6863.193848	1165.809692	4.372443
673.731262	900.400391	6852.865723	1161.277222	4.382668
674.060974	907.236267	6812.816406	1156.447510	4.219928
674.390625	910.208313	6791.640137	1157.859253	4.210725
674.720276	906.864746	6767.640625	1156.298950	4.255993
675.049927	905.229980	6748.544434	1158.676636	4.337379
675.379395	901.589172	6716.669434	1159.642700	4.437661
675.708923	909.019470	6686.947754	1157.413574	4.299017
676.038330	909.539551	6660.941406	1161.797485	4.386025
676.367737	910.802734	6655.963379	1165.215332	4.428294
676.697083	904.412781	6660.867188	1167.072876	4.562880
677.026428	902.034973	6669.412109	1164.026489	4.542646
677.355652	896.536621	6696.235840	1160.757080	4.555761
677.684875	899.880188	6737.176270	1164.249390	4.528967
678.013977	901.069031	6771.578613	1164.249390	4.483092
678.343079	910.059753	6846.699219	1161.648682	4.237901
678.672180	907.087585	6889.942871	1152.509521	4.102087
679.001221	912.065918	7006.523438	1158.973755	4.051351
679.330139	903.298157	7092.714844	1164.100708	4.213686
679.659058	902.778015	7176.751465	1172.719849	4.302566
679.987976	900.623230	7247.115723	1179.704224	4.397405
680.316772	902.778076	7304.478027	1172.719727	4.216718
680.645630	910.802734	7354.854980	1171.976685	4.052946
680.974304	912.065918	7326.024902	1174.205933	4.087024
681.302979	911.471497	7289.765625	1184.682617	4.283452
681.631653	910.208313	7220.664063	1188.472046	4.409566
681.960266	910.431335	7180.243652	1174.503052	4.211796
682.288757	909.465332	7090.485840	1168.707520	4.194165
682.617249	908.499329	6986.833496	1165.438110	4.227125
682.945679	903.298157	6855.540527	1166.181274	4.416539
683.274109	908.350769	6744.904297	1161.277222	4.333490
683.602478	904.561279	6661.685059	1152.286499	4.302934
683.930725	896.313660	6578.614746	1145.747925	4.389670
684.259033	897.353821	6494.652344	1138.466187	4.307656
684.587280	893.861755	6414.925781	1133.190796	4.334836
684.915344	901.737793	6336.090332	1136.905884	4.327435
685.243469	898.691406	6281.255371	1137.723267	4.440855
685.571533	905.081360	6225.304688	1136.980347	4.358821
685.899536	912.065918	6227.756348	1128.435425	4.070393
686.227539	918.381592	6235.930176	1136.311523	4.098316
686.555420	914.072083	6255.769531	1143.072998	4.287044
686.883301	909.613953	6271.892578	1154.367065	4.564349
687.211121	896.016602	6307.706543	1149.314453	4.680568
687.538940	902.480896	6364.027832	1146.639648	4.470506
687.866638	904.338379	6372.572754	1137.574585	4.265293
688.194336	915.260925	6345.453125	1137.054565	4.084453
688.521973	912.140137	6294.332031	1136.682983	4.171959
688.849609	907.384766	6221.589844	1137.277466	4.326004
689.177063	909.985413	6150.407715	1134.899780	4.291913
689.504578	914.666504	6053.442871	1131.407593	4.217757
689.832031	916.746887	5992.736816	1131.333252	4.227479
690.159485	906.790344	5900.898926	1132.150513	4.512521
690.486816	899.583008	5837.370605	1123.085693	4.526373
690.814087	906.716125	5767.748535	1120.633667	4.400661
691.141296	912.734619	5731.562988	1111.568726	4.126192
691.468506	920.462097	5681.929199	1111.494507	4.012049
691.795715	918.233093	5630.882813	1104.064087	3.943238
692.122803	917.935852	5576.567871	1104.658569	4.008102
692.449829	906.270325	5542.908691	1106.739014	4.323578
692.776855	898.691406	5509.917969	1104.435669	4.461812
693.103821	896.685242	5473.509766	1099.011597	4.420671
693.430664	905.452942	5443.268066	1101.834961	4.327678
693.757568	905.898743	5428.779785	1101.612183	4.327186
694.084351	903.743958	5414.067871	1104.361328	4.447959
694.411133	900.400391	5388.061523	1105.401489	4.568106
694.737854	900.920410	5380.928711	1107.333496	4.607427
695.064575	899.805969	5399.578613	1103.098267	4.517835
695.391174	905.527344	5433.089355	1094.999146	4.184853
695.717773	906.493225	5447.949707	1095.816528	4.168779
696.044250	915.335205	5474.921875	1101.760742	4.088650
696.370789	912.214417	5540.605469	1110.379883	4.281519
696.697205	912.214417	5638.833496	1116.249756	4.316729
697.023621	899.434387	5764.033691	1121.302368	4.560869
697.349915	896.313660	5924.527344	1130.813110	4.663673
697.676208	899.805969	6141.863281	1134.899780	4.484763
698.002380	905.675842	6384.981934	1145.748047	4.381434
698.328674	912.734619	6624.607910	1146.491089	4.092466
698.654724	904.338379	6794.612793	1153.326782	4.227110
698.980896	905.378662	6909.039063	1155.035767	4.158415
699.306946	907.310547	6912.010254	1160.311401	4.213381
699.632935	915.260925	6841.497559	1159.642578	4.123724
699.958862	921.056580	6677.287598	1143.073120	3.856978
700.284729	915.929688	6483.357910	1129.401245	3.834294
700.610596	910.431213	6252.053223	1117.141357	3.869801
700.936340	901.514893	6057.157715	1123.160034	4.299079
701.262146	893.713135	5831.128906	1120.262085	4.588411
701.587830	901.812195	5641.210938	1118.627441	4.574741
701.913513	909.019531	5435.466797	1110.156860	4.443603
702.239075	913.551941	5291.319824	1103.321167	4.334840
702.564697	905.898743	5182.837891	1095.816528	4.440507
702.890137	903.149597	5094.789063	1094.702026	4.569869
703.215698	900.920471	5003.173340	1090.392456	4.618730
703.541016	908.202148	4912.003906	1077.240845	4.221955
703.866455	909.316650	4853.156250	1071.445313	4.110934
704.191711	910.579895	4812.215820	1065.946777	3.982096
704.517029	902.257996	4780.711426	1074.788940	4.448447
704.842163	900.920471	4753.813965	1070.330688	4.396961
705.167419	900.549011	4739.473633	1076.126343	4.573607
705.492493	901.440613	4732.043457	1080.064331	4.663071
705.817566	904.635559	4701.802246	1077.166504	4.543676
706.142578	910.579773	4705.294922	1078.875488	4.435003
706.467590	912.511658	4698.755859	1070.405029	4.170185
706.792480	909.539612	4722.012207	1071.668213	4.252584
707.117371	910.282715	4708.340332	1065.352417	4.082869
707.442200	919.347656	4716.513672	1061.340088	3.739432
707.766907	917.341492	4729.516602	1061.785889	3.789028
708.091675	912.140137	4754.779297	1063.346191	3.934953
708.416321	903.743958	4781.751465	1066.912720	4.207541
708.741028	906.270264	4804.042480	1064.609253	4.062294
709.065552	911.768738	4814.519531	1062.380249	3.859112
709.390137	914.889404	4811.844238	1063.791992	3.820999
709.714600	913.700623	4803.373535	1063.866333	3.860626
710.039063	904.932922	4830.048828	1067.655762	4.145682
710.363403	895.645020	4869.949219	1072.782593	4.457071
710.687744	893.267273	4939.867676	1082.590576	4.678577
711.012085	896.610901	5005.253906	1084.448120	4.571758
711.336304	898.691406	5065.587891	1091.952759	4.638017
711.660461	902.109314	5104.002441	1091.061157	4.496827
711.984619	901.960754	5086.467285	1088.980713	4.469343
712.308716	897.725525	5032.448730	1083.928101	4.503387
712.632751	894.976318	4953.391113	1077.983887	4.509336
712.956726	898.542786	4886.072754	1082.070679	4.602546
713.280701	909.539551	4843.273926	1078.652466	4.299043
713.604553	908.499329	4797.875488	1077.389404	4.342343
713.928467	902.852356	4761.912598	1069.513306	4.318693
714.252258	897.205383	4726.916504	1071.147949	4.541924
714.575989	897.725403	4712.427246	1073.302734	4.602649
714.899719	895.793640	4717.107910	1076.126343	4.719128
715.223267	899.954590	4737.318848	1073.228516	4.515441
715.546936	904.709961	4749.207031	1071.965332	4.350513
715.870422	908.796570	4753.665527	1073.748657	4.290187
716.193970	903.298157	4736.946777	1071.222290	4.380269
716.517395	908.499329	4700.761230	1075.234741	4.396727
716.840820	911.397156	4656.997559	1082.293457	4.562588
717.164124	921.576660	4594.583008	1084.596802	4.438330
717.487488	914.294922	4519.462891	1084.151001	4.711461
717.810730	909.390930	4446.126465	1069.959229	4.540014
718.133972	902.183594	4366.770996	1059.036743	4.527326
718.457092	902.034973	4297.446777	1050.566162	4.374467
718.780212	913.180481	4225.818848	1050.566162	4.147319
719.103210	917.787170	4166.524902	1049.897461	4.066511
719.426208	916.969910	4113.324707	1042.690063	3.933235
719.749207	913.626221	4065.176025	1041.352661	4.052814
720.072083	909.465332	4032.631592	1040.683838	4.201458
720.394958	909.613953	4019.479736	1046.405151	4.398621
720.717773	905.898743	3974.229736	1038.900635	4.334666
721.040527	912.660339	3936.112549	1037.711792	4.136049
721.363281	914.220703	3908.174561	1036.745728	4.092415
721.685913	908.945129	3913.301514	1030.875854	4.058464
722.008545	900.846191	3896.805908	1027.606567	4.231044
722.331055	898.468506	3862.180908	1013.711975	3.888484
722.653503	907.013367	3823.989502	1018.170227	3.810688
722.976013	911.397156	3819.531250	1019.507629	3.717520
723.298401	908.945129	3829.339111	1024.857422	3.969064
723.620789	898.840027	3835.060547	1020.622253	4.147584
723.943115	897.428284	3817.748291	1024.337280	4.345722
724.265381	897.279724	3795.234619	1026.566528	4.461312
724.587585	902.926758	3783.643311	1029.984253	4.410621
724.909790	905.898743	3788.696045	1026.343506	4.178051
725.231873	906.939026	3805.860107	1026.863647	4.136871
725.553894	911.099915	3839.147461	1031.544556	4.113480
725.875916	951.594971	3909.735107	1076.646362	4.227365
726.197937	954.715637	3928.682373	1073.897339	4.007499
726.519775	951.520691	3933.066162	1070.627808	3.994812
726.841675	909.316711	3902.676514	1025.080200	3.867343
727.163513	907.830627	3920.508789	1026.789185	3.948598
727.485291	903.000977	3946.960205	1033.699463	4.293700
727.806946	903.669617	3980.991211	1040.386719	4.442730
728.128662	899.508728	3988.495850	1045.885132	4.738654
728.450256	905.527283	3980.248047	1044.399048	4.516565
728.771790	905.527161	3956.322998	1041.129761	4.444827
729.093323	911.397156	3946.440430	1043.878906	4.365070
729.414795	910.579773	3939.901611	1041.575562	4.324261
729.736145	910.431152	3936.781006	1042.541504	4.365336
730.057495	915.781006	3951.270264	1034.145386	3.899351
730.378845	913.254700	3982.774170	1030.504517	3.819810
730.700134	902.034973	3996.446045	1031.098755	4.170867
731.021301	891.929932	4022.006104	1035.259766	4.579116
731.342468	896.611023	4043.182617	1042.169922	4.625952
731.663574	910.282715	4084.271729	1047.742554	4.330823
731.984680	916.969910	4096.605957	1052.943848	4.276400
732.305664	909.242371	4098.389160	1057.847778	4.659723
732.626648	905.898743	4089.844482	1055.024414	4.683675
732.947571	900.400391	4088.432861	1052.572388	4.773226
733.268433	911.768738	4073.423828	1046.999634	4.277218
733.589233	911.917297	4059.826416	1049.228760	4.361989
733.909973	915.112305	4006.477295	1045.216431	4.208631
734.230713	910.802734	3943.171143	1040.460938	4.275806
734.551331	904.115417	3864.410156	1031.841919	4.314655
734.871948	904.561279	3824.806885	1026.937988	4.190631
735.192505	910.134033	3787.952393	1015.866699	3.674056
735.513062	915.929626	3757.934570	1015.643860	3.508588
735.833435	912.660339	3707.037109	1016.535461	3.717291
736.153931	906.790344	3669.885742	1023.074158	4.208462
736.474304	909.168152	3620.400391	1017.575745	3.998462
736.794617	913.477722	3606.208252	1019.433350	3.934877
737.114807	910.951355	3583.992188	1019.879211	4.075054
737.434998	908.722229	3605.985596	1021.142334	4.167932
737.755188	901.812195	3594.617188	1013.043274	4.130677
738.075256	899.508728	3611.855469	1013.191895	4.191321
738.395325	897.279602	3627.384766	1015.049500	4.313749
738.715271	904.189758	3670.406006	1021.885315	4.254749
739.035278	910.431213	3696.560303	1025.005981	4.112328
739.355164	909.019531	3703.841797	1026.863647	4.216516
739.675049	904.115540	3685.934814	1031.396118	4.575444
739.994873	908.202148	3662.306641	1031.544678	4.478498
740.314636	909.613953	3628.870361	1029.166992	4.396534
740.634277	914.072083	3583.768799	1027.532349	4.249931
740.953979	906.716125	3540.376221	1019.359070	4.277050
741.273499	912.140198	3497.428955	1019.730530	4.161637
741.593140	907.384766	3467.188232	1012.003113	4.086968
741.912598	911.025574	3437.169922	1013.117676	4.041420
742.232117	914.889343	3396.749023	1016.981384	4.113530
742.551453	920.164856	3361.455078	1017.873047	4.002317
742.870850	920.239197	3333.814453	1019.879150	4.128314
743.190063	912.065918	3307.362549	1018.393066	4.438997
743.509338	910.579895	3281.728271	1015.792480	4.437200
743.828552	908.945251	3254.310547	1017.055664	4.609534
744.147705	909.242432	3246.805908	1007.767822	4.214876
744.466797	918.158752	3239.227295	1005.984558	3.783852
744.785828	916.598389	3232.985596	1004.498535	3.794709
745.104858	917.118591	3218.496826	1003.904053	3.771021
745.423706	905.230164	3207.946045	1002.269348	4.214119
745.742615	904.264160	3186.323486	1002.418030	4.301109
746.061401	906.938965	3171.760498	1003.829773	4.278077
746.380249	909.390930	3159.128906	1009.476807	4.448779
746.698975	910.133972	3159.203125	1001.452148	4.060266
747.017639	910.654114	3155.785156	1004.647156	4.186528
747.336304	913.329102	3150.137939	1002.938171	4.006112
747.654907	910.356934	3136.689453	1014.157898	4.662420
747.973389	909.539551	3135.128906	1006.801941	4.370186
748.291931	904.264099	3143.302002	1004.795715	4.489947
748.610352	904.264160	3151.846924	1001.600586	4.330716
748.928711	908.276428	3150.509766	1001.303406	4.148853
749.247070	908.499451	3148.503174	1000.411804	4.103223
749.565308	913.031799	3144.045166	994.764832	3.663494
749.883545	909.168152	3135.797607	1000.931946	4.121197
750.201782	912.957520	3115.290283	997.811279	3.852904
750.519836	916.524109	3106.447998	1002.343750	3.918841
750.837952	906.493164	3114.472900	994.987732	4.007943
751.155884	909.762512	3116.181641	1000.040344	4.091599
751.473877	905.378662	3103.401611	1000.188904	4.313433
751.791809	915.186584	3085.123291	996.845215	3.763180
752.109619	912.511719	3086.163818	989.340637	3.534554
752.427490	906.344543	3081.111328	980.647278	3.416584
752.745300	909.316650	3064.021484	995.656433	4.007035
753.062988	901.663513	3037.123779	1000.931946	4.648573
753.380615	908.796570	3043.439453	1004.201233	4.469350
753.698303	904.189880	3044.479736	995.136292	4.249257
754.015808	907.979248	3046.857422	992.832947	3.967206
754.333374	907.533386	3039.278564	989.637939	3.851518
754.650757	907.904846	3037.346436	985.625671	3.649822
754.968262	911.545715	3034.077148	993.501709	3.861238
755.285583	905.675781	3025.755127	996.473816	4.282766
755.602905	907.310547	3022.188721	1002.046570	4.479503
755.920105	900.400391	3009.780273	1005.538757	4.984326
756.237305	903.149597	3005.248047	1009.773987	5.072283
756.554443	900.103088	3001.978516	1007.024719	5.086963
756.871582	907.756348	3029.024658	998.702881	4.287366
757.188599	912.660339	3044.033936	994.244690	3.827783
757.505615	912.883301	3067.141846	991.644104	3.656052
757.822510	909.168152	3077.618896	994.913513	3.954222
758.139465	904.932800	3100.578125	996.696777	4.179363
758.456238	901.960693	3123.760498	1004.498535	4.615080
758.773010	900.846191	3150.286865	1001.972229	4.495608
759.089783	899.954590	3172.726318	999.074402	4.361187
759.406433	901.737793	3174.732422	997.142517	4.197314
759.723145	906.418945	3172.651611	995.284912	3.921308
760.039673	903.743958	3167.896484	1001.749268	4.328565
760.356201	903.669678	3184.094482	999.371582	4.196670
760.672668	899.954529	3190.410156	998.257019	4.291831
760.989136	902.406494	3203.561768	996.250916	4.078144
761.305481	903.743958	3202.075928	996.028015	4.015262
761.621826	906.641785	3218.050781	998.034180	3.953969
761.938049	907.236145	3240.044678	1004.201233	4.156581
762.254333	908.276367	3276.378662	1004.275574	4.053845
762.570496	909.911133	3351.795898	1010.591309	4.123052
762.886597	914.443604	3475.955811	1006.504700	3.594013
763.202637	914.815125	3686.752686	1014.232117	3.586552
763.518677	905.007141	3974.080811	1027.160767	3.980146
763.834656	898.617126	4255.093750	1035.185425	4.068799
764.150574	891.335449	4442.410645	1042.615845	4.260129
764.466370	894.233215	4440.999512	1045.067749	4.252734
764.782288	900.103088	4325.979004	1046.925415	4.285687
765.097961	908.722168	4159.615234	1050.046021	4.347232
765.413696	907.979187	3971.109375	1038.454956	4.259557
765.729309	907.904968	3779.779541	1031.841919	4.315542
766.044861	905.452942	3592.016602	1019.284668	4.237075
766.360474	912.363098	3467.782471	1012.671814	3.925333
766.675903	912.140198	3364.873047	1007.322021	3.880644
766.991394	915.038025	3283.511719	1005.910156	3.836738
767.306763	913.329041	3213.592529	1001.600769	3.837462
767.622131	911.174316	3162.621094	992.090027	3.593943
767.937378	909.093750	3117.221924	987.260315	3.539947
768.252625	903.075195	3060.900391	990.752441	4.063223
768.567810	901.514893	2998.857666	990.455261	4.240622
768.882996	898.468506	2956.356689	988.671875	4.383298
769.197998	899.805969	2911.106445	980.201416	3.997187
769.513062	897.502625	2888.369873	983.247864	4.306929
769.828064	901.737793	2858.945557	981.761902	4.088687
770.142944	902.778076	2836.580322	990.455261	4.533927
770.457825	904.412781	2813.917969	992.535828	4.614968
770.772705	907.756348	2788.878174	993.204407	4.542399
771.087402	909.391113	2773.720459	986.814453	4.152879
771.402100	910.579895	2751.132568	981.761902	3.867425
771.716736	899.657410	2729.213135	977.229309	4.239931
772.031372	896.908203	2715.764404	972.994141	4.183175
772.345947	904.264099	2699.269287	964.969421	3.381902
772.660461	908.499329	2688.049561	967.495789	3.315245
772.974854	910.728333	2669.473877	971.953918	3.481208
773.289246	905.824463	2660.557617	986.888733	4.619749
773.603638	910.282715	2640.198486	988.672058	4.531396
773.917908	909.836914	2619.913818	985.254089	4.410163
774.232178	908.202148	2600.520752	980.424377	4.267650
774.546265	900.103210	2591.158936	978.343933	4.626739
774.860474	905.675842	2572.731689	976.412109	4.243185
775.174561	908.053528	2565.449951	977.155090	4.169284
775.488586	915.409485	2560.100342	969.353333	3.279877
775.802551	907.979248	2548.137695	975.817627	4.136087
776.116516	904.561340	2537.735352	971.136536	4.076430
776.430359	903.966980	2519.531006	978.789734	4.631371
776.744202	908.945129	2527.035645	973.142761	3.967493
777.057922	910.654114	2522.800293	969.650452	3.659490
777.371704	904.264099	2523.543457	966.678406	3.854450
777.685303	899.211426	2506.676514	965.043762	4.095413
777.998962	901.143372	2497.240234	973.514343	4.534246
778.312500	901.440613	2498.131592	973.217041	4.495324
778.626038	905.452942	2511.654785	970.690674	4.061615
778.939453	902.703796	2502.961426	968.015808	4.081344
779.252869	903.372498	2488.918213	972.622620	4.367589
779.566223	897.131104	2475.766602	974.851746	4.923280
779.879578	901.143372	2479.927490	969.204773	4.311001
780.192749	905.898743	2485.723389	961.774414	3.536827
780.505920	915.112305	2476.138428	964.672180	3.174827
780.819031	913.403320	2453.847412	969.353271	3.632066
781.132141	915.781006	2434.156982	976.412109	3.993155
781.445190	918.827454	2432.002197	971.805359	3.501109
781.758118	917.787109	2425.166504	968.387390	3.356838
782.071045	915.186584	2411.197510	963.334778	3.218438
782.383911	910.579834	2399.160400	961.997314	3.454128
782.696838	902.778015	2397.748779	964.820801	4.150100
783.009583	898.765808	2392.101807	970.542053	4.806437
783.322266	897.205322	2370.256836	976.412048	5.377051
783.634888	904.858582	2362.455078	973.291260	4.694899
783.947510	908.870911	2355.916260	968.981689	4.154036
784.260132	907.310547	2352.944336	970.393555	4.363692
784.572571	903.372498	2345.439697	972.251160	4.776384
784.885010	908.499329	2340.312744	974.405945	4.603017
785.197449	913.551941	2330.876221	967.570007	3.811271
785.509766	913.626282	2312.374756	966.752625	3.798134
785.822083	903.743958	2303.532959	961.700012	4.140342
786.134277	900.103210	2300.263672	961.848816	4.409895
786.446533	905.378601	2307.173584	963.632019	4.155631
786.758606	915.038086	2305.836182	962.591797	3.419167
787.070740	920.387878	2307.768311	971.879578	3.711433
787.382690	920.610657	2319.359375	961.031311	2.889772
787.694641	915.483826	2354.504639	956.647461	2.860531
788.006653	912.957520	2394.108154	948.474182	2.397910
788.318481	911.620117	2436.163330	961.105713	3.245929
788.630310	908.276428	2478.292969	974.480164	4.216754
788.942017	909.093811	2512.026611	975.817627	4.162608
789.253784	908.127930	2531.344971	972.994141	3.996151
789.565430	908.127930	2516.781982	966.083984	3.602767
789.877014	909.019470	2488.026611	975.223206	4.192745
790.188538	908.870850	2433.785645	978.121094	4.541254
790.500061	911.025635	2384.300049	978.343994	4.569302
790.811462	901.737793	2346.925781	974.108704	5.007716
791.122925	902.926697	2315.867188	970.987976	4.816996
791.434204	899.583008	2289.118164	965.192383	4.721678
791.745483	903.595398	2265.266846	953.972656	3.699663
792.056702	905.972961	2253.230225	953.749695	3.546222
792.367920	905.898682	2237.106201	953.749695	3.594557
792.678955	901.589172	2222.468750	955.384338	4.072677
792.990112	895.199219	2212.140625	953.749756	4.445949
793.301086	902.035095	2211.248779	956.721863	4.177070
793.612122	906.270325	2201.663818	961.328613	4.250314
793.922974	907.384827	2188.066406	958.802246	4.014848
794.233826	900.920471	2182.270752	958.950867	4.528847
794.544556	898.319885	2193.416260	958.653748	4.658638
794.855286	904.487061	2196.462646	956.276062	4.008512
795.166016	904.858582	2208.053955	956.053162	3.928389
795.476624	910.654114	2212.066162	952.338074	3.202979
795.787292	902.629456	2240.449951	952.337952	3.715632
796.097778	901.366211	2264.003906	962.888977	4.514976
796.408264	901.737793	2290.901367	967.347107	4.722937
796.718689	903.892578	2313.637939	972.176758	4.843724
797.029053	909.242371	2318.690674	966.232605	4.043443
797.339355	910.877014	2317.055908	960.511230	3.529723
797.649658	911.025635	2311.854736	960.288391	3.516686
797.959839	905.898743	2291.421631	959.099548	3.839764
798.270020	905.824463	2265.564209	969.056152	4.650279
798.580078	905.230042	2232.648193	968.461670	4.763505
798.890137	908.870911	2209.317139	963.260498	4.182379
799.200195	904.264099	2194.679443	956.201721	4.024877
799.510071	906.344543	2177.441162	949.588806	3.402122
799.820007	903.223877	2170.531250	953.898376	3.998596
800.129883	895.942200	2154.704590	951.297791	4.397620
800.439575	896.016602	2143.261963	960.659912	5.182887
800.749329	897.279602	2138.209229	958.133606	4.903904
801.058960	902.406494	2131.670654	960.511230	4.726790
801.368591	902.332214	2123.051514	955.235840	4.333808
801.678162	897.056824	2104.030029	952.263733	4.573997
801.987671	902.629456	2097.937256	946.170898	3.642697
802.297119	902.109375	2097.045654	947.211121	3.774406
802.606506	908.127869	2086.791992	947.656921	3.353717
802.915894	904.561340	2078.247070	956.647522	4.437830
803.225159	903.521057	2061.603271	954.938538	4.439881
803.534424	902.852356	2061.528809	960.065491	4.937800
803.843628	899.211609	2058.854248	948.177063	4.222461
804.152771	901.440674	2057.516602	952.263672	4.396164
804.461792	902.332214	2060.414307	952.560974	4.337237
804.770874	908.053528	2051.349365	959.322449	4.484309
805.079773	909.242371	2067.324463	953.303894	3.804698
805.388733	911.471436	2071.188232	945.204895	2.908767
805.697571	905.304382	2102.469727	950.629089	3.786002
806.006470	904.932800	2114.655518	955.681641	4.195081
806.315125	905.007080	2125.875244	956.201721	4.193298
806.623901	909.762512	2120.525635	954.790039	3.718938
806.932495	907.087585	2107.819580	956.944763	4.152232
807.241150	910.133972	2099.720703	957.241943	3.960028
807.549622	911.545715	2085.454346	952.932373	3.525543
807.858154	916.078186	2075.795166	944.536194	2.453875
808.166565	911.397156	2060.562744	947.359680	3.129447
808.474915	907.979187	2048.006104	951.297791	3.799788
808.783264	902.480774	2027.572632	952.189392	4.418183
809.091492	900.623291	2013.678101	950.926208	4.519357
809.399719	900.028809	2001.863892	947.731140	4.329353
809.707825	895.199219	1993.393433	948.919983	4.891736
810.015930	891.558350	1972.737305	948.399902	5.257368
810.323975	891.632629	1968.501953	945.947937	5.043816
810.632080	904.264160	1967.907593	947.805420	4.093596
810.939880	907.161926	1970.656860	945.353516	3.591140
811.247864	911.545837	1953.121460	942.901550	3.010411
811.555664	902.852356	1943.536499	938.963562	3.469949
811.863464	908.722351	1944.279297	939.557922	2.977680
812.171143	907.384766	1939.301147	939.409363	3.103410
812.478882	907.830566	1932.985352	938.443359	2.986163
812.786438	904.338379	1918.942017	940.152344	3.529848
813.094055	908.127869	1924.291992	940.003723	3.136881
813.401489	910.356934	1918.570679	939.037842	2.844725
813.708984	909.019531	1914.558228	943.198730	3.399093
814.016357	894.233337	1912.329102	949.663086	5.444453
814.323730	888.066162	1907.945313	955.384338	6.600603
814.630981	887.768982	1904.750122	953.378174	6.451367
814.938232	897.205383	1888.552124	954.492737	5.778740
815.245361	900.920593	1893.381714	955.830261	5.532677
815.552490	901.737793	1901.629395	952.115051	5.038272
815.859619	899.211487	1909.059570	950.331848	5.062183
816.166565	898.914307	1909.802856	952.263672	5.277472
816.473572	898.468506	1901.481079	951.594971	5.296690
816.780457	900.697571	1903.264282	948.771484	4.795084
817.087341	897.799805	1895.313843	941.266907	4.357543
817.394043	903.223877	1906.087769	947.136780	4.378750
817.700806	903.000977	1916.712891	946.913879	4.331892
818.007507	905.824463	1939.449585	951.594971	4.428154
818.314209	903.000977	1947.845825	954.344177	4.913955
818.620667	907.681946	1959.065430	958.579407	4.840999
818.927246	911.099915	1979.870239	956.053162	4.206072
819.233704	912.363098	2008.774048	955.310120	3.917055
819.540161	910.802734	2063.832275	952.412354	3.608721
819.846497	906.938965	2133.899658	956.870422	4.069524
820.152832	902.629456	2233.836914	956.127441	4.018756
820.458984	900.697571	2339.198242	956.424622	3.873967
820.765259	901.886414	2444.485107	957.539124	3.607725
821.071350	905.230042	2572.657227	960.659851	3.324271
821.377502	910.728455	2764.358154	964.003479	2.874092
821.683472	910.356934	3162.100830	986.145752	3.365783
821.989441	904.635681	3914.936279	1022.999817	3.931971
822.295349	899.880188	5134.837891	1081.921875	4.298548
822.601196	902.034973	6647.419434	1150.503296	4.324660
822.907043	912.140198	8054.563965	1206.601929	4.122715
823.212769	916.226868	8881.999023	1243.530273	4.108872
823.518494	914.666504	8906.295898	1232.756470	3.980289
823.824097	902.332214	8231.477539	1196.645386	4.015655
824.129700	898.319885	7153.196777	1153.104004	4.073368
824.435242	897.353943	6026.916504	1109.339722	4.132629
824.740723	904.932861	5062.318359	1077.092285	4.141050
825.046082	902.257996	4340.839355	1045.662231	4.170448
825.351501	910.133972	3813.067139	1024.634521	3.944305
825.656799	909.465332	3452.030273	1012.374573	4.047458
825.962036	910.802734	3210.323242	1001.377747	3.938865
826.267212	911.694397	3113.432373	998.108459	3.924811
826.572449	916.747009	3126.658447	998.331360	3.691748
826.877502	923.880066	3307.882813	1000.560364	3.216452
827.182495	921.428040	3598.554932	1017.724365	3.597003
827.487488	920.387756	3964.867432	1028.869751	3.563236
827.792419	905.601563	4267.502441	1053.761108	4.407017
828.097290	900.325989	4383.563965	1051.086304	4.328166
828.402100	892.895813	4266.536621	1053.389648	4.757288
828.706848	899.731689	3946.811768	1040.089478	4.606305
829.011597	899.062988	3528.859131	1024.114380	4.755174
829.316223	898.468506	3118.559326	998.554199	4.508180
829.620789	900.994812	2777.733154	975.743347	3.982896
829.925354	899.880188	2531.047852	969.353333	4.259105
830.229797	909.539551	2349.971924	969.130371	4.137009
830.534302	912.734680	2215.038330	977.823792	4.997998
830.838562	920.313477	2116.587158	973.737122	4.465838
831.142944	912.214539	2050.086426	972.176819	5.269687
831.447144	904.561340	2014.346680	954.269836	4.479109
831.751404	895.273499	1989.678223	949.440125	4.949414
832.055542	888.586243	1962.855103	945.353516	5.284271
832.359619	885.316895	1947.474243	951.966492	6.274927
832.663635	894.010315	1970.062378	954.344177	5.606965
832.967651	896.462341	2035.820313	955.978821	5.223686
833.271545	904.041260	2161.020264	957.762146	4.273809
833.575439	901.440613	2356.733643	959.025330	3.956916
833.879211	905.230042	2621.177002	969.056091	3.719582
834.183044	902.629395	2893.125000	979.458496	3.859798
834.486694	900.623291	3097.680420	989.860840	4.061686
834.790344	900.549011	3156.305420	990.603821	3.992222
835.093933	904.041199	3090.844727	986.294373	3.761343
835.397522	904.784180	2902.041260	979.086975	3.720242
835.700928	902.332214	2683.814209	968.758972	3.728736
836.004395	903.966980	2449.388916	966.083984	4.019421
836.307739	907.162048	2272.251221	960.214050	3.886340
836.611023	914.443665	2123.125732	952.115051	3.116732
836.914307	909.539551	2016.575806	938.889160	2.651188
837.217529	903.372498	1918.644897	937.997559	3.410421
837.520691	889.329285	1853.927124	938.591980	5.107071
837.823730	890.964050	1793.444824	943.050110	5.771431
838.126831	897.428223	1755.179077	945.427917	5.595995
838.429749	911.545715	1711.340332	946.765320	4.403581
838.732727	911.842957	1680.504517	946.913879	4.562596
839.035522	907.384827	1659.774048	944.164734	4.888415
839.338379	904.635559	1662.746460	939.186523	4.557508
839.641113	904.784180	1680.653320	937.774719	4.252075
839.943848	913.774902	1720.851074	936.808777	2.853990
840.246460	917.564392	1777.172485	937.328796	2.299234
840.549072	914.963684	1842.707520	941.043945	2.811149
840.851563	911.174255	1880.081665	938.517639	2.822084
841.154053	913.329041	1891.152832	943.050110	3.039512
841.456482	918.010193	1851.252319	937.700256	2.109856
841.758850	904.635681	1792.627563	939.632141	3.941079
842.061157	895.124939	1709.333984	937.774658	5.238178
842.363403	893.787415	1632.950806	931.533203	5.106555
842.665588	903.966980	1579.898804	930.344421	3.902382
842.967712	904.412781	1542.970337	928.338196	3.746791
843.269775	899.434387	1527.663940	937.180176	6.008280
843.571777	892.524231	1507.082031	930.641602	6.202406
843.873840	894.456238	1488.357788	927.966614	5.642413
844.175659	894.307617	1470.302246	920.536438	4.553657
844.477600	900.400391	1452.841187	927.075012	4.828503
844.779297	894.456238	1436.420288	932.424866	7.005746
845.081116	897.056824	1433.373901	932.722107	6.650037
845.382751	896.462341	1424.754761	932.201965	6.765121
845.684387	904.189880	1419.256470	923.805725	3.808409
845.985962	901.886475	1402.241089	917.787170	3.177885
846.287537	902.852356	1389.089355	913.106140	2.108804
846.588989	899.211487	1383.665161	914.220703	3.098174
846.890381	907.310547	1367.690063	915.929626	1.872168
847.191711	909.688171	1357.733643	909.613953	-0.016565
847.493042	907.607666	1349.188843	911.620117	0.908655
847.794250	904.115479	1359.888550	913.923523	2.151958
848.095459	899.805908	1359.739868	926.480652	5.799690
848.396606	904.338379	1355.355957	927.520935	5.140056
848.697693	898.691406	1343.095947	920.387878	4.882144
848.998657	903.000977	1347.034058	916.969910	3.145922
849.299622	907.161926	1342.575806	907.533447	0.085326
849.600464	913.403381	1342.798828	911.917297	-0.346088
849.901367	909.093811	1335.145630	906.418945	-0.627826
850.202087	897.799805	1322.662720	908.127747	2.430888
850.502808	889.626465	1312.483276	912.288818	5.359344
850.803467	896.611023	1309.734131	910.579834	3.381271
851.104065	906.493164	1320.136475	921.353760	3.592611
851.404663	912.585999	1312.186035	918.530273	1.487556
851.705139	908.499329	1307.876465	922.839783	3.590705
852.005615	909.168030	1301.337769	918.084473	2.273618
852.306030	915.558105	1302.378052	914.889404	-0.172871
852.606384	916.524109	1302.378052	916.969788	0.115505
852.906616	916.226868	1300.669067	913.849121	-0.618493
853.206909	912.957520	1305.424438	922.096680	2.328645
853.506958	916.746887	1298.068481	922.096741	1.402977
853.807129	915.409485	1293.833374	926.703430	2.984469
854.107178	912.808838	1286.551636	926.852112	3.757470
854.407166	906.344543	1284.768433	924.251526	4.731990
854.707092	906.716003	1281.573364	921.576660	3.964350
855.007019	909.762451	1276.669434	920.759277	2.997170
855.306763	910.133972	1273.400024	920.016296	2.720409
855.606567	908.573669	1267.901611	918.901672	2.874255
855.906250	902.629395	1269.536255	921.576660	5.164053
856.205933	905.973083	1259.134033	924.548828	5.259852
856.505493	902.778015	1260.768677	927.297913	6.849312
856.805054	907.459167	1271.913940	919.570496	3.323136
857.104492	906.195984	1283.505249	920.684998	3.840090
857.403931	911.397156	1289.598022	922.394043	2.907684
857.703308	908.870850	1284.173950	927.372314	4.929739
858.002563	910.505554	1285.214233	920.833679	2.756308
858.301819	911.397217	1280.978882	920.610657	2.492938
858.601013	914.220703	1265.003784	921.130859	1.969923
858.900208	914.294922	1255.790405	920.387878	1.784198
859.199219	914.294983	1242.341431	918.158691	1.177793
859.498291	916.746887	1248.508667	917.341370	0.179190
859.797302	908.053528	1250.514771	917.267090	2.690396
860.096191	899.360168	1260.025513	922.616882	6.448281
860.395020	892.821472	1249.474487	923.285645	8.541683
860.693787	896.685242	1249.920410	933.316467	10.370209
860.992554	897.948425	1246.428101	930.790222	9.424308
861.291260	903.223938	1248.285645	919.793396	4.801883
861.589844	902.035156	1233.425171	915.038025	3.923736
861.888428	911.917297	1229.264160	905.452881	-2.037019
862.186890	907.013367	1230.081543	913.254700	1.931893
862.485413	913.254700	1235.728516	909.539551	-1.152078
862.783813	909.242432	1239.889526	915.558105	1.910095
863.082153	909.762512	1242.713013	917.638672	2.365565
863.380371	913.477722	1240.038086	920.016357	2.002275
863.678589	914.294922	1238.774902	917.861572	1.099190
863.976746	919.867676	1240.038208	914.740906	-1.601262
864.274902	913.031738	1246.205200	914.592285	0.468389
864.572937	906.418945	1248.582886	917.341370	3.192161
864.870911	901.514893	1244.124756	920.090637	5.421836
865.168884	898.022705	1247.468384	914.592224	4.741658
865.466736	903.521057	1247.765625	920.313477	4.878049
865.764587	904.412781	1245.685181	922.691162	5.355951
866.062317	901.960693	1235.505737	929.824219	8.353752
866.360107	902.109314	1234.539673	930.715881	8.605281
866.657715	904.635559	1243.604614	920.685059	4.734798
866.955322	908.499329	1247.839844	925.069031	4.882913
867.252808	909.985413	1251.926514	922.394043	3.628880
867.550293	904.635559	1242.192871	932.127686	8.144432
867.847717	907.459167	1232.310669	927.892395	6.290021
868.145081	902.778076	1228.892700	915.855286	4.010004
868.442383	902.034973	1232.236206	913.774902	3.555386
868.739624	902.332214	1239.666504	907.904968	1.651997
869.036804	901.143372	1231.419067	916.746887	4.724391
869.333984	907.236267	1230.378784	910.579834	1.034703
869.631042	908.870911	1228.669800	912.437439	1.115241
869.928101	915.929688	1226.143555	906.195984	-3.137740
870.224976	914.072083	1222.428345	915.335205	0.409631
870.521851	912.808899	1219.604858	916.003906	1.041411
870.818726	911.991516	1223.840088	921.576599	3.073634
871.115479	914.072083	1227.183716	921.502258	2.373012
871.412231	912.585999	1237.066040	923.657043	3.411934
871.708862	908.053528	1240.929810	919.347595	3.392872
872.005493	901.217712	1240.558228	912.883240	3.437706
872.302063	904.189758	1237.214600	908.796570	1.383324
872.598572	908.053467	1226.663574	916.821289	2.751897
872.895020	913.923523	1230.898804	916.301086	0.750078
873.191406	916.449768	1232.533569	916.078308	-0.117519
873.487671	914.889465	1240.706909	911.917236	-0.912238
873.783997	910.134094	1236.174316	911.694336	0.478543
874.080200	906.939026	1240.335327	916.226807	2.785808
874.376343	906.493164	1231.938965	912.883240	1.963484
874.672424	909.762512	1228.818359	916.152527	2.002789
874.968445	909.242371	1223.022827	915.483887	1.989135
875.264465	904.412781	1233.573730	912.214539	2.370195
875.560364	902.926697	1233.499390	911.620117	2.629806
875.856201	904.041260	1230.973145	905.452942	0.431797
876.152039	904.709961	1225.548950	914.146423	2.941183
876.447754	905.898743	1232.459106	908.722229	0.864614
876.743469	897.725525	1241.226807	908.276550	3.071612
877.039063	904.858582	1238.849243	909.539734	1.401582
877.334595	909.688171	1243.233032	918.753174	2.717776
877.630127	916.003906	1242.564331	917.638611	0.500583
877.925537	919.347595	1253.486816	910.951355	-2.512797
878.221008	909.093750	1248.434204	909.465271	0.109483
878.516296	905.601563	1249.548828	915.929626	3.002805
878.811646	900.623291	1260.917114	923.359924	6.310581
879.106812	904.635681	1272.879883	921.650940	4.620646
879.401978	900.920471	1297.028198	913.997742	3.301443
879.697083	906.418945	1326.526489	904.487061	-0.459855
879.992126	904.858582	1363.009155	907.979248	0.681144
880.287109	912.288818	1422.451294	914.740906	0.480648
880.582031	905.081482	1496.233887	923.285645	3.079437
880.876892	903.149597	1654.795898	924.102966	2.787663
881.171753	900.251770	1932.390991	940.523865	3.901809
881.466492	903.000977	2398.194580	955.607361	3.518366
881.761230	908.276428	3021.594482	978.195374	3.308491
882.055786	906.121643	3638.381592	1002.789551	3.538020
882.350403	903.372559	4044.446045	1019.804871	3.706768
882.644958	904.784180	4107.454590	1024.783081	3.746839
882.939453	910.208313	3858.242920	1014.157898	3.526064
883.233826	911.322815	3445.045654	1000.486145	3.519064
883.528137	902.629395	2990.610352	982.133362	3.807696
883.822449	904.338379	2606.688232	962.294495	3.404477
884.116577	901.217773	2295.954102	949.960266	3.494746
884.410828	907.830750	2063.386475	945.799316	3.285741
884.704956	898.691406	1870.645142	948.325684	5.106650
884.999023	900.177429	1727.315308	943.050110	5.183257
885.292969	896.685242	1626.337891	942.084167	6.221992
885.586914	908.945129	1557.682251	937.997498	4.478296
885.880798	908.350769	1504.852905	937.923157	4.957633
886.174622	910.505554	1458.785156	927.966736	3.184722
886.468384	910.579834	1431.887695	921.279480	2.052462
886.762085	908.870850	1408.853882	919.570496	2.140002
887.055664	909.391052	1389.758179	922.988342	2.830604
887.349304	897.576843	1359.442505	922.171082	5.324976
887.642822	903.000977	1328.904175	924.920349	5.146562
887.936340	902.406555	1307.059082	918.976135	4.094768
888.229736	902.629395	1279.567261	923.582825	5.558855
888.523071	900.623230	1268.496094	913.477722	3.494276
888.816284	905.007141	1249.177368	922.096863	4.965485
889.109619	917.564270	1234.316772	912.511719	-1.595110
889.402710	911.694397	1220.793579	914.443542	0.889406
889.695862	905.230164	1207.939331	899.805908	-1.791903
889.988892	893.861816	1211.951660	905.675781	3.714034
890.281921	896.313782	1218.193115	920.164917	7.409962
>>>>>End Processed Spectral Data<<<<<
