Jaz Data File
++++++++++++++++++++++++++++++++++++
Date: Fri Jun 04 13:51:23 2021
User: jaz
Dark Spectrum Present: Yes
Reference Spectrum Present: Yes
Processed Spectrum Present: Yes
Spectrometers: JAZA3586
Integration Time (usec): 475000 (JAZA3586)
Spectra Averaged: 10 (JAZA3586)
Boxcar Smoothing: 1 (JAZA3586)
Correct for Electrical Dark: No (JAZA3586)
Strobe/Lamp Enabled: Yes (JAZA3586)
Correct for Detector Non-linearity: No (JAZA3586)
Correct for Stray Light: No (JAZA3586)
Number of Pixels in Processed Spectrum: 2048
>>>>>Begin Processed Spectral Data<<<<<
W	D	R	S	P
191.335022	0.000000	0.000000	0.000000	0.000000
191.713211	273.656952	280.864258	281.384399	107.216866
192.091385	560.985596	563.065979	562.174377	57.142437
192.469528	843.187317	849.131531	849.280090	102.499229
192.847641	854.035583	856.413147	847.794006	-262.519897
193.225739	875.731934	879.001221	867.335632	-256.823608
193.603790	896.908142	893.341614	884.350891	352.086121
193.981842	915.112305	915.409485	903.743958	-3825.405518
194.359863	913.031738	918.158691	909.836853	-62.315475
194.737854	934.430969	942.678650	921.502380	-156.754242
195.115829	926.926453	938.591980	927.892395	8.280314
195.493774	924.102966	937.254578	928.040955	29.943010
195.871704	908.796570	920.239197	921.502258	111.038216
196.249603	939.409363	938.963440	926.554932	2882.658203
196.627457	941.341125	930.641602	928.338196	121.528114
197.005310	934.802551	933.687988	928.783997	539.992310
197.383133	922.245422	918.901794	927.000793	-142.221893
197.760910	936.734375	944.090393	943.421692	90.909470
198.138687	946.319519	947.434021	945.650696	-60.010952
198.516449	936.660095	941.564026	947.285400	216.669159
198.894180	919.941956	925.068848	927.298035	143.480286
199.271866	914.889343	917.267090	924.771729	415.619781
199.649536	913.328918	915.186707	916.747009	183.987122
200.027191	923.211243	920.239258	923.731384	-17.501490
200.404816	913.997742	916.301208	911.248535	-119.350822
200.782410	928.041016	934.728271	920.759277	-108.889778
201.159988	926.703552	948.548523	927.743652	4.761280
201.537537	935.025391	962.888977	940.969666	21.333488
201.915070	923.359863	955.681580	938.146179	45.747311
202.292557	916.003967	945.279236	933.167908	58.629490
202.670029	915.260925	945.130615	935.545593	67.910538
203.047485	915.335266	943.867432	932.721985	60.937256
203.424911	909.911133	948.919983	929.824219	51.047611
203.802292	913.774902	957.019043	926.926453	30.412329
204.179688	908.499329	964.003479	927.743835	34.672195
204.557037	916.598389	964.895203	930.790222	29.384617
204.934357	917.118469	965.786804	932.053406	30.687174
205.311661	917.415588	962.145996	936.957336	43.687840
205.688934	910.356934	959.471008	928.338196	36.611221
206.066177	888.511902	937.774658	915.781067	55.354527
206.443390	887.471680	931.756104	911.397156	54.026844
206.820587	879.372742	928.189514	912.140198	67.123360
207.197769	901.292053	952.932373	926.554932	48.920841
207.574921	909.316711	958.876648	920.462097	22.488701
207.952042	921.353699	953.601135	916.449890	-15.206817
208.329147	918.381653	952.783875	922.171082	11.015070
208.706223	1058.368042	1113.203247	1084.894043	48.374035
209.083267	1064.757935	1125.983398	1100.051880	57.645859
209.460297	1063.866333	1125.834839	1092.472900	46.163074
209.837280	922.542480	963.557800	940.300964	43.297195
210.214264	911.322937	956.498962	934.356750	50.986809
210.591217	905.155762	942.009827	925.366028	54.838634
210.968124	912.883240	959.916809	936.660156	50.553078
211.345016	920.685059	967.198486	944.981995	52.236393
211.721893	916.152527	967.347107	948.697205	63.570553
212.098724	905.750183	955.235657	944.461914	78.228477
212.475555	905.155762	958.133606	940.300964	66.339432
212.852356	910.431213	967.347107	947.062500	64.360382
213.229126	914.220703	970.839355	940.301025	46.063129
213.605865	911.322937	961.923035	924.028748	25.110249
213.982590	908.796631	954.344177	916.226868	16.313145
214.359283	898.542908	950.926270	903.372498	9.219702
214.735931	893.118713	953.972656	907.607727	23.809490
215.112579	899.583008	968.313049	911.694397	17.621681
215.489197	904.338440	967.421387	919.793457	24.499517
215.865799	906.567444	965.712585	926.332031	33.417095
216.242355	899.805969	963.929199	924.920227	39.165615
216.618896	903.743958	975.743347	935.991394	44.788486
216.995407	900.325989	979.309814	931.236023	39.134640
217.371902	894.976257	968.535950	925.663330	41.717239
217.748367	890.815247	964.226379	914.369324	32.085155
218.124802	889.403564	957.241882	915.186584	38.006573
218.501236	897.725403	958.653625	917.415710	32.317219
218.877609	894.530457	955.607239	917.118469	36.982979
219.253983	894.901917	958.282227	917.490051	35.639042
219.630295	896.016418	955.533020	924.623047	48.064957
220.006592	895.273438	958.579407	925.589050	47.887447
220.382889	903.075195	971.136536	924.920349	32.096272
220.759140	901.440613	979.384216	918.827454	22.306950
221.135391	909.613953	976.560608	917.489990	11.764647
221.511581	898.319885	968.015808	911.991638	19.616287
221.887772	894.456116	972.102539	920.684998	33.779896
222.263931	898.022705	991.941345	931.458923	35.601257
222.640060	913.403320	1015.123779	943.347351	29.437569
223.016159	913.551941	1023.594421	938.071960	22.282322
223.392212	906.641785	1018.393127	927.372253	18.550531
223.768265	897.725403	1009.625305	921.650879	21.381142
224.144302	890.815247	1009.030945	918.381531	23.318632
224.520294	883.905212	1010.071106	912.288757	22.497004
224.896286	895.793640	1026.417847	922.616882	20.534664
225.272217	907.607727	1040.163696	937.625977	22.645718
225.648148	916.672607	1062.008789	955.458679	26.687141
226.024048	899.434387	1060.745605	948.474304	30.400810
226.399902	896.610901	1074.788940	935.694153	21.934944
226.775772	888.957703	1076.200684	934.802490	24.484116
227.151581	893.713135	1108.968262	942.455750	22.644114
227.527374	893.490234	1129.698608	948.028503	23.089050
227.903137	899.434387	1176.360718	958.505127	21.330851
228.278870	907.904968	1230.750366	964.003479	17.376278
228.654572	906.047363	1315.826782	967.049988	14.886698
229.030273	903.298157	1394.662109	969.873474	13.549085
229.405930	894.456238	1473.942993	969.650574	12.976024
229.781555	902.034973	1526.400757	982.207703	12.840667
230.157181	900.920471	1553.298462	976.486328	11.583140
230.532761	899.434387	1529.447266	981.613220	13.043993
230.908325	890.592468	1478.252808	964.746582	12.618533
231.283859	893.787415	1421.782715	966.158264	13.706722
231.659332	895.124939	1381.510620	951.743591	11.640691
232.034821	891.632629	1353.498413	958.430847	14.462690
232.410263	884.573914	1337.300415	944.090393	13.146233
232.785690	880.858826	1309.808350	949.886047	16.092155
233.161087	890.369568	1290.415283	951.372070	15.248883
233.536469	896.090820	1271.245239	957.984924	16.498301
233.911804	903.298157	1275.109009	957.464844	14.568345
234.287140	897.353943	1282.762085	958.059265	15.750918
234.662430	898.096985	1309.956909	968.535950	17.102652
235.037704	896.536621	1321.473877	973.737122	18.167505
235.412933	892.524353	1329.572876	973.885742	18.616100
235.788162	885.465576	1316.421387	956.201660	16.413767
236.163345	890.295227	1326.303589	971.136536	18.541229
236.538513	903.595398	1339.678101	981.687500	17.907637
236.913635	907.013367	1363.009155	1004.647034	21.411089
237.288742	908.796570	1377.498169	1003.532532	20.212425
237.663834	906.641785	1376.012085	999.966125	19.882881
238.038879	910.877014	1367.615845	996.845398	18.822220
238.413910	905.527283	1354.910034	985.551270	17.807533
238.788910	899.583008	1372.965698	984.808289	18.003464
239.163879	899.285828	1388.049194	985.922791	17.725748
239.538834	898.468506	1407.590820	991.049744	18.184479
239.913757	900.400391	1446.525391	1008.213684	19.741505
240.288651	902.034973	1487.391968	1016.015442	19.471958
240.663528	902.852356	1542.673218	1020.027771	18.313786
241.038361	895.942200	1590.821289	1024.857422	18.552181
241.413177	895.645020	1686.671875	1047.965576	19.256054
241.787979	885.985657	1796.937012	1068.993286	20.089725
242.162735	884.573914	1931.350586	1084.076782	19.058783
242.537476	871.793762	2042.433228	1083.556641	18.089506
242.912170	891.781250	2170.828369	1112.831909	17.282448
243.286865	898.319885	2226.332520	1113.723511	16.219997
243.661514	905.973145	2232.425293	1105.475830	15.040323
244.036148	902.109375	2152.178223	1091.804199	15.174750
244.410751	909.762512	2054.470215	1081.921875	15.039591
244.785339	909.242371	1965.232788	1086.305786	16.767521
245.159882	903.446777	1925.332031	1093.810425	18.628672
245.534378	900.400391	1950.743530	1125.760620	21.455868
245.908890	900.177490	2049.566162	1149.908936	21.727327
246.283356	894.753418	2210.208740	1172.199707	21.091274
246.657791	884.276672	2434.528564	1196.793945	20.159128
247.032196	891.632629	2687.826660	1239.369385	19.359642
247.406586	887.620300	2915.341797	1262.106079	18.468306
247.780960	896.610901	3066.473389	1270.725220	17.241383
248.155289	889.849365	3106.968018	1253.189697	16.387951
248.529602	896.908203	3012.306641	1231.493286	15.816646
248.903870	899.360168	2826.178467	1206.824707	15.957110
249.278122	898.319885	2611.666260	1181.784790	16.544518
249.652344	896.982422	2435.568848	1148.125610	16.322983
250.026550	903.520996	2293.353516	1131.927612	16.434111
250.400711	923.880066	2194.456543	1136.905884	16.766077
250.774857	926.332031	2123.868896	1148.422852	18.545635
251.148987	907.384827	2093.330566	1144.856323	20.023808
251.523071	884.276672	2084.042725	1140.843994	21.384779
251.897125	899.062927	2141.627197	1156.447632	20.713997
252.271164	899.954590	2196.462891	1172.274048	21.004066
252.645187	900.326111	2255.681885	1172.199707	20.059206
253.019165	874.988831	2255.607666	1154.812866	20.268015
253.393112	898.542786	2255.904785	1164.174927	19.569735
253.767044	892.227051	2177.812744	1144.633301	19.633560
254.140930	908.796570	2096.748291	1147.382568	20.083815
254.514801	903.521057	2008.551147	1129.995728	20.494888
254.888657	912.065918	1965.307007	1137.946167	21.446205
255.262466	905.081360	1944.428101	1136.014404	22.219059
255.636276	912.957520	1958.916992	1151.320679	22.788948
256.010010	919.347473	1992.353149	1169.004761	23.267099
256.383759	927.595154	2030.544922	1187.208862	23.538128
256.757446	919.421875	2072.971680	1180.075806	22.595810
257.131134	919.496277	2134.197021	1189.958130	22.265720
257.504791	912.957520	2227.149658	1206.601929	22.344101
257.878418	903.818359	2327.681396	1234.762573	23.242701
258.252014	902.257996	2479.704834	1275.480591	23.659916
258.625580	908.350769	2656.619873	1327.863892	23.995913
258.999115	900.028809	2886.735107	1384.705566	24.395994
259.372650	894.381836	3172.354492	1455.590210	24.636309
259.746124	884.350891	3488.438477	1504.184204	23.802322
260.119598	890.369446	3794.565674	1551.663696	22.770302
260.493042	894.976257	3980.991455	1551.589355	21.277054
260.866425	897.576843	4016.284912	1533.311035	20.384537
261.239838	904.858582	3859.952148	1493.410522	19.916525
261.613159	910.208313	3581.465576	1441.844238	19.902086
261.986511	902.778015	3278.607422	1393.175903	20.641125
262.359802	889.700745	3034.151367	1344.730591	21.218946
262.733063	881.230225	2881.459229	1318.576050	21.864788
263.106293	886.580078	2788.878174	1306.613403	22.080311
263.479523	907.013245	2748.383545	1315.232422	22.169313
263.852692	910.951355	2708.333984	1320.656616	22.794550
264.225861	912.363037	2661.374756	1312.780396	22.893921
264.598969	907.310547	2632.619629	1308.991089	23.281656
264.972076	904.932800	2637.746582	1306.910522	23.197977
265.345154	911.917236	2690.427490	1336.557251	23.876163
265.718201	905.527283	2737.832764	1351.046387	24.314674
266.091217	926.406250	2836.506592	1410.191406	25.327736
266.464203	931.236023	2934.437500	1431.367676	24.966618
266.837158	926.703430	3036.009033	1452.023804	24.904896
267.210114	899.583008	3100.281006	1432.853638	24.231886
267.583038	894.827637	3147.166016	1435.157104	23.989712
267.955902	898.022705	3184.391846	1442.438843	23.811384
268.328766	907.607727	3183.351563	1447.862915	23.739717
268.701569	896.462219	3169.976807	1451.206421	24.400291
269.074371	889.997986	3168.342529	1459.454102	24.994293
269.447144	888.660461	3211.214844	1477.806763	25.366308
269.819885	890.889648	3273.257813	1501.435059	25.627668
270.192596	899.285828	3384.637451	1542.375977	25.875219
270.565277	927.446594	3532.871826	1610.214233	26.205612
270.937927	927.000732	3728.064697	1666.684204	26.407232
271.310577	926.183411	3937.598389	1707.625122	25.949320
271.683136	892.970032	4148.618652	1729.692993	25.700653
272.055725	895.422058	4301.979004	1741.358521	24.832594
272.428284	896.685242	4338.461426	1736.677612	24.405783
272.800812	909.316711	4269.211426	1707.104980	23.744442
273.173279	914.443542	4137.250000	1688.083496	24.005163
273.545776	909.762451	4032.111328	1666.907227	24.249205
273.918152	915.186584	3932.471436	1653.086792	24.455769
274.290558	908.796570	3850.738525	1637.631836	24.773952
274.662964	911.917297	3785.574951	1627.601074	24.904976
275.035278	895.793640	3735.792236	1622.028320	25.571657
275.407593	900.028809	3746.268799	1636.368774	25.870621
275.779907	913.254700	3789.290283	1668.690430	26.266563
276.152161	907.682068	3868.422607	1686.300293	26.298092
276.524384	910.654114	3959.220459	1699.526245	25.876823
276.896606	893.787415	4020.668701	1703.612793	25.898821
277.268799	899.657410	4071.789063	1722.559937	25.941626
277.640930	894.456116	4081.671143	1723.674438	26.017017
278.013031	900.846191	4089.101563	1731.773438	26.062130
278.385162	901.960693	4068.296631	1722.782837	25.923407
278.757233	903.372375	4055.293701	1731.847656	26.284769
279.129272	903.446777	4067.628174	1740.466797	26.452972
279.501282	909.019531	4097.572266	1762.906250	26.779758
279.873230	908.276367	4157.385742	1788.540894	27.092487
280.245178	907.236145	4250.858887	1819.227905	27.275557
280.617126	901.291992	4405.705566	1874.954956	27.783905
280.988983	889.552185	4571.549316	1921.394165	28.023977
281.360870	902.629395	4756.562988	1983.288208	28.040411
281.732697	893.713074	4911.038574	2009.071289	27.763699
282.104492	902.332214	5047.012695	2029.875977	27.204597
282.476288	875.731873	5143.160156	2021.999878	26.860863
282.848053	887.323059	5197.847168	2022.000000	26.323412
283.219757	888.586182	5222.069824	2016.427246	26.026199
283.591461	910.728333	5151.110352	2007.362305	25.861681
283.963135	909.242371	5074.429688	2004.538696	26.296448
284.334747	918.678772	5050.132813	2029.430298	26.885242
284.706360	911.545715	5142.045410	2071.039795	27.407972
285.077942	920.982239	5291.171387	2119.336426	27.421108
285.449524	917.787292	5434.129883	2156.710693	27.432005
285.821014	912.140320	5514.525391	2157.676758	27.062845
286.192535	903.000977	5621.298340	2177.961182	27.021616
286.563995	894.010254	5703.031250	2165.255615	26.434597
286.935425	893.415833	5732.455078	2164.958252	26.276756
287.306824	887.620300	5674.424316	2124.686279	25.843252
287.678223	885.837097	5543.429199	2088.946533	25.831144
288.049561	903.595398	5421.795410	2077.875488	25.989996
288.420898	907.459167	5308.854980	2065.987061	26.321827
288.792145	914.443542	5266.576660	2097.120117	27.174639
289.163452	904.412781	5303.579590	2121.268311	27.661043
289.534668	898.988586	5425.956543	2168.599365	28.045502
289.905914	893.415955	5575.453613	2199.063232	27.886303
290.277039	901.960693	5761.953125	2251.298096	27.764189
290.648193	926.109131	5925.196777	2293.576172	27.354330
291.019318	924.994568	6055.894531	2297.068604	26.741390
291.390381	908.796570	6076.773438	2248.177490	25.916927
291.761475	884.573914	5994.966309	2191.113037	25.566315
292.132507	882.864929	5879.796875	2159.459961	25.547575
292.503510	883.459290	5781.791504	2156.859375	25.996607
292.874481	917.564270	5762.175781	2212.289307	26.725056
293.245422	918.976074	5800.367188	2254.196045	27.353268
293.616364	924.102966	5927.128418	2317.650391	27.854094
293.987213	898.171326	6074.470215	2348.486084	28.018373
294.358093	900.400391	6273.304688	2400.646729	27.922447
294.728943	889.998047	6467.160156	2440.992920	27.809752
295.099731	884.276672	6694.154785	2475.172363	27.382603
295.470490	889.626465	6846.476074	2521.165771	27.389297
295.841248	902.852356	6962.685059	2569.239502	27.498899
296.211975	901.143372	7048.430176	2614.564209	27.872801
296.582642	905.230164	7212.490723	2658.402832	27.796103
296.953308	899.137207	7351.808594	2679.950439	27.598078
297.323883	896.165100	7476.414063	2674.823486	27.030260
297.694519	891.558411	7485.033203	2630.464844	26.373142
298.065063	903.892578	7448.550781	2579.418701	25.601431
298.435608	909.390930	7233.667480	2508.831299	25.290489
298.806122	904.858582	6925.756348	2436.906250	25.445499
299.176575	903.372498	6596.224609	2363.495361	25.648354
299.547028	907.459167	6351.619629	2316.015869	25.872797
299.917450	907.830750	6208.289551	2290.084229	26.077995
300.287872	891.855530	6115.187988	2277.601318	26.529919
300.658234	884.796875	6074.396484	2274.109131	26.771088
301.028564	884.128113	6029.071777	2277.304199	27.078547
301.398865	883.607910	5962.125000	2260.511719	27.112320
301.769135	889.329285	5898.521484	2236.660400	26.897171
302.139374	892.821472	5868.354004	2210.357422	26.480297
302.509583	895.570618	5820.726563	2188.512451	26.251797
302.879791	899.731689	5747.167480	2168.747803	26.179123
303.249939	891.929871	5647.006348	2136.946289	26.182888
303.620087	896.165100	5568.022949	2117.107666	26.133986
303.990173	883.682190	5502.488281	2103.658936	26.413250
304.360260	894.753357	5449.658691	2115.770264	26.806635
304.730286	895.347717	5433.460449	2119.113525	26.966404
305.100281	900.325989	5423.949707	2116.141357	26.877026
305.470276	894.158936	5418.154297	2101.429688	26.685944
305.840179	890.815369	5428.333984	2106.259521	26.786537
306.210144	891.855469	5432.791504	2112.946533	26.890736
306.579987	900.548889	5464.296875	2139.992432	27.158459
306.949890	904.264160	5499.218750	2156.042236	27.242447
307.319702	909.093811	5587.193359	2204.190430	27.684248
307.689484	902.778015	5690.102051	2221.725586	27.550829
308.059265	904.709900	5809.655762	2269.576904	27.826342
308.429016	895.719299	5940.725098	2286.889160	27.575190
308.798737	898.022644	6076.030762	2329.018799	27.636034
309.168396	894.233215	6193.057129	2340.981689	27.303202
309.538055	903.298157	6266.246094	2350.492432	26.985054
309.907684	896.165222	6265.131348	2351.383789	27.104258
310.277313	893.193054	6285.490234	2355.767822	27.123405
310.646851	902.703796	6296.264160	2360.746094	27.033018
311.016388	918.233093	6312.908203	2363.792480	26.796040
311.385895	940.300964	6268.994629	2355.767822	26.563110
311.755371	922.616882	6215.125488	2340.089844	26.782627
312.124817	913.923523	6166.308594	2310.145752	26.582630
312.494232	897.874084	6097.801270	2285.031494	26.676479
312.863617	901.960693	6005.071777	2261.551758	26.642395
313.232971	900.177490	5965.988281	2266.975830	26.980843
313.602295	894.158997	5958.707031	2287.854980	27.518667
313.971619	888.660583	6020.378418	2321.662842	27.924416
314.340820	885.242615	6042.000000	2327.607178	27.970377
314.710083	897.576843	6110.135254	2333.031250	27.538383
315.079285	909.465271	6124.326660	2323.000244	27.105896
315.448486	917.935791	6133.837891	2306.505127	26.621843
315.817596	912.808899	6015.028809	2246.096924	26.131531
316.186707	904.338379	5845.395020	2181.750732	25.853020
316.555786	905.378662	5650.275879	2123.125977	25.664354
316.924866	901.589172	5491.490723	2100.166260	26.113354
317.293884	901.217773	5414.513672	2100.389404	26.569754
317.662872	901.886475	5388.729980	2124.240479	27.243071
318.031830	898.914368	5413.102051	2139.472412	27.481316
318.400757	912.660339	5457.312012	2156.636475	27.372307
318.769684	904.264099	5488.222168	2149.280273	27.160286
319.138550	895.199158	5511.181152	2156.190674	27.317945
319.507416	888.957764	5511.032715	2136.797607	26.997395
319.876190	888.289063	5506.351563	2121.863037	26.711937
320.244995	920.090576	5471.429688	2116.067383	26.277472
320.613770	924.251526	5391.554199	2095.188232	26.211269
320.982483	924.845947	5322.155762	2092.290283	26.549059
321.351166	897.948425	5272.595215	2080.030518	27.021198
321.719818	888.289001	5276.681641	2112.797852	27.903357
322.088440	883.533630	5320.148926	2154.258789	28.641769
322.457062	890.072266	5445.571777	2222.245850	29.243195
322.825623	896.685242	5618.697266	2292.461670	29.558931
323.194183	905.824402	5789.371094	2335.483154	29.275007
323.562653	902.555115	5922.892578	2364.609863	29.122639
323.931183	900.028809	6027.808594	2369.365234	28.654436
324.299591	893.713135	6098.024902	2368.176270	28.331570
324.668060	887.843262	6125.962402	2337.117676	27.667839
325.036407	885.391296	6116.302734	2303.904297	27.117891
325.404755	887.843201	6048.093750	2267.718994	26.740480
325.773102	886.059875	5968.886719	2236.883545	26.576231
326.141388	895.347839	5874.299316	2217.861816	26.562096
326.509674	895.719238	5808.912598	2199.509033	26.536505
326.877899	920.536377	5745.309082	2177.218262	26.046450
327.246124	913.106140	5686.759277	2163.175049	26.186838
327.614288	920.759277	5625.756348	2163.769531	26.418938
327.982422	902.778015	5577.682129	2166.964600	27.041977
328.350525	920.313477	5541.645020	2174.914795	27.148048
328.718628	907.310547	5529.459473	2182.493896	27.588539
329.086700	915.781067	5536.221191	2209.688477	28.003988
329.454712	903.521057	5576.865234	2220.833984	28.187801
329.822693	917.638611	5636.604980	2232.648193	27.866474
330.190674	919.199036	5693.520996	2266.678711	28.223480
330.558563	922.319763	5717.000000	2297.217041	28.675472
330.926483	919.496277	5751.773438	2340.610107	29.408779
331.294312	908.202148	5803.636719	2351.235352	29.477121
331.662231	904.115540	5905.357422	2398.937744	29.889023
332.029999	893.564636	6004.625488	2440.621582	30.268801
332.397766	895.496399	6100.253418	2484.906006	30.537636
332.765503	894.901917	6181.912109	2505.859131	30.470098
333.133240	892.747253	6262.828125	2519.382324	30.290697
333.500916	896.982483	6349.167969	2538.180908	30.101662
333.868561	889.403625	6392.634766	2538.032471	29.957472
334.236176	895.422119	6397.984375	2525.846680	29.630278
334.603790	894.902039	6350.504395	2508.088379	29.569351
334.971344	898.022705	6298.493652	2513.438232	29.912495
335.338867	894.530457	6244.326660	2528.744629	30.547220
335.706360	885.168274	6192.686035	2542.639160	31.228741
336.073853	880.784424	6180.203125	2549.623779	31.490988
336.441284	884.871094	6174.407715	2561.437500	31.695904
336.808655	894.679016	6198.927246	2575.109375	31.680841
337.176086	897.354004	6214.753906	2612.557861	32.256439
337.543396	901.812195	6226.642090	2641.015869	32.662144
337.910706	888.809265	6203.385254	2665.684326	33.433994
338.277954	897.131104	6182.952637	2681.807861	33.763470
338.645264	885.539856	6145.132324	2673.783447	33.999664
339.012421	887.248840	6136.958984	2662.340820	33.813145
339.379669	882.642090	6125.739746	2634.551514	33.413631
339.746796	900.994812	6127.225098	2636.483398	33.207272
340.113953	913.997742	6152.042969	2637.226563	32.898315
340.481018	914.146301	6144.092285	2631.430908	32.835609
340.848114	905.824463	6184.661621	2636.855225	32.791897
341.215118	899.137207	6204.648438	2648.743408	32.977146
341.582153	898.542786	6306.146484	2715.467041	33.599438
341.949066	899.062805	6383.420410	2817.261719	34.975819
342.316010	896.759521	6530.168457	2945.657227	36.370476
342.682922	888.660461	6642.217285	3056.145264	37.672089
343.049835	881.453125	6817.497559	3184.986328	38.805862
343.416656	910.505554	7021.681152	3346.817627	39.866501
343.783478	915.260925	7283.449219	3486.358154	40.374073
344.150269	932.499207	7560.450684	3587.855469	40.063000
344.516998	920.759338	7811.444824	3602.864502	38.923634
344.883728	932.870667	7957.375488	3603.087158	38.012878
345.250427	918.827454	7993.412109	3561.477783	37.354141
345.617065	903.000977	7901.276855	3506.791016	37.206165
345.983704	897.354004	7767.458496	3438.581299	36.989647
346.350281	899.731628	7606.592285	3383.745850	37.036911
346.716827	898.617126	7404.935059	3335.969482	37.461315
347.083405	894.381836	7256.403809	3298.743408	37.792412
347.449860	939.632324	7164.045410	3317.393555	38.200569
347.816376	957.762146	7089.593750	3322.743164	38.568916
348.182770	965.341003	7009.570313	3332.477295	39.163574
348.549194	922.468262	6922.189941	3312.712891	39.839260
348.915558	911.991638	6929.174316	3356.402588	40.623844
349.281921	904.858459	6958.895996	3406.928467	41.328949
349.648193	892.895752	7020.417969	3439.472900	41.559654
350.014526	889.923645	7077.110840	3473.355225	41.754543
350.380737	886.282898	7170.732422	3494.159912	41.497299
350.746948	915.335266	7255.140625	3536.586670	41.345932
351.113159	918.976074	7323.869629	3568.908203	41.373554
351.479309	913.700623	7355.449219	3629.836670	42.164577
351.845428	892.004211	7415.634277	3686.603516	42.838104
352.211517	891.186829	7505.912598	3761.872314	43.398407
352.577576	888.586243	7624.573730	3834.391846	43.732353
352.943604	886.877258	7752.969238	3933.288818	44.368931
353.309601	890.295227	7899.196777	4027.281982	44.757183
353.675537	890.889648	8082.724121	4125.212402	44.972153
354.041473	891.484070	8267.291992	4210.214844	44.994808
354.407379	883.905212	8419.760742	4289.421387	45.190838
354.773254	897.948425	8594.373047	4378.287598	45.220207
355.139038	898.468506	8736.663086	4480.825684	45.703857
355.504913	921.502380	8997.540039	4635.746582	45.990921
355.870636	912.140198	9217.996094	4801.664551	46.828705
356.236389	911.545837	9521.151367	4952.944824	46.940582
356.602081	901.663574	9809.891602	5099.470215	47.122799
356.967804	902.257996	10078.718750	5204.236816	46.880589
357.333405	898.914307	10326.073242	5272.372559	46.392109
357.699036	877.738037	10490.058594	5272.892578	45.724178
358.064606	878.778320	10616.298828	5258.700684	44.979851
358.430176	879.967102	10643.567383	5248.744141	44.745552
358.795654	893.341614	10667.196289	5273.561035	44.815678
359.161163	900.103088	10696.545898	5376.247559	45.691532
359.526581	899.137207	10816.098633	5590.165527	47.303085
359.892029	908.870850	11083.291992	5897.035156	49.026516
360.257416	906.641785	11505.925781	6216.908691	50.100243
360.622772	911.397156	12032.953125	6480.757813	50.077175
360.988098	892.895813	12530.707031	6649.275879	49.462734
361.353394	885.688416	12980.833008	6732.717285	48.341949
361.718658	890.369446	13238.218750	6692.595215	46.989765
362.083893	894.753235	13293.203125	6498.292969	45.195484
362.449097	900.103088	13083.817383	6179.906250	43.334923
362.814209	897.428223	12673.961914	5812.851074	41.739132
363.179382	904.784241	12042.687500	5455.826172	40.860851
363.544434	907.830627	11328.934570	5190.342285	41.094608
363.909546	904.858582	10642.155273	5003.173828	42.088840
364.274536	898.171387	10163.051758	4935.781250	43.579727
364.639587	897.428284	9817.543945	4861.998535	44.445282
365.004517	892.301453	9632.901367	4819.051758	44.925411
365.369507	883.979492	9459.553711	4768.376953	45.296062
365.734344	884.053711	9386.142578	4773.504395	45.747002
366.099274	893.861755	9297.276367	4772.910156	46.160381
366.464081	909.019470	9225.054688	4760.872559	46.318382
366.828918	910.728455	9143.469727	4731.151855	46.405239
367.193665	902.332214	9050.666016	4675.870605	46.310551
367.558411	905.824402	9001.031250	4633.889160	46.052742
367.923126	901.143372	8909.789063	4575.487305	45.879719
368.287781	913.923523	8847.002930	4576.527832	46.168758
368.652435	900.474670	8750.483398	4538.781738	46.347809
369.017059	906.121765	8709.393555	4557.283203	46.790134
369.381653	919.942078	8691.783203	4575.710449	47.038639
369.746185	932.053406	8690.296875	4617.468262	47.503212
370.110687	924.697327	8716.452148	4651.127441	47.825302
370.475220	899.434387	8773.367188	4687.832520	48.113167
370.839661	900.177490	8858.815430	4737.764160	48.219139
371.204041	909.316711	8939.211914	4775.881348	48.152119
371.568451	911.174316	8982.159180	4771.498047	47.829651
371.932770	906.864746	9004.078125	4739.547852	47.333359
372.297150	908.796570	8997.761719	4702.247559	46.896614
372.661377	909.316711	8979.781250	4685.604004	46.791451
373.025696	899.583191	9000.584961	4693.479980	46.832439
373.389862	892.004211	9012.919922	4718.816895	47.122921
373.754059	895.942200	9049.253906	4765.627930	47.461521
374.118225	900.771912	9094.579102	4819.794922	47.829082
374.482361	895.793640	9197.339844	4907.694824	48.327156
374.846436	891.335449	9344.309570	5008.671875	48.708729
375.210510	888.883484	9572.938477	5167.605469	49.271019
375.574524	904.932800	9846.447266	5345.337402	49.660545
375.938538	898.022644	10179.695313	5514.748535	49.740238
376.302460	907.161926	10478.466797	5647.824219	49.529945
376.666412	908.722351	10776.940430	5729.779785	48.854389
377.030304	915.335266	10982.090820	5731.935059	47.846592
377.394196	910.579834	11089.161133	5669.000000	46.749344
377.757996	907.384766	11085.222656	5539.416504	45.510960
378.121796	911.025635	10950.660156	5384.198242	44.555134
378.485565	905.378662	10747.665039	5223.852539	43.876732
378.849304	890.815247	10455.135742	5090.925293	43.914356
379.212982	888.809143	10176.277344	5004.362793	44.312981
379.576630	905.007141	9919.338867	4966.022461	45.050652
379.940277	917.861572	9739.972656	4953.316406	45.742508
380.303864	919.496277	9644.940430	4953.836426	46.236500
380.667450	914.443665	9629.112305	4968.697266	46.522175
381.030945	916.152649	9595.007813	4940.536621	46.369987
381.394501	927.892395	9633.199219	4977.167969	46.515026
381.757935	930.195801	9629.038086	5017.439941	46.986073
382.121399	918.976074	9682.757813	5087.284668	47.562901
382.484741	908.722351	9762.708008	5152.968262	47.935997
382.848145	896.536621	9855.586914	5208.323242	48.127716
383.211487	896.239441	10002.038086	5283.963379	48.186043
383.574768	897.428223	10130.582031	5317.548340	47.872265
383.938019	901.663513	10235.051758	5340.656738	47.560360
384.301270	908.647949	10328.820313	5359.083496	47.243675
384.664459	898.468445	10366.565430	5392.073730	47.460495
385.027649	900.549011	10422.665039	5416.816895	47.429249
385.390778	904.041199	10484.114258	5506.128906	48.038128
385.753876	920.536438	10551.358398	5559.552246	48.168427
386.116943	917.861572	10638.143555	5648.715332	48.669918
386.479980	914.592285	10661.326172	5656.517578	48.651428
386.842987	913.477600	10722.032227	5708.083496	48.881882
387.205994	923.285583	10762.526367	5703.699707	48.585190
387.568909	916.598328	10801.907227	5697.904297	48.367798
387.931793	901.366272	10790.910156	5645.892090	47.975174
388.294678	894.679016	10778.055664	5616.542969	47.775814
388.657471	897.205322	10761.559570	5619.812500	47.875484
389.020294	911.545837	10762.526367	5664.765137	48.251228
389.383057	913.552002	10824.047852	5770.720703	49.010353
389.745819	918.233093	10947.687500	5877.419434	49.446224
390.108521	920.387878	11078.536133	6015.845703	50.161285
390.471191	913.106140	11261.765625	6159.175781	50.693233
390.833801	901.812195	11469.963867	6304.511719	51.122467
391.196442	900.028870	11713.304688	6404.522949	50.904964
391.558960	901.217773	11923.581055	6454.230957	50.379517
391.921509	908.647949	12081.918945	6433.426270	49.446381
392.284027	904.635559	12183.045898	6390.628418	48.641544
392.646484	901.366272	12173.534180	6341.662598	48.263088
393.008911	899.062927	12057.770508	6324.053223	48.616653
393.371307	910.728455	11991.864258	6338.096191	48.978443
393.733673	909.316711	11920.385742	6344.783691	49.363659
394.096008	908.127869	11884.348633	6295.892578	49.085789
394.458344	892.524231	11840.360352	6232.587402	48.777340
394.820587	888.066101	11736.559570	6088.959473	47.941162
395.182831	887.694580	11637.664063	5984.861328	47.415642
395.545013	877.143616	11407.473633	5836.775879	47.098545
395.907196	891.038269	11189.915039	5749.247559	47.172226
396.269287	900.103210	10966.784180	5689.136719	47.573116
396.631409	914.592224	10765.498047	5650.870605	48.079620
396.993469	922.171082	10623.505859	5637.570313	48.605675
397.355530	922.468262	10548.311523	5641.359863	49.023148
397.717499	925.960510	10554.924805	5665.806152	49.224876
398.079468	915.038025	10556.633789	5696.863770	49.595791
398.441376	915.632385	10552.249023	5697.755859	49.624508
398.803284	907.459167	10539.915039	5677.470703	49.520203
399.165131	906.047363	10560.274414	5655.997559	49.200733
399.526978	897.205383	10521.116211	5637.792969	49.258430
399.888763	894.901917	10503.506836	5639.427734	49.377888
400.250519	897.651184	10497.117188	5640.096191	49.403217
400.612244	916.449768	10549.723633	5661.272949	49.254528
400.973938	921.873840	10561.909180	5706.151855	49.629257
401.335602	915.706726	10585.463867	5735.575684	49.844780
401.697205	921.799500	10688.149414	5820.503906	50.159012
402.058807	921.650879	10866.252930	5892.503418	49.985435
402.420349	920.313477	11154.398438	6021.269531	49.842815
402.781860	897.353943	11452.649414	6135.027344	49.621284
403.143341	898.245605	11786.715820	6260.227051	49.244579
403.504822	910.951416	12115.653320	6381.563965	48.824253
403.866241	922.988464	12490.510742	6467.978027	47.935844
404.227631	926.777832	12801.168945	6544.880859	47.312771
404.588959	926.554871	13040.870117	6562.861816	46.526005
404.950287	913.626221	13073.414063	6530.392090	46.191311
405.311554	907.161865	12972.289063	6452.671387	45.963127
405.672821	907.236267	12771.151367	6378.962891	46.120750
406.034027	913.923523	12485.458008	6290.468262	46.463543
406.395203	916.524109	12156.964844	6174.407715	46.776493
406.756348	913.254700	11902.182617	6090.593750	47.114140
407.117493	910.728455	11743.545898	6052.179688	47.461811
407.478516	908.425049	11722.590820	6097.801270	47.986835
407.839600	904.412781	11695.471680	6124.253418	48.371906
408.200592	915.855286	11751.049805	6201.304688	48.780384
408.561554	924.177246	11770.963867	6274.864746	49.329700
408.922485	923.880066	11821.860352	6355.037109	49.836365
409.283417	913.106140	11828.398438	6398.058594	50.250168
409.644257	911.025696	11971.356445	6460.398926	50.173660
410.005096	922.096863	12125.683594	6518.726563	49.953911
410.365906	928.783997	12227.997070	6517.908691	49.464725
410.726715	930.492981	12247.614258	6493.909668	49.159290
411.087433	919.347595	12200.358398	6441.525879	48.951096
411.448120	912.363098	12204.370117	6408.089355	48.669170
411.808807	910.059753	12144.629883	6367.668457	48.578705
412.169434	904.189880	12053.833008	6321.304199	48.585537
412.530029	912.734619	12018.539063	6338.021973	48.850914
412.890564	911.025696	12009.624023	6369.674316	49.183224
413.251099	930.270203	12077.906250	6469.017578	49.685402
413.611572	930.938782	12180.445313	6561.524902	50.051846
413.972076	933.390808	12324.518555	6645.709473	50.147087
414.332489	925.663269	12433.520508	6717.040527	50.325420
414.692871	927.520813	12598.769531	6814.674316	50.441502
415.053223	918.753113	12779.844727	6903.911621	50.460438
415.413574	918.678894	13078.541992	7045.978516	50.389545
415.773834	913.923523	13280.867188	7175.042480	50.627865
416.134094	921.799622	13498.129883	7350.842285	51.120178
416.494263	921.576660	13711.972656	7493.727051	51.383476
416.854462	925.663269	14089.058594	7680.375000	51.314358
417.214630	928.189514	14475.581055	7882.330078	51.331951
417.574738	932.350586	14883.948242	8092.309082	51.319988
417.934784	937.328857	15305.541992	8362.993164	51.681194
418.294861	943.644531	15840.077148	8670.012695	51.867237
418.654846	939.706482	16417.185547	8992.634766	52.029972
419.014832	927.743713	17026.990234	9333.684570	52.213257
419.374756	910.505554	17668.666016	9682.684570	52.345715
419.734680	927.669434	18394.531250	10107.027344	52.552986
420.094543	929.452698	19036.580078	10387.594727	52.234360
420.454376	935.396973	19559.748047	10573.721680	51.751194
420.814148	928.561035	19993.599609	10622.391602	50.846107
421.173920	924.028625	20402.783203	10712.446289	50.251766
421.533691	927.743835	20785.517578	10751.603516	49.471104
421.893341	918.381653	20963.693359	10790.612305	49.249573
422.253021	918.530273	21036.585938	10771.739258	48.976948
422.612640	912.957520	20940.140625	10758.364258	49.160213
422.972260	917.712891	20902.544922	10765.795898	49.277786
423.331757	911.991638	20876.464844	10771.887695	49.387211
423.691315	938.443359	21014.294922	10880.890625	49.524410
424.050781	951.223450	21159.185547	10886.685547	49.166073
424.410248	959.545227	21149.080078	10813.869141	48.809071
424.769653	936.660095	21046.763672	10576.992188	47.937756
425.128998	919.719055	20871.039063	10346.430664	47.248562
425.488373	913.477600	20584.082031	10067.944336	46.538818
425.847656	913.403320	20195.701172	9860.342773	46.399761
426.206940	912.808899	19739.556641	9618.859375	46.242989
426.566193	921.873840	19261.197266	9427.009766	46.376495
426.925385	918.158691	18800.224609	9174.975586	46.173725
427.284576	914.592285	18216.798828	8919.001953	46.262363
427.643677	924.103027	17775.664063	8735.102539	46.351788
428.002777	933.539368	17409.796875	8609.752930	46.589542
428.361847	946.468079	17098.914063	8546.893555	47.054329
428.720856	937.700378	16759.796875	8429.420898	47.349735
429.079865	936.511536	16504.195313	8356.307617	47.661530
429.438812	931.830383	16328.246094	8317.521484	47.970196
429.797760	932.722107	16283.887695	8295.082031	47.959614
430.156616	937.180237	16071.679688	8197.967773	47.975079
430.515503	931.310364	15963.940430	8151.899902	48.032776
430.874268	919.050354	15883.766602	8138.153809	48.240833
431.233093	909.911133	15938.230469	8205.100586	48.542950
431.591827	910.877014	15993.734375	8285.421875	48.893555
431.950562	928.486816	16078.512695	8383.650391	49.208920
432.309204	922.542480	16176.666992	8440.789063	49.286648
432.667877	926.406250	16381.668945	8510.262695	49.069736
433.026459	929.006836	16631.400391	8553.284180	48.554874
433.385010	931.236023	17007.744141	8615.327148	47.797016
433.743561	928.709717	17479.123047	8626.100586	46.508751
434.102051	925.960510	18014.250000	8631.895508	45.094830
434.460510	943.347351	18641.958984	8650.916992	43.549007
434.818939	953.006653	19157.470703	8626.323242	42.150738
435.177338	936.957275	19543.326172	8617.704102	41.280205
435.535675	927.298035	19721.873047	8613.839844	40.897663
435.894012	925.068848	19694.011719	8628.923828	41.045757
436.252289	931.979004	19639.472656	8687.548828	41.457020
436.610535	936.957214	19258.224609	8706.941406	42.409645
436.968719	954.121155	18944.818359	8885.120117	44.083889
437.326935	952.635193	18469.724609	9020.424805	46.056679
437.685028	950.851868	18180.462891	9192.360352	47.833401
438.043152	936.660156	17927.759766	9262.131836	48.999016
438.401215	940.746765	17976.724609	9429.312500	49.827286
438.759277	939.780823	18180.314453	9637.360352	50.448433
439.117249	936.957336	18644.558594	9942.150391	50.854958
439.475250	947.805481	19050.697266	10165.726563	50.919601
439.833130	953.898376	19543.177734	10370.356445	50.655315
440.191071	959.396790	19787.259766	10408.696289	50.187851
440.548889	952.040771	20011.804688	10419.693359	49.673504
440.906708	940.821045	20160.259766	10357.278320	48.994442
441.264496	933.985168	20241.099609	10272.946289	48.370567
441.622223	942.158508	20198.822266	10152.575195	47.829765
441.979950	946.319519	19985.869141	9997.208008	47.537308
442.337616	950.480408	19800.263672	9851.425781	47.220413
442.695251	944.684753	19525.863281	9729.717773	47.279205
443.052887	936.882996	19317.888672	9656.083984	47.435932
443.410461	932.127625	19192.095703	9710.473633	48.074265
443.768005	929.081238	19198.931641	9822.596680	48.678646
444.125458	940.226624	19264.392578	9987.250977	49.372093
444.482941	943.273010	19476.750000	10182.221680	49.850056
444.840393	957.539124	19780.794922	10477.797852	50.577110
445.197754	957.687683	20175.714844	10736.817383	50.885189
445.555084	954.121094	20522.560547	10947.539063	51.069061
445.912415	932.201904	20923.943359	11032.394531	50.521820
446.269714	932.944885	21195.816406	11099.118164	50.171432
446.626953	929.527039	21381.943359	11095.625000	49.706097
446.984161	934.208008	21453.869141	11011.588867	49.110855
447.341309	941.935547	21496.298828	10883.268555	48.366047
447.698456	955.384338	21469.845703	10714.453125	47.571655
448.055542	952.858093	21363.964844	10601.883789	47.273403
448.412598	949.440125	21099.744141	10437.971680	47.088772
448.769653	940.152344	20757.505859	10224.500977	46.849590
449.126617	947.359680	20287.167969	9968.527344	46.645592
449.483582	969.724915	19966.775391	9817.395508	46.573917
449.840515	982.059082	19545.330078	9683.204102	46.872906
450.197388	973.068420	19276.652344	9561.274414	46.920898
450.554230	955.681458	19018.078125	9473.225586	47.156223
450.911041	945.502136	18909.076172	9426.563477	47.212551
451.267822	956.350281	18844.285156	9476.791992	47.632336
451.624573	939.557922	18767.232422	9453.906250	47.759167
451.981262	932.722107	18694.044922	9437.784180	47.885300
452.337921	928.858398	18516.611328	9339.629883	47.821751
452.694580	942.901550	18292.958984	9194.516602	47.559586
453.051147	946.245117	18147.771484	9071.248047	47.234196
453.407715	948.325623	17900.195313	8878.803711	46.782322
453.764221	959.991150	17854.275391	8829.465820	46.580688
454.120728	959.173828	17499.478516	8646.459961	46.476086
454.477142	960.511230	17413.882813	8611.387695	46.500359
454.833557	944.981995	17155.458984	8524.008789	46.753880
455.189911	948.919983	17094.382813	8555.438477	47.112423
455.546265	940.300964	16980.550781	8593.779297	47.714211
455.902557	941.861328	16956.771484	8634.348633	48.033283
456.258820	946.542480	17042.962891	8748.476563	48.469997
456.615051	951.000549	17182.802734	8880.215820	48.849876
456.971252	964.746582	17317.585938	9055.124023	49.473839
457.327393	959.768250	17619.478516	9331.827148	50.253323
457.683502	967.495789	18093.083984	9685.433594	50.905918
458.039612	960.808533	18786.847656	10158.593750	51.597469
458.395630	970.244934	19538.419922	10670.835938	52.243099
458.751648	965.638184	20205.212891	11063.377930	52.484219
459.107605	958.356506	20986.357422	11420.253906	52.236355
459.463562	948.399963	21564.804688	11500.054688	51.180866
459.819458	953.898438	21939.958984	11463.647461	50.079666
460.175323	943.644531	22008.541016	11193.184570	48.656967
460.531158	948.102722	21937.583984	10849.609375	47.173664
460.886932	948.771423	21648.171875	10463.309570	45.965282
461.242676	960.659851	21185.341797	10071.660156	45.048916
461.598419	966.901367	20590.099609	9784.256836	44.933323
461.954102	965.192383	19949.240234	9495.961914	44.936516
462.309723	968.981750	19310.236328	9258.491211	45.195980
462.665344	959.248108	18718.712891	9059.432617	45.610523
463.020905	960.511230	18313.835938	8959.496094	46.094826
463.376373	962.963196	18066.855469	8942.704102	46.654530
463.731873	974.034363	17878.423828	8931.334961	47.072395
464.087341	967.718689	17740.517578	8936.908203	47.512581
464.442749	967.198547	17698.312500	9007.941406	48.058624
464.798126	951.074890	17715.255859	9052.301758	48.324619
465.153503	946.096497	17856.205078	9150.604492	48.518360
465.508820	926.703430	17937.791016	9197.562500	48.620403
465.864105	927.223633	18052.738281	9276.026367	48.750664
466.219330	943.124451	18249.193359	9395.950195	48.843136
466.574524	951.892151	18375.880859	9436.000000	48.692108
466.929657	959.396729	18411.248047	9392.534180	48.322308
467.284790	961.551514	18406.123047	9308.793945	47.850082
467.639893	964.077820	18338.505859	9174.974609	47.258514
467.994934	961.923096	18285.232422	9097.178711	46.961330
468.349945	952.932434	18118.421875	8969.527344	46.701809
468.704926	954.567078	17942.173828	8879.843750	46.653286
469.059875	962.443115	17740.591797	8786.593750	46.632980
469.414764	955.904541	17538.935547	8732.947266	46.897594
469.769653	953.303955	17418.044922	8723.808594	47.194820
470.124451	954.567139	17403.703125	8769.281250	47.508354
470.479248	958.430847	17355.927734	8759.325195	47.573692
470.834015	958.282227	17329.251953	8811.114258	47.968033
471.188721	947.805481	17428.150391	8890.543945	48.195217
471.543365	947.954102	17628.023438	9044.052734	48.537556
471.898010	946.468079	17814.226563	9133.439453	48.536217
472.252625	951.743591	17988.986328	9273.054688	48.841892
472.607178	961.774414	18230.617188	9403.604492	48.884743
472.961700	967.124268	18444.091797	9485.040039	48.737953
473.316193	981.836182	18646.937500	9497.151367	48.204170
473.670654	978.789795	18671.531250	9472.854492	48.008751
474.025055	984.065247	18736.769531	9516.618164	48.063396
474.379456	963.409119	18776.818359	9545.001953	48.174900
474.733795	969.278992	18894.291016	9601.545898	48.157661
475.088104	967.718567	19076.033203	9717.012695	48.316444
475.442383	984.882568	19262.087891	9882.782227	48.683041
475.796570	974.925964	19538.791016	10057.541992	48.926319
476.150787	978.938293	19887.718750	10260.759766	49.087360
476.504944	976.857849	20234.337891	10452.460938	49.204792
476.859070	996.993896	20593.890625	10647.060547	49.242828
477.213135	998.851501	20874.607422	10769.808594	49.160179
477.567200	987.037415	21275.396484	10888.916016	48.805714
477.921173	969.353333	21551.728516	11032.394531	48.891544
478.275146	958.876709	21948.056641	11163.612305	48.619030
478.629089	967.124268	22143.326172	11300.180664	48.795612
478.983002	967.867249	22573.687500	11462.309570	48.572292
479.336823	978.789734	22978.414063	11732.844727	48.882900
479.690643	975.371765	23579.521484	12081.918945	49.134991
480.044403	984.585266	24210.572266	12523.351563	49.680416
480.398163	981.390320	25055.546875	13104.993164	50.359409
480.751862	979.309875	26200.181641	13937.183594	51.377583
481.105499	973.439941	27724.947266	15075.948242	52.716682
481.459137	972.028137	29959.974609	16707.337891	54.282249
481.812744	975.891907	32820.550781	18877.050781	56.214005
482.166290	983.470703	36470.671875	21538.724609	57.923004
482.519806	984.362488	40591.355469	24449.013672	59.243706
482.873291	993.204529	44961.097656	27023.900391	59.203869
483.226715	994.987793	48869.496094	28925.156250	58.340378
483.580139	992.015625	51266.425781	29523.443359	56.751392
483.933502	997.291077	53068.863281	29227.349609	54.213955
484.286804	1010.591309	53768.718750	27905.205078	50.977192
484.640106	1015.792480	54196.406250	26235.548828	47.422836
484.993347	1000.708984	53400.031250	24430.585938	44.714085
485.346558	979.830017	52090.292969	23144.482422	43.366173
485.699738	976.560730	50591.089844	22569.525391	43.521458
486.052887	981.241699	49086.605469	22616.931641	44.975628
486.405975	985.179871	48353.535156	23127.242188	46.744419
486.759064	996.473816	48011.667969	23709.031250	48.308971
487.112061	1000.337585	48070.441406	23996.435547	48.854996
487.464996	995.582214	48056.921875	23831.408203	48.523537
487.817963	980.870300	47910.917969	23169.818359	47.280899
488.170868	968.981750	47386.562500	22194.890625	45.728165
488.523743	972.622620	46449.011719	21048.029297	44.144676
488.876587	969.799072	45208.011719	20014.404297	43.050125
489.229401	1003.458191	43944.714844	19361.134766	42.750671
489.582153	1004.424133	42643.152344	19166.388672	43.617966
489.934845	1022.925537	41790.230469	19439.375000	45.174557
490.287537	997.662598	41489.972656	20043.306641	47.035213
490.640198	1018.021667	41829.312500	20743.164063	48.332565
490.992798	1005.241516	42149.703125	21128.646484	48.909145
491.345337	1006.133240	42408.875000	21070.169922	48.460648
491.697876	1000.263245	42130.015625	20420.470703	47.216930
492.050354	1023.891418	41636.347656	19437.593750	45.340038
492.402832	1028.498291	40499.964844	18104.601563	43.261894
492.755219	1021.365051	39015.246094	16732.750000	41.352406
493.107605	1012.300110	36976.894531	15419.449219	40.059258
493.459930	1027.680786	34896.421875	14396.671875	39.472950
493.812225	1020.696472	32828.722656	13683.143555	39.808971
494.164490	1013.563477	31118.052734	13249.661133	40.645428
494.516724	987.706055	29766.708984	13045.922852	41.899353
494.868896	990.158020	28778.257813	12998.295898	43.213238
495.221039	984.733948	28186.365234	13117.847656	44.604359
495.573120	998.479980	27768.117188	13202.700195	45.589787
495.925201	1039.866577	27690.767578	13367.504883	46.255993
496.277222	1059.482544	27713.208984	13453.472656	46.500027
496.629211	1058.367920	27783.494141	13484.532227	46.496185
496.981140	1014.752258	27721.080078	13361.487305	46.231499
497.333069	1020.845032	27588.525391	13205.971680	45.864475
497.684967	1021.736633	27465.851563	13050.531250	45.487606
498.036804	1019.136047	27273.853516	12836.687500	45.011158
498.388580	1000.337585	26966.242188	12614.893555	44.730026
498.740326	997.736877	26534.244141	12370.139648	44.533897
499.092072	999.297363	25997.037109	12147.528320	44.596954
499.443756	1000.411804	25494.078125	11888.956055	44.454529
499.795410	1007.767822	25035.037109	11681.428711	44.423115
500.147003	1019.581848	24716.947266	11512.834961	44.280251
500.498566	1024.188721	24329.828125	11389.417969	44.475201
500.850098	1015.718201	23979.343750	11298.768555	44.779736
501.201599	1001.749207	23619.052734	11222.311523	45.189129
501.553009	992.461426	23378.978516	11157.370117	45.406384
501.904449	995.953613	23219.822266	11100.157227	45.465546
502.255859	1019.359070	23149.681641	11145.854492	45.758461
502.607178	1034.071045	23171.748047	11223.946289	46.029556
502.958405	1029.835815	23160.083984	11291.264648	46.368340
503.309692	1013.489075	23142.625000	11295.574219	46.464012
503.660919	993.947510	23101.609375	11321.875977	46.716511
504.012115	1007.099060	23106.958984	11328.192383	46.702080
504.363251	1014.455078	23142.771484	11307.610352	46.515762
504.714294	1029.538452	23166.994141	11223.203125	46.047142
505.065369	1030.950317	23162.906250	11188.578125	45.895756
505.416443	1035.111206	23066.906250	11134.856445	45.841682
505.767395	1035.482788	23004.123047	11130.622070	45.952499
506.118317	1021.959656	22887.914063	11100.456055	46.092182
506.469238	1001.229187	22903.812500	11140.132813	46.290901
506.820160	986.368652	22887.166016	11203.512695	46.651932
507.170929	1007.693542	23029.312500	11328.788086	46.868011
507.521729	1028.572632	23175.093750	11452.649414	47.068687
507.872498	1034.591187	23414.869141	11592.414063	47.174675
508.223236	1016.535461	23653.007813	11720.362305	47.285755
508.573883	1000.634766	23864.625000	11821.265625	47.326084
508.924500	1013.043274	24056.623047	11918.083008	47.323551
509.275116	1018.541687	24186.650391	11976.411133	47.297211
509.625702	1026.640747	24387.416016	12085.262695	47.338421
509.976196	1018.467468	24605.421875	12138.984375	47.146893
510.326660	1027.235107	24841.181641	12236.766602	47.071285
510.677124	1037.786133	25009.775391	12297.100586	46.968632
511.027557	1057.624878	25210.468750	12416.132813	47.027622
511.377869	1048.634277	25392.287109	12497.421875	47.029865
511.728180	1046.182251	25489.771484	12497.643555	46.848522
512.078430	1036.448608	25537.474609	12497.569336	46.778130
512.428650	1033.179321	25567.416016	12429.062500	46.448898
512.778931	1037.563232	25576.187500	12377.941406	46.214397
513.129028	1039.123535	25494.007813	12241.520508	45.808422
513.479126	1035.482788	25369.177734	12144.926758	45.654572
513.829285	1027.458008	25227.187500	12074.859375	45.650928
514.179382	1019.656250	25072.337891	12040.458008	45.819431
514.529297	1028.349609	24959.992188	12035.257813	45.993114
514.879272	1024.931641	24998.037109	12113.870117	46.255745
515.229187	1021.439392	25006.580078	12185.942383	46.547581
515.579163	1009.996887	25156.599609	12360.926758	47.008392
515.928955	1004.944336	25398.380859	12564.664063	47.388645
516.278748	1007.247742	25866.115234	12894.569336	47.819241
516.628540	1027.458008	26445.822266	13282.280273	48.212475
516.978333	1033.253540	27088.099609	13743.253906	48.781712
517.327942	1035.705688	27833.947266	14215.893555	49.183029
517.677612	1013.711975	28548.070313	14563.186523	49.209335
518.027222	1005.835938	29161.662109	14735.864258	48.764431
518.376831	990.009460	29668.406250	14744.632813	47.961617
518.726379	996.176514	29929.062500	14639.791992	47.156078
519.075867	999.371582	29917.396484	14386.196289	46.292316
519.425293	1030.058594	29743.007813	14116.550781	45.576969
519.774658	1036.002808	29390.740234	13767.773438	44.901737
520.124084	1046.256714	29013.724609	13518.338867	44.594963
520.473389	1029.092773	28494.052734	13226.403320	44.410442
520.822693	1024.040161	28021.041016	13053.577148	44.558792
521.171997	1033.550781	27644.031250	12916.933594	44.656776
521.521240	1057.179077	27337.009766	12913.590820	45.116016
521.870361	1060.597046	27168.271484	12964.265625	45.594521
522.219482	1051.457886	27108.382813	13044.140625	46.024933
522.568604	1037.488892	27187.587891	13195.122070	46.491726
522.917664	1043.284546	27352.689453	13412.606445	47.014832
523.266724	1045.587891	27674.345703	13753.433594	47.722263
523.615662	1048.634277	28186.812500	14172.277344	48.358601
523.964600	1047.445313	28912.822266	14678.502930	48.917542
524.313538	1048.559937	29785.287109	15288.082031	49.551651
524.662354	1042.541382	30801.001953	15921.215820	49.998135
525.011169	1065.426636	31907.890625	16583.548828	50.314144
525.359985	1054.950073	33058.171875	17184.808594	50.400730
525.708740	1045.587891	34298.808594	17808.431641	50.409687
526.057434	1040.683960	35711.968750	18606.664063	50.664349
526.406067	1051.234985	37440.550781	19691.408203	51.224304
526.754700	1059.556763	39426.734375	21150.714844	52.365486
527.103333	1042.467163	41918.773438	22905.447266	53.485706
527.451782	1027.903809	44608.605469	24799.126953	54.545296
527.800293	1030.578735	47369.542969	26421.822266	54.794586
528.148743	1034.070923	49481.527344	27439.103516	54.502415
528.497131	1035.854126	50965.128906	27499.437500	53.002140
528.845642	1027.383789	51526.042969	26700.906250	50.840008
529.193909	1017.501465	51424.917969	25220.125000	48.014011
529.542175	1016.386902	50458.683594	23383.289063	45.238396
529.890503	1029.612793	48847.800781	21509.226563	42.828083
530.238770	1028.423950	46568.562500	19821.587891	41.267254
530.586914	1036.820190	44392.753906	18690.255859	40.717461
530.934998	1039.643677	42190.199219	18025.693359	41.277813
531.283142	1048.337158	40727.625000	17962.757813	42.627831
531.631226	1048.782959	39510.996094	18190.642578	44.568050
531.979248	1041.129761	39152.847656	18733.423828	46.422192
532.327148	1040.238159	39161.324219	19293.443359	47.882175
532.675110	1041.724243	39492.562500	19709.017578	48.548466
533.023071	1028.498169	39783.308594	19794.171875	48.421535
533.370850	1026.789307	39914.082031	19455.794922	47.390816
533.718689	1028.795532	39814.371094	18868.208984	45.994972
534.066467	1041.204102	39367.511719	18113.220703	44.543858
534.414246	1039.718018	38531.457031	17396.644531	43.628082
534.761963	1050.417603	37630.984375	16802.890625	43.062408
535.109619	1062.231689	36789.953125	16478.484375	43.149273
535.457153	1065.946899	36078.429688	16315.317383	43.554092
535.804749	1049.451660	35479.250000	16259.515625	44.177036
536.152344	1040.163696	34989.000000	16138.254883	44.473072
536.499817	1045.587769	34461.156250	15927.382813	44.535511
536.847229	1043.358765	34059.253906	15669.477539	44.300236
537.194641	1038.603394	33614.621094	15292.836914	43.756832
537.542114	1033.402222	33381.835938	14928.160156	42.953419
537.889404	1035.185425	32981.714844	14557.018555	42.326454
538.236694	1038.677734	32717.718750	14349.118164	42.016552
538.583984	1035.928589	32594.150391	14391.174805	42.319386
538.931213	1039.049316	33018.343750	14802.661133	43.039135
539.278381	1035.408569	34015.042969	15522.210938	43.926514
539.625488	1040.535278	35570.796875	16491.787109	44.746986
539.972595	1051.829346	37668.066406	17674.462891	45.396889
540.319641	1047.296875	40057.710938	18871.701172	45.691399
540.666687	1062.826172	42588.535156	19864.386719	45.276913
541.013611	1052.200806	44832.175781	20431.615234	44.265472
541.360596	1055.395752	46377.300781	20510.076172	42.925556
541.707458	1047.593994	47441.019531	20121.623047	41.113647
542.054260	1058.888062	47728.652344	19413.517578	39.328735
542.401062	1065.203857	47686.222656	18554.505859	37.513771
542.747864	1070.702271	46894.902344	17653.287109	36.187393
543.094666	1069.736206	45769.886719	16742.039063	35.060959
543.441284	1078.503906	44255.296875	15905.315430	34.339771
543.787903	1069.884888	43006.636719	15172.467773	33.628220
544.134460	1064.757935	41989.210938	14544.609375	32.938377
544.481079	1061.562988	41478.011719	14106.075195	32.275253
544.827637	1073.897217	41121.429688	13849.359375	31.900747
545.174072	1081.921997	40974.386719	13696.444336	31.621317
545.520508	1084.968262	40879.949219	13644.133789	31.559673
545.866943	1072.039673	40674.050781	13612.926758	31.667297
546.213318	1073.154175	40291.464844	13590.265625	31.916496
546.559631	1083.482300	39637.976563	13422.862305	32.005035
546.905823	1085.785767	38608.292969	13134.269531	32.110016
547.252136	1076.423584	37219.945313	12733.109375	32.251106
547.598389	1062.083130	35481.484375	12309.137695	32.676495
547.944458	1065.129517	33728.675781	11850.317383	33.019035
548.290588	1073.599976	31953.884766	11393.875977	33.420277
548.636658	1080.807373	30352.960938	10968.196289	33.777454
548.982727	1069.141846	28785.248047	10604.484375	34.403618
549.328735	1065.203735	27448.318359	10338.034180	35.146835
549.674622	1054.950073	26233.687500	10117.058594	35.991116
550.020569	1044.250366	25288.484375	9986.434570	36.883759
550.366455	1030.355835	24447.599609	9892.515625	37.844589
550.712280	1023.222839	23782.962891	9849.940430	38.782154
551.058044	1033.328003	23334.843750	9887.315430	39.701283
551.403748	1042.467163	22983.169922	9919.636719	40.459824
551.749512	1051.532104	22763.306641	10023.584961	41.323441
552.095154	1044.919067	22522.568359	10047.362305	41.915405
552.440735	1049.600220	22407.322266	10107.547852	42.410641
552.786316	1042.392822	22263.695313	10075.894531	42.568085
553.131897	1043.878906	22054.904297	9978.707031	42.524475
553.477417	1030.207275	21780.802734	9815.760742	42.338802
553.822815	1020.250732	21464.791016	9614.846680	42.038586
554.168213	1024.485962	21124.041016	9450.117188	41.919491
554.513672	1019.804871	20755.572266	9275.133789	41.829277
554.859009	1034.665405	20406.648438	9174.453125	42.018353
555.204285	1035.036987	20070.130859	9078.379883	42.255337
555.549500	1048.485718	19744.611328	9031.941406	42.701126
555.894714	1030.801636	19430.162109	8932.227539	42.944023
556.239990	1022.702637	19159.775391	8870.778320	43.270908
556.585022	1025.600464	18909.001953	8797.367188	43.457985
556.930115	1036.820190	18678.144531	8760.438477	43.781395
557.275146	1039.123657	18478.791016	8693.122070	43.888443
557.620178	1028.869751	18334.716797	8636.949219	43.962479
557.965149	1021.588196	18213.455078	8569.928711	43.906460
558.310059	1024.114380	18082.013672	8533.593750	44.023476
558.654968	1030.652954	17957.037109	8489.085938	44.063946
558.999756	1036.448608	17871.662109	8494.732422	44.301689
559.344604	1037.414673	17841.271484	8507.586914	44.455105
559.689331	1027.086548	17818.314453	8531.214844	44.690765
560.033997	1027.012207	17813.632813	8567.920898	44.922134
560.378723	1022.331116	17835.775391	8612.725586	45.144794
560.723389	1025.377563	17875.750000	8644.601563	45.216946
561.067932	1016.535583	17877.681641	8638.954102	45.207001
561.412476	1019.730530	17886.744141	8635.090820	45.149429
561.757019	1027.903809	17879.835938	8620.081055	45.052265
562.101501	1035.259644	17864.603516	8584.788086	44.859314
562.445862	1034.219482	17777.373047	8552.019531	44.900738
562.790222	1012.820313	17719.712891	8505.655273	44.848766
563.134644	1011.928772	17675.429688	8509.593750	44.994537
563.478943	1011.854553	17718.896484	8504.615234	44.847923
563.823181	1012.003113	17743.044922	8566.063477	45.149975
564.167358	1002.343750	17845.509766	8640.886719	45.350994
564.511536	999.074402	17953.544922	8786.445313	45.931076
564.855774	1004.201233	18137.666016	8937.725586	46.304260
565.199768	1018.615967	18386.132813	9130.392578	46.706596
565.543823	1014.975159	18632.966797	9236.125000	46.663372
565.887817	1017.798645	18866.576172	9340.520508	46.629086
566.231812	1018.021484	19023.429688	9341.190430	46.225937
566.575745	1017.724304	19130.349609	9320.831055	45.841541
566.919617	1017.352783	19148.703125	9232.038086	45.306530
567.263428	1008.510803	19051.365234	9063.742188	44.644997
567.607239	1011.482910	18907.144531	8929.700195	44.246574
567.950989	1023.668640	18768.050781	8820.104492	43.937489
568.294678	1032.956421	18652.287109	8805.541016	44.113960
568.638367	1036.374390	18527.531250	8764.897461	44.185318
568.981995	1013.786316	18386.578125	8723.659180	44.379013
569.325623	1012.003113	18266.357422	8717.417969	44.657803
569.669128	1019.061829	18225.343750	8784.438477	45.131058
570.012573	1021.588196	18253.132813	8894.258789	45.687550
570.356140	1023.445740	18413.179688	9025.031250	46.013271
570.699524	1011.780212	18526.044922	9123.259766	46.313557
571.042908	1022.554016	18731.568359	9283.530273	46.648430
571.386230	1004.201233	18830.537109	9367.938477	46.917870
571.729492	1017.055664	19049.732422	9449.077148	46.759682
572.072815	1015.198059	19184.072266	9408.656250	46.196907
572.416016	1023.074219	19268.181641	9344.979492	45.611710
572.759094	1022.182556	19231.103516	9251.729492	45.195137
573.102234	1014.529297	19151.673828	9158.850586	44.904099
573.445374	1014.529297	19023.949219	9118.058594	44.996059
573.788391	997.662598	18943.777344	9053.043945	44.886490
574.131409	1003.532471	18801.412109	8992.487305	44.887119
574.474365	1001.972168	18768.197266	8936.165039	44.658855
574.817261	1013.340515	18719.826172	8911.719727	44.607265
575.160156	1013.340515	18739.814453	8856.512695	44.245529
575.502930	1007.619202	18707.271484	8711.547852	43.525875
575.845703	998.554260	18668.333984	8555.289063	42.766438
576.188477	1019.581848	18636.607422	8409.210938	41.945950
576.531250	1026.566406	18520.101563	8281.260742	41.470715
576.873901	1032.659058	18349.947266	8128.420410	40.975010
577.216431	1013.712097	18137.740234	7974.316406	40.648174
577.559082	1003.904053	17975.240234	7801.636719	40.054199
577.901611	993.575989	17782.349609	7645.229980	39.619652
578.244080	986.442871	17563.380859	7498.185059	39.281937
578.586487	1003.681152	17383.195313	7419.052246	39.167042
578.928955	1156.150391	17308.671875	7453.008301	38.983746
579.271301	1163.729248	17091.408203	7386.953125	39.071754
579.613647	1156.076050	16768.785156	7285.753418	39.260818
579.955872	1017.650085	16361.680664	7093.903809	39.600117
580.298157	1018.764648	16104.296875	7019.080566	39.775303
580.640320	1015.941101	15894.317383	6970.486816	40.021477
580.982483	1000.857666	15755.965820	6914.016113	40.075329
581.324524	997.737000	15617.985352	6886.376465	40.277290
581.666626	1005.835938	15518.049805	6859.404297	40.335461
582.008728	1012.151672	15433.046875	6834.141113	40.371899
582.350647	1008.287903	15344.106445	6808.432129	40.459106
582.692566	1014.232178	15313.493164	6792.234863	40.407703
583.034424	1008.956726	15227.004883	6752.408691	40.395504
583.376343	1010.517029	15170.460938	6702.105469	40.194992
583.718201	998.108398	15132.046875	6668.595215	40.119652
584.059937	995.953674	15079.661133	6641.326172	40.084423
584.401611	986.740173	15041.247070	6625.128418	40.118008
584.743347	986.888855	14998.078125	6607.964355	40.118477
585.085022	983.470886	14968.356445	6590.428223	40.092979
585.426514	994.839172	14968.356445	6591.097168	40.049026
585.768127	989.935242	14978.834961	6574.527344	39.921600
586.109619	998.331360	15061.309570	6587.604980	39.744591
586.451172	998.108398	15149.433594	6585.599121	39.483868
586.792542	1001.006165	15231.760742	6601.945313	39.357990
587.133850	1005.018555	15232.057617	6624.310547	39.497269
587.475220	1000.114563	15239.190430	6655.963379	39.720615
587.816589	1000.931946	15206.051758	6678.700684	39.969875
588.157776	1003.904053	15207.612305	6737.399902	40.366192
588.498962	1004.498474	15139.031250	6758.798340	40.710930
588.840210	1002.492371	15065.992188	6786.067871	41.124725
589.181335	1012.523193	15041.395508	6827.082520	41.447094
589.522400	1026.863647	14990.202148	6864.382813	41.806042
589.863403	1024.411621	14952.604492	6883.404297	42.065704
590.204407	1027.606567	14816.260742	6835.925293	42.123898
590.545410	1007.767761	14780.296875	6778.191406	41.898067
590.886353	1027.458008	14729.250000	6726.848145	41.595947
591.227112	1005.390137	14735.417969	6664.434082	41.216553
591.567932	1005.464539	14707.703125	6613.834473	40.930321
591.908752	985.105469	14694.774414	6564.794434	40.698933
592.249512	992.832947	14774.575195	6550.750488	40.328121
592.590149	987.037292	14822.948242	6558.850098	40.270660
592.930786	997.959778	14892.569336	6589.833984	40.244919
593.271423	988.226135	14860.469727	6628.471191	40.658493
593.612000	996.028015	14840.854492	6674.464844	41.014866
593.952576	993.353027	14855.492188	6726.996582	41.361897
594.292969	982.430603	14874.661133	6788.222168	41.791645
594.633484	974.331543	14894.128906	6866.908691	42.332352
594.973877	964.895203	14949.929688	6966.028809	42.911114
595.314209	987.780457	15045.112305	7086.027344	43.381256
595.654480	997.439758	15204.045898	7239.610840	43.938507
595.994812	1003.532532	15363.500000	7403.449219	44.567764
596.335022	992.089905	15512.847656	7522.481934	44.972805
596.675171	998.034180	15657.441406	7555.843750	44.734478
597.015320	995.359192	15723.347656	7486.593750	44.074142
597.355408	997.737000	15706.926758	7369.641113	43.319206
597.695496	988.077576	15628.536133	7180.837891	42.298950
598.035461	986.220032	15391.511719	6985.199219	41.644272
598.375366	990.381042	15201.148438	6768.829590	40.662468
598.715271	987.780457	14943.242188	6583.369629	40.096054
599.055176	1011.260071	14724.421875	6450.590332	39.665031
599.395081	1000.337585	14423.346680	6330.145996	39.706512
599.734802	996.696716	14141.442383	6252.425293	39.983494
600.074524	973.217041	13869.198242	6179.533691	40.371620
600.414246	969.650452	13669.247070	6149.367188	40.786469
600.753906	991.124023	13498.500000	6169.429199	41.402012
601.093506	985.031250	13361.856445	6185.775391	42.020020
601.433044	997.365417	13276.855469	6261.415527	42.868637
601.772583	982.207703	13254.043945	6333.786621	43.608627
602.112122	1009.551086	13352.125000	6484.250000	44.356216
602.451538	1008.139343	13476.656250	6631.220703	45.098240
602.790894	1012.300354	13686.041992	6807.689453	45.727531
603.130310	987.706116	13922.323242	6967.812012	46.233345
603.469604	979.532776	14225.776367	7125.333984	46.396561
603.808838	966.158264	14481.898438	7271.189941	46.649548
604.148010	964.449219	14769.003906	7395.646973	46.587505
604.487305	977.675110	14967.987305	7462.890625	46.355042
604.826416	985.105469	15135.613281	7428.860840	45.537273
605.165527	987.631653	15130.487305	7274.979004	44.455994
605.504456	968.535950	15063.984375	7067.525879	43.269215
605.843445	969.576172	14860.989258	6849.818848	42.330055
606.182434	965.266602	14648.855469	6659.976074	41.617077
606.521423	985.997070	14392.659180	6488.782715	41.045158
606.860229	984.585266	14169.008789	6353.773926	40.723724
607.199036	985.476990	14023.672852	6267.509277	40.511986
607.537903	971.062256	13965.122070	6238.010254	40.533508
607.876648	978.938416	14048.563477	6285.712891	40.603878
608.215271	981.018860	14233.503906	6349.019531	40.505615
608.553955	982.059082	14646.106445	6440.263184	39.945736
608.892578	990.529602	15290.683594	6530.020020	38.737274
609.231140	988.969238	16265.980469	6610.341797	36.796284
609.569641	986.888855	17484.619141	6638.576172	34.257362
609.908081	966.158386	18991.701172	6606.477051	31.290701
610.246521	984.733948	20550.349609	6540.868652	28.397444
610.584961	991.346924	22014.781250	6434.541504	25.891081
610.923340	1001.674988	23023.664063	6305.551270	24.084457
611.261597	994.096130	23519.931641	6160.363770	22.934855
611.599854	999.445862	23596.091797	6020.526855	22.220470
611.938110	1000.263184	23344.281250	5886.930176	21.870136
612.276245	1009.328125	22893.187500	5764.925293	21.731071
612.614319	1009.551086	22113.234375	5663.501465	22.052786
612.952393	1010.219788	21157.326172	5575.156250	22.658026
613.290466	997.216797	20110.253906	5518.240723	23.654137
613.628479	996.993958	19042.896484	5460.729980	24.735455
613.966370	997.662598	18035.052734	5428.854004	26.008627
614.304260	988.523376	17030.925781	5350.538574	27.190536
614.642151	979.012695	16069.300781	5303.802246	28.659424
614.979980	965.118103	15255.833008	5254.539551	30.015444
615.317749	967.941589	14537.252930	5236.484375	31.457329
615.655396	974.257324	13985.778320	5229.128418	32.700794
615.993164	970.170654	13462.463867	5199.778809	33.857742
616.330811	983.322266	13055.731445	5201.710449	34.942390
616.668396	971.582336	12664.007813	5171.841309	35.922905
617.005859	988.151855	12335.366211	5176.298828	36.909031
617.343445	983.545105	12012.668945	5169.760254	37.956009
617.680908	985.179749	11794.590820	5173.252441	38.744690
618.018311	996.176575	11624.512695	5186.924316	39.429951
618.355652	990.083801	11502.878906	5178.528320	39.841396
618.692993	1001.229187	11343.277344	5170.652344	40.315258
619.030273	984.362488	11197.270508	5143.605957	40.725361
619.367554	984.213867	11076.454102	5124.361328	41.023075
619.704712	968.833191	11038.116211	5101.253418	41.039867
620.041870	971.062256	11019.985352	5082.529297	40.914501
620.379028	965.415222	10954.598633	5044.337891	40.833393
620.716064	972.473938	10890.327148	5025.761719	40.868599
621.053040	964.449280	10808.742188	4991.508301	40.907551
621.389954	972.028137	10779.170898	5004.288574	41.115547
621.726929	971.879578	10753.461914	4995.000488	41.129551
622.063843	972.399658	10740.903320	4998.418457	41.214283
622.400635	963.632019	10748.780273	4982.368652	41.069756
622.737427	962.814636	10765.795898	4974.344238	40.921524
623.074219	965.117981	10792.172852	4979.322754	40.848503
623.410889	969.650574	10816.692383	4995.892090	40.887825
623.747559	974.926025	10841.361328	5044.708984	41.248768
624.084167	987.706116	10872.344727	5077.699707	41.377270
624.420715	985.402649	10946.945313	5107.197754	41.377071
624.757324	983.842285	11050.151367	5166.342285	41.549492
625.093750	982.430603	11178.695313	5235.295410	41.710026
625.430176	986.368591	11285.914063	5332.483398	42.197147
625.766602	999.000061	11420.328125	5412.358887	42.349293
626.102905	986.740173	11540.773438	5469.125488	42.470829
626.439209	984.362488	11652.450195	5492.753906	42.260540
626.775452	966.158203	11724.375000	5482.128906	41.976944
627.111694	960.511230	11745.402344	5468.902832	41.802849
627.447876	954.492737	11743.471680	5444.085938	41.612774
627.783997	954.269958	11685.217773	5388.062012	41.317802
628.120056	964.152161	11661.440430	5331.145996	40.823372
628.456055	973.142822	11585.502930	5264.719238	40.439411
628.792053	964.523682	11507.559570	5181.648926	39.999153
629.128052	952.560852	11428.129883	5100.361328	39.594986
629.463928	959.099609	11421.590820	5063.433105	39.229027
629.799744	958.356506	11412.377930	5025.166992	38.901878
630.135559	958.579407	11370.991211	4972.264160	38.547119
630.471375	942.827209	11288.218750	4891.571289	38.169113
630.807068	971.136536	11199.128906	4874.407715	38.162636
631.142700	992.238525	11107.737305	4877.898926	38.412937
631.478333	1000.709045	10932.679688	4852.116211	38.777874
631.813965	979.384094	10752.717773	4806.345703	39.157177
632.149475	961.031433	10539.692383	4755.597168	39.614780
632.484924	964.895081	10388.857422	4757.677734	40.246159
632.820435	968.387390	10194.778320	4753.070801	41.020195
633.155884	975.891907	10024.625977	4778.036621	42.018524
633.491150	999.966003	9918.669922	4803.819824	42.650295
633.826477	1003.829773	9824.825195	4791.410645	42.938248
634.161804	1010.591309	9719.463867	4778.705566	43.267529
634.497009	981.539001	9571.156250	4717.182129	43.490215
634.832153	965.341003	9420.766602	4670.148926	43.815746
635.167297	954.195618	9319.864258	4601.270508	43.595737
635.502380	952.189453	9176.088867	4555.648438	43.816914
635.837463	958.653809	9090.566406	4529.270996	43.908703
636.172424	959.619629	8989.811523	4498.880859	44.074429
636.507324	959.099548	8916.624023	4471.686035	44.141697
636.842224	960.734192	8824.562500	4446.497559	44.326546
637.177124	967.867249	8732.129883	4424.206543	44.516003
637.511963	958.728027	8608.341797	4374.275391	44.649933
637.846741	953.452576	8511.526367	4329.396973	44.666729
638.181396	936.734375	8402.894531	4277.830566	44.749859
638.516113	943.050110	8370.276367	4264.902344	44.725342
638.850769	947.656921	8304.518555	4234.586426	44.678417
639.185303	945.799316	8237.793945	4215.564453	44.840477
639.519836	945.650696	8157.547363	4167.490723	44.673965
639.854370	942.232727	8089.783203	4138.587402	44.719585
640.188843	949.440186	8032.570313	4103.293457	44.526268
640.523254	955.681641	7968.298340	4089.101563	44.682606
640.857605	968.164490	7921.339355	4083.231689	44.800644
641.191895	962.071716	7868.583984	4060.197998	44.858044
641.526184	947.805481	7791.829590	4044.371338	45.244816
641.860413	935.025391	7721.613281	4014.650391	45.378105
642.194580	936.808655	7653.253906	4004.545166	45.675003
642.528748	938.666199	7628.362793	3995.034424	45.687695
642.862793	954.269775	7612.907715	3992.136719	45.622952
643.196838	962.443176	7603.248535	3991.616455	45.614548
643.530823	971.285156	7575.905762	3982.997314	45.600079
643.864746	965.563782	7550.568359	3969.548584	45.618572
644.198669	966.083984	7536.153809	3951.864502	45.445187
644.532532	967.792908	7505.020996	3935.517822	45.397297
644.866333	968.164368	7469.429688	3931.951904	45.587860
645.200073	966.232605	7431.535156	3941.536865	46.019566
645.533813	958.653625	7420.093262	3936.558350	46.087326
645.867554	950.108887	7408.129395	3926.453125	46.087563
646.201172	946.245117	7423.584473	3922.812256	45.953545
646.534729	949.068665	7430.643066	3922.663330	45.877663
646.868225	946.245178	7452.191406	3924.818359	45.782322
647.201782	937.923157	7435.250000	3908.471680	45.719551
647.535217	944.833313	7469.429688	3921.697510	45.625263
647.868591	966.381165	7478.048828	3947.034912	45.774048
648.201965	985.254089	7496.773438	3954.836670	45.605061
648.535278	965.341003	7471.436035	3935.815186	45.656788
648.868591	937.626038	7495.881348	3906.093994	45.263073
649.201782	924.400085	7503.608887	3901.487305	45.249924
649.534912	936.660095	7544.252441	3897.846436	44.814907
649.868103	934.876770	7560.450684	3876.670166	44.400585
650.201172	928.263855	7595.670410	3875.555664	44.204468
650.534180	924.028625	7588.239746	3881.128174	44.372841
650.867188	931.161621	7578.580566	3908.843018	44.794548
651.200134	941.861328	7563.125488	3911.294922	44.846928
651.533020	933.613586	7540.760254	3907.876953	45.015854
651.865845	950.331726	7522.556152	3889.153076	44.715778
652.198608	954.567078	7516.908691	3899.035156	44.869167
652.531433	958.653625	7475.447754	3883.283203	44.878349
652.864136	945.204895	7408.649902	3865.821533	45.186687
653.196777	2267.421875	8794.840820	6168.314453	59.761639
653.529358	2331.842285	8793.800781	6222.332520	60.206055
653.861938	2330.504883	8728.117188	6194.394531	60.395809
654.194519	999.000000	7178.311035	3827.110596	45.767410
654.526978	950.851868	7087.291016	3753.104736	45.665783
654.859375	944.239014	7023.835938	3743.371094	46.041412
655.191833	949.663086	6999.390625	3727.173096	45.911324
655.524170	932.499084	6946.561035	3698.640869	45.994568
655.856445	939.260742	6948.716309	3707.185547	46.059494
656.188660	1015.421082	7016.331543	3793.897217	46.300907
656.520874	1030.727417	7041.371094	3806.008545	46.172779
656.853088	1029.464233	7070.721191	3816.485107	46.133133
657.185181	948.028503	7029.111816	3778.887695	46.551888
657.517212	941.043945	7082.312500	3826.664063	46.987362
657.849243	946.170898	7152.380371	3913.969971	47.819836
658.181274	958.579346	7278.396973	4012.421143	48.321678
658.513123	945.576416	7372.315918	4094.748779	49.001091
658.844971	938.740540	7505.020996	4151.590332	48.929527
659.176819	930.790222	7607.335449	4187.850098	48.783607
659.508667	931.904785	7706.826660	4217.719238	48.499664
659.840393	933.390808	7727.779785	4205.162598	48.154022
660.172058	935.694153	7721.315918	4166.450684	47.611801
660.503662	953.229553	7669.675293	4103.962402	46.910717
660.835266	961.997253	7624.127441	4046.005859	46.291626
661.166931	959.842529	7517.279785	3956.991211	45.706097
661.498413	958.505066	7435.845215	3887.295654	45.215942
661.829773	957.316223	7318.743652	3800.212891	44.689606
662.161194	963.780579	7207.958496	3738.838623	44.442329
662.492615	951.446350	7069.161621	3662.678467	44.317722
662.823975	969.353333	6960.605469	3636.746826	44.521473
663.155212	970.616455	6846.476074	3591.496338	44.604198
663.486450	974.034363	6728.186035	3555.385498	44.860668
663.817627	959.694031	6612.719238	3511.026611	45.132160
664.148743	953.229675	6528.831543	3487.546875	45.453693
664.479858	960.139709	6453.488281	3460.574951	45.517506
664.810913	944.313232	6362.616699	3429.219482	45.861332
665.141907	941.786926	6291.210938	3414.284180	46.219879
665.472778	934.876770	6239.199219	3418.371094	46.820202
665.803711	971.953796	6257.032715	3444.599854	46.785412
666.134583	969.724792	6229.316895	3432.414063	46.822815
666.465454	984.808289	6219.063965	3442.221924	46.948669
666.796143	954.046936	6134.582031	3410.643311	47.419743
667.126831	970.913635	6144.314941	3419.262695	47.325714
667.457458	966.455566	6136.810547	3410.048828	47.261616
667.788147	966.678406	6142.085938	3401.058350	47.037453
668.118774	964.226379	6121.207031	3409.900391	47.424538
668.449219	966.455505	6126.259277	3407.671143	47.312180
668.779663	977.675110	6145.949219	3431.076904	47.470428
669.110107	956.498840	6124.996094	3400.389648	47.284363
669.440552	947.136780	6115.262207	3399.720703	47.455967
669.770874	928.858215	6068.972656	3359.820313	47.293934
670.101135	939.112000	6052.477051	3357.814209	47.301571
670.431396	940.300964	5980.402832	3338.421143	47.580784
670.761597	944.238953	5950.830566	3340.947510	47.871059
671.091797	937.254456	5910.707031	3332.477295	48.160164
671.421875	920.387756	5879.945801	3302.235596	48.025406
671.751892	921.279480	5857.060547	3285.443604	47.898476
672.081909	928.858398	5828.007813	3276.230225	47.913864
672.411865	951.520691	5800.516113	3266.942139	47.750534
672.741821	944.461914	5761.433594	3241.084717	47.677731
673.071716	937.105896	5732.826660	3214.187256	47.481525
673.401550	929.601257	5712.318848	3198.212158	47.433510
673.731262	935.174011	5694.486328	3202.298828	47.635551
674.060974	929.155518	5640.988281	3176.738281	47.700817
674.390625	932.127625	5624.716309	3173.171875	47.757095
674.720276	933.019287	5597.966797	3157.717041	47.689667
675.049927	938.443359	5589.199219	3165.816162	47.892704
675.379395	930.567322	5556.951660	3156.082764	48.104855
675.708923	931.236023	5507.466309	3139.810303	48.261868
676.038330	935.099792	5474.401855	3112.615234	47.970268
676.367737	939.186340	5459.020996	3104.218994	47.900707
676.697083	957.167664	5480.568848	3131.042236	48.058403
677.026428	960.288391	5491.193848	3149.989502	48.328117
677.355652	952.412292	5484.581543	3157.494141	48.654003
677.684875	948.697083	5494.240234	3165.444580	48.767498
678.013977	935.694153	5507.392090	3175.326904	48.989082
678.343079	939.334961	5531.168457	3186.621094	48.940933
678.672180	914.815125	5536.146973	3177.779053	48.967785
679.001221	916.747009	5585.484375	3205.419189	49.021221
679.330139	926.109070	5653.768066	3255.796631	49.277824
679.659058	937.551758	5723.539063	3301.641357	49.396069
679.987976	933.762268	5775.921875	3344.513916	49.786705
680.316772	931.458984	5807.277832	3356.328125	49.732552
680.645630	925.737610	5828.380371	3360.266357	49.657482
680.974304	941.192627	5847.400879	3366.730469	49.438137
681.302979	931.384583	5857.134766	3358.260010	49.269157
681.631653	931.013123	5837.296387	3340.576172	49.111778
681.960266	936.214294	5820.949707	3302.830322	48.449215
682.288757	946.022217	5782.460938	3287.969971	48.422981
682.617249	955.458679	5758.535156	3261.963867	48.021408
682.945679	954.046875	5700.802246	3241.530518	48.190468
683.274109	962.443115	5661.569824	3203.487549	47.690655
683.602478	960.808594	5580.505859	3167.822266	47.773991
683.930725	949.217285	5495.800781	3099.166748	47.287144
684.259033	929.601379	5391.034180	3030.510742	47.090466
684.587280	922.096741	5304.471191	2985.557617	47.085453
684.915344	924.400146	5239.084473	2980.207764	47.646767
685.243469	938.443359	5205.425781	2984.219971	47.944340
685.571533	939.855042	5207.431641	2972.108643	47.620789
685.899536	943.421631	5191.457031	2955.688232	47.369350
686.227539	923.880066	5173.178223	2932.059570	47.259083
686.555420	925.811951	5170.577637	2934.437500	47.320057
686.883301	919.273254	5172.583984	2933.843018	47.364750
687.211121	919.570496	5185.512207	2942.313477	47.416092
687.538940	923.657166	5215.308105	2962.969727	47.518135
687.866638	922.988464	5221.995117	2967.279297	47.552628
688.194336	928.858337	5200.076172	2966.758789	47.712399
688.521973	915.855286	5144.497559	2935.848877	47.769321
688.849609	912.883118	5111.209961	2912.666748	47.632874
689.177063	922.988342	5087.284668	2893.719482	47.324471
689.504578	929.378418	5032.672363	2867.490967	47.233089
689.832031	928.263855	4951.830566	2841.707764	47.555912
690.159485	920.684998	4881.465820	2811.614990	47.741344
690.486816	923.137024	4807.980469	2770.451172	47.551830
690.814087	961.848694	4806.865723	2773.794922	47.124531
691.141296	978.121094	4748.983887	2759.231689	47.233501
691.468506	974.257324	4685.678223	2755.367920	47.989990
691.795715	939.186340	4591.759277	2708.260010	48.433632
692.122803	928.858215	4548.292480	2687.975342	48.601994
692.449829	929.006836	4553.642578	2671.480225	48.073063
692.776855	926.109070	4533.729004	2657.882568	48.003212
693.103821	911.917297	4504.528320	2617.610596	47.477818
693.430664	899.285828	4460.244141	2608.471436	47.997910
693.757568	899.062927	4437.878418	2594.576904	47.911907
694.084351	899.583008	4406.597168	2603.195557	48.577293
694.411133	910.877014	4394.039551	2592.793213	48.287045
694.737854	917.118469	4372.120605	2597.623047	48.639755
695.064575	915.632507	4369.297363	2599.926514	48.768311
695.391174	927.669434	4357.631348	2621.474365	49.382618
695.717773	916.003906	4356.071289	2632.248047	49.889839
696.044250	916.598328	4351.464355	2642.724854	50.253094
696.370789	898.171326	4368.479980	2648.223389	50.429291
696.697205	900.251770	4400.281738	2669.771240	50.557266
697.023621	901.812195	4461.952637	2715.392822	50.941265
697.349915	914.666504	4555.648438	2781.596680	51.275459
697.676208	917.935791	4666.507813	2865.335938	51.950455
698.002380	923.805664	4794.011719	2960.294922	52.619659
698.328674	923.731445	4919.062988	3043.365234	53.052765
698.654724	925.366150	5024.349609	3115.512939	53.431461
698.980896	924.028625	5147.098145	3161.060547	52.971710
699.306946	935.322693	5205.797363	3162.026611	52.141834
699.632935	942.158508	5236.930176	3125.321045	50.833035
699.958862	942.307129	5169.834473	3056.071045	50.000008
700.284729	923.434143	5089.290527	2975.378174	49.256237
700.610596	926.629150	5002.430664	2903.453125	48.501476
700.936340	931.013000	4900.041504	2831.156494	47.874271
701.262146	926.777832	4777.367676	2744.816650	47.214554
701.587830	930.270081	4633.814941	2678.464355	47.203270
701.913513	933.019287	4486.323730	2622.514404	47.547153
702.239075	950.777649	4369.743164	2590.712891	47.965832
702.564697	941.266846	4252.567871	2550.218018	48.589699
702.890137	930.195801	4177.893555	2503.630127	48.447685
703.215698	912.288818	4095.863281	2467.593506	48.854038
703.541016	904.561340	4041.622314	2423.903320	48.432022
703.866455	907.087585	3996.520508	2402.504150	48.404240
704.191711	913.254700	3975.938477	2394.999756	48.380611
704.517029	916.895569	3953.721924	2379.544678	48.163738
704.842163	919.644714	3951.196045	2372.485840	47.924015
705.167419	922.691162	3931.059570	2358.813965	47.737598
705.492493	923.211243	3949.189453	2359.705811	47.472073
705.817566	918.455994	3942.576416	2349.377686	47.316956
706.142578	918.084473	3964.124756	2341.501709	46.730087
706.467590	924.920349	3984.186279	2337.192139	46.163746
706.792480	928.115295	4014.353271	2342.987549	45.844563
707.117371	925.886230	4028.916748	2354.727539	46.046642
707.442200	939.483582	4064.284424	2376.795410	45.996910
707.766907	944.090332	4082.488525	2373.526123	45.546669
708.091675	950.703308	4108.197266	2354.578857	44.461700
708.416321	933.836609	4096.086426	2324.337646	43.971889
708.741028	935.545593	4108.271973	2335.111572	44.112408
709.065552	935.025391	4126.995605	2360.374512	44.654213
709.390137	934.950989	4111.466309	2380.287842	45.500706
709.714600	937.328796	4110.872559	2387.049316	45.681438
710.039063	943.867371	4096.457520	2400.646729	46.208965
710.363403	960.808411	4129.819824	2429.921875	46.358730
710.687744	959.173767	4125.138184	2449.092041	47.060486
711.012085	948.474304	4151.738770	2453.921631	46.997284
711.336304	944.684814	4171.131348	2468.707764	47.235340
711.660461	942.827332	4205.236328	2472.794678	46.896858
711.984619	957.762146	4223.143066	2482.974121	46.708546
712.308716	950.406189	4214.747070	2453.921875	46.058781
712.632751	945.427917	4186.586426	2448.794922	46.383629
712.956726	952.115051	4146.908691	2435.345947	46.426502
713.280701	949.514465	4100.172852	2428.361572	46.937717
713.604553	962.145935	4063.913330	2405.178955	46.522926
713.928467	952.635193	4000.756104	2387.718018	47.080902
714.252258	952.338074	3941.313721	2369.067871	47.398506
714.575989	944.907715	3879.270752	2352.646973	47.974270
714.899719	931.161682	3816.559326	2334.814209	48.646763
715.223267	929.304138	3763.507080	2321.588623	49.124374
715.546936	937.625977	3726.504639	2331.842285	49.992004
715.870422	941.043945	3702.058594	2333.922607	50.448071
716.193970	938.294739	3689.650391	2337.712158	50.862835
716.517395	934.579590	3684.597900	2335.557373	50.944309
716.840820	935.842773	3655.545654	2317.501709	50.801834
717.164124	932.796326	3610.815186	2296.994141	50.940559
717.487488	933.687988	3551.447021	2260.363037	50.679802
717.810730	926.406250	3513.701172	2230.344727	50.397751
718.133972	927.149353	3462.655273	2195.050781	50.005856
718.457092	913.923523	3405.145264	2169.342285	50.393696
718.780212	910.654114	3359.300537	2152.846924	50.729774
719.103210	908.945129	3319.622803	2127.658447	50.554802
719.426208	906.418762	3285.146240	2101.429443	50.237396
719.749207	936.437195	3274.223877	2102.395264	49.874439
720.072083	937.105957	3243.833984	2100.017822	50.413914
720.394958	938.220520	3219.908447	2083.968506	50.214931
720.717773	910.654114	3158.608643	2046.296753	50.518929
721.040527	903.818359	3126.064453	2024.749146	50.441345
721.363281	918.604553	3102.435791	2019.696655	50.420197
721.685913	936.585876	3088.318359	2022.891602	50.485165
722.008545	949.811707	3068.256592	2019.027832	50.471745
722.331055	939.855042	3043.067627	1999.634766	50.388618
722.653503	925.811829	3019.365234	1981.876465	50.443645
722.976013	924.325867	3010.895264	1976.600952	50.430874
723.298401	933.242188	3006.065186	1983.659790	50.675701
723.620789	932.424866	2987.861084	1974.669312	50.706722
723.943115	933.242188	2996.628906	1984.477173	50.947067
724.265381	931.830383	2986.077881	1986.706055	51.350956
724.587585	936.214294	3004.430420	1995.771118	51.230473
724.909790	935.025391	2993.953857	1983.957031	50.945511
725.231873	924.028625	2994.325439	1969.913696	50.518600
725.553894	937.923340	3003.910400	1988.786621	50.864948
725.875916	1415.169800	3514.964111	2491.593262	51.263279
726.197937	1440.135376	3531.162109	2521.834473	51.730522
726.519775	1416.432983	3517.044678	2505.487793	51.844646
726.841675	932.573486	3025.458008	2009.739868	51.468029
727.163513	907.756348	3028.355713	2007.659546	51.867561
727.485291	911.991638	3052.801514	2031.956543	52.315010
727.806946	928.635437	3084.305908	2059.894287	52.478283
728.128662	931.236023	3102.807373	2065.541260	52.234306
728.450256	940.449524	3120.714111	2070.147949	51.814743
728.771790	932.796326	3105.556641	2058.036621	51.788513
729.093323	936.511414	3100.949951	2050.457764	51.465832
729.414795	932.424805	3088.169922	2041.095703	51.428665
729.736145	920.536377	3074.349365	2030.841797	51.550690
730.057495	911.322815	3073.234619	2020.365234	51.299152
730.378845	912.734558	3082.820068	2026.234985	51.311367
730.700134	927.149231	3107.191406	2050.086182	51.509872
731.021301	931.681824	3129.110352	2069.999268	51.802250
731.342468	928.189636	3130.745361	2068.661865	51.779495
731.663574	927.520813	3131.116455	2059.374268	51.363937
731.984680	938.517639	3122.869141	2071.931396	51.887886
732.305664	923.062683	3125.172607	2067.844482	51.985680
732.626648	922.988342	3125.023682	2069.850586	52.081921
732.947571	912.437317	3130.447998	2053.058350	51.425407
733.268433	931.830383	3124.280518	2052.909912	51.133640
733.589233	931.533203	3126.955811	2049.937744	50.942562
733.909973	953.303955	3133.642822	2051.052490	50.347610
734.230713	969.724854	3136.094971	2056.922119	50.185204
734.551331	961.700134	3080.590820	2032.030884	50.513737
734.871948	936.214355	3025.532471	1992.204468	50.542332
735.192505	924.697327	2965.644531	1955.573242	50.509682
735.513062	933.093567	2944.839844	1938.409546	49.972301
735.833435	941.935547	2900.035156	1933.208374	50.624229
736.153931	933.985168	2862.958008	1906.087769	50.394829
736.474304	924.846008	2834.277344	1904.601563	51.311378
736.794617	924.920227	2823.949219	1907.350708	51.733303
737.114807	927.669434	2833.757080	1920.130859	52.067986
737.434998	927.669495	2819.416748	1901.109375	51.457184
737.755188	936.288574	2814.215576	1896.576782	51.135544
738.075256	932.870667	2803.961670	1891.821411	51.250885
738.395325	937.031555	2824.766602	1903.858398	51.216236
738.715271	932.573425	2845.051514	1916.341431	51.439442
739.035278	930.121399	2846.240234	1914.706665	51.384350
739.355164	930.344299	2834.203125	1913.369507	51.633301
739.675049	925.068848	2821.794189	1903.412720	51.580681
739.994873	938.591980	2832.122314	1920.725464	51.867851
740.314636	936.734375	2820.457031	1910.174316	51.676395
740.634277	937.848877	2801.138428	1896.651245	51.457508
740.953979	927.075012	2762.798096	1871.239624	51.432842
741.273499	936.882996	2742.885010	1875.400757	51.966599
741.593140	946.839600	2719.479736	1867.227417	51.921864
741.912598	950.406067	2699.492188	1857.790894	51.877651
742.232117	945.947937	2680.396240	1831.264771	51.043140
742.551453	933.910889	2653.052979	1810.237183	50.974628
742.870850	940.226563	2636.334961	1799.388794	50.654911
743.190063	933.910889	2619.914063	1791.735840	50.879200
743.509338	933.613708	2603.418701	1790.175415	51.297112
743.828552	927.966614	2588.335205	1774.348999	50.975571
744.147705	927.372314	2570.874023	1771.451172	51.358562
744.466797	928.041016	2544.347900	1765.209839	51.795166
744.785828	946.393799	2533.648193	1769.816406	51.877167
745.104858	959.768250	2518.044922	1756.813477	51.149151
745.423706	968.535950	2522.948975	1749.829102	50.262905
745.742615	953.601074	2498.651855	1742.993286	51.091667
746.061401	961.254211	2506.453857	1749.903442	51.038662
746.380249	957.093262	2492.261963	1728.207031	50.229904
746.698975	951.520569	2476.583984	1710.077148	49.739346
747.017639	932.573425	2454.144531	1696.851196	50.229515
747.336304	926.777832	2448.274658	1708.888306	51.404015
747.654907	928.041016	2461.574951	1730.510376	52.328114
747.973389	936.660156	2462.466553	1741.507324	52.748970
748.291931	937.477478	2464.918457	1745.519531	52.901691
748.610352	929.304199	2460.534424	1730.584595	52.329193
748.928711	928.115295	2462.020508	1736.008789	52.669060
749.247070	933.316589	2470.937012	1730.881836	51.870102
749.565308	942.678711	2469.450928	1731.625000	51.674133
749.883545	938.740662	2470.045410	1718.621948	50.929203
750.201782	938.517761	2447.828857	1712.974976	51.311970
750.519836	930.567322	2432.819580	1700.640625	51.261253
750.837952	928.932617	2414.838623	1694.993652	51.555149
751.155884	925.217529	2419.370850	1701.309448	51.941921
751.473877	927.595215	2413.649658	1710.671509	52.694992
751.791809	924.400208	2409.042725	1703.612793	52.484859
752.109619	922.542664	2396.559814	1696.999878	52.540585
752.427490	930.121521	2395.296631	1692.095825	52.005684
752.745300	951.074890	2398.268799	1710.968750	52.508091
753.062988	948.771484	2402.726807	1701.532227	51.773308
753.380615	939.112122	2392.398682	1689.197876	51.613064
753.698303	932.424866	2406.144775	1682.882324	50.922665
754.015808	940.152344	2400.646484	1693.210327	51.561863
754.333374	934.653992	2400.795166	1701.309204	52.290684
754.650757	919.793457	2367.656250	1692.467285	53.366508
754.968262	916.672668	2368.176270	1680.950562	52.654217
755.285583	932.053406	2370.553955	1691.501465	52.794426
755.602905	939.483643	2368.399170	1679.093140	51.760197
755.920105	939.855164	2351.680908	1678.870117	52.344631
756.237305	928.412415	2343.507568	1657.396484	51.514843
756.554443	923.582825	2340.089844	1661.111694	52.066727
756.871582	917.861511	2344.399414	1662.003296	52.164181
757.188599	914.592224	2353.984619	1663.712280	52.044189
757.505615	920.685059	2373.451904	1678.869995	52.189030
757.822510	928.783997	2384.597412	1699.303101	52.927048
758.139465	940.523865	2399.160645	1716.838501	53.221931
758.456238	929.229797	2405.104736	1724.789063	53.904243
758.773010	922.988281	2416.027344	1729.544312	54.021095
759.089783	924.028564	2419.148193	1745.370728	54.934879
759.406433	927.149353	2420.039795	1752.726929	55.300617
759.723145	917.935791	2421.451416	1744.479370	54.974060
760.039673	915.335205	2429.847656	1742.993286	54.648483
760.356201	917.787170	2423.383301	1736.900513	54.404583
760.672668	926.554871	2429.327393	1748.863281	54.719421
760.989136	916.598328	2424.200684	1736.157349	54.361752
761.305481	913.626282	2431.779541	1736.528809	54.204178
761.621826	923.062683	2435.197510	1738.683716	53.938381
761.938049	958.653625	2464.992920	1776.949585	54.323479
762.254333	960.957031	2496.348633	1794.856445	54.311840
762.570496	952.115051	2536.620850	1821.605469	54.874546
762.886597	917.415710	2581.870850	1844.862305	55.720734
763.202637	914.963684	2684.260254	1929.121582	57.319836
763.518677	919.793457	2829.447510	2031.510620	58.215630
763.834656	925.589050	2986.746338	2127.138428	58.294888
764.150574	922.839844	3085.123047	2174.468994	57.884609
764.466370	919.273254	3133.123047	2189.478271	57.375393
764.782288	912.511719	3113.952881	2161.243408	56.723373
765.097961	920.982178	3079.178955	2116.290283	55.384575
765.413696	918.307312	2985.780518	2024.823608	53.520229
765.729309	920.164856	2885.174805	1947.177124	52.264984
766.044861	915.929688	2777.287109	1873.171509	51.427082
766.360474	913.923401	2681.882568	1835.277222	52.113976
766.675903	917.341370	2589.895752	1791.735718	52.278976
766.991394	910.208313	2508.980225	1763.055054	53.343864
767.306763	919.050354	2467.444580	1740.838379	53.073563
767.622131	920.164856	2431.853760	1727.241089	53.389042
767.937378	934.059509	2392.250244	1699.600464	52.499374
768.252625	936.288574	2349.971924	1678.498413	52.501846
768.567810	928.115234	2309.699951	1655.167480	52.624516
768.882996	927.075134	2294.913818	1651.526733	52.963238
769.197998	915.632507	2250.629150	1635.625854	53.932224
769.513062	926.406311	2233.911377	1643.873413	54.872986
769.828064	922.096741	2196.760010	1618.758911	54.654602
770.142944	925.217468	2190.146973	1613.706421	54.429039
770.457825	920.164856	2170.159668	1591.564087	53.712158
770.772705	915.038025	2145.862793	1597.211304	55.424080
771.087402	915.706787	2125.652344	1581.533325	55.029461
771.402100	927.966736	2106.482178	1574.177368	54.832600
771.716736	937.254578	2101.058105	1571.502563	54.497860
772.031372	937.105957	2097.417236	1571.279663	54.655479
772.345947	919.421814	2081.219238	1560.877319	55.212341
772.660461	921.205139	2073.194580	1557.013550	55.192204
772.974854	930.121399	2054.173096	1560.505859	56.081444
773.289246	950.257507	2039.089478	1567.713013	56.708057
773.603638	942.381409	2016.130249	1550.474976	56.632759
773.917908	935.471191	2004.538940	1530.338867	55.643589
774.232178	918.604492	2002.606934	1511.614624	54.705608
774.546265	916.078308	2002.903931	1509.162598	54.570324
774.860474	908.127869	1995.993774	1500.989258	54.497650
775.174561	920.164856	1991.015625	1492.295898	53.427708
775.488586	937.625977	1988.860962	1494.970703	53.018093
775.802551	942.901550	1972.885742	1502.252319	54.306736
776.116516	931.013123	1951.560913	1511.391602	56.869308
776.430359	914.815125	1938.929565	1500.097656	57.150108
776.744202	929.452820	1947.400024	1507.899414	56.824814
777.057922	929.155518	1953.641602	1505.447632	56.251823
777.371704	934.802551	1945.616821	1504.556030	56.365791
777.685303	922.988464	1925.183594	1488.654907	56.442745
777.998962	930.121399	1922.805786	1482.265015	55.621265
778.312500	919.793396	1912.329102	1475.726196	56.011364
778.626038	915.632385	1909.505493	1474.017212	56.182709
778.939453	920.387756	1916.935913	1486.054321	56.762592
779.252869	948.251282	1944.576538	1505.150024	55.895275
779.566223	952.263672	1940.712769	1494.673462	54.874832
779.879578	940.523865	1921.691284	1480.258789	55.009464
780.192749	933.539368	1891.895874	1467.850220	55.752827
780.505920	928.932617	1895.239380	1473.942993	56.401382
780.819031	921.056458	1880.007446	1464.729492	56.694557
781.132141	970.765076	1950.520874	1513.397827	55.384491
781.445190	978.195313	1952.378296	1517.707397	55.380981
781.758118	997.885498	1970.285278	1525.954956	54.305798
782.071045	933.985168	1890.632813	1477.806763	56.846592
782.383911	927.892334	1865.295532	1465.472656	57.347824
782.696838	917.415710	1840.404175	1459.751343	58.758659
783.009583	924.623047	1835.054199	1446.525391	57.324745
783.322266	918.976074	1840.626953	1445.782349	57.158985
783.634888	912.734558	1831.636353	1431.739258	56.480976
783.947510	903.892578	1819.227905	1422.079712	56.611725
784.260132	911.025574	1810.980347	1417.101563	56.233490
784.572571	913.254700	1807.636719	1412.494751	55.819553
784.885010	921.205078	1804.070190	1412.197632	55.613541
785.197449	928.338196	1795.822632	1400.309082	54.406841
785.509766	948.325623	1784.305664	1400.011719	54.030727
785.822083	944.684814	1783.116699	1402.686890	54.626034
786.134277	942.678528	1779.624390	1412.643433	56.152367
786.446533	933.242188	1782.447876	1411.380249	56.304153
786.758606	945.799316	1797.828613	1415.912598	55.175716
787.070740	945.947937	1802.955566	1413.683594	54.577770
787.382690	939.929382	1803.921509	1412.791992	54.729969
787.694641	918.084412	1788.095093	1405.584473	56.033802
788.006653	918.827454	1791.735840	1416.061401	56.962902
788.318481	923.062683	1832.379395	1441.918579	57.059975
788.630310	925.068848	1865.592773	1458.488159	56.715122
788.942017	907.979248	1885.134399	1471.119507	57.630589
789.253784	910.059753	1894.496460	1485.905884	58.494987
789.565430	911.471497	1897.171387	1488.877930	58.578320
789.877014	922.765564	1884.168457	1483.230957	58.296619
790.188538	926.406311	1864.181030	1457.596558	56.643696
790.500061	926.554932	1832.082153	1429.807251	55.575615
790.811462	917.638611	1814.918335	1409.745483	54.844311
791.122925	918.901672	1796.788452	1393.695923	54.083767
791.434204	913.923401	1780.887695	1385.448608	54.388077
791.745483	920.462097	1775.760742	1372.445435	52.845089
792.056702	908.127869	1745.668091	1369.547729	55.092262
792.367920	922.988464	1739.278320	1376.532227	55.561607
792.678955	918.678894	1713.569336	1373.783081	57.253700
792.990112	926.183411	1717.136108	1373.857422	56.599342
793.301086	908.127930	1697.891602	1364.792358	57.822922
793.612122	917.044189	1713.346313	1374.377441	57.432129
793.922974	911.248535	1694.696411	1367.021484	58.175274
794.233826	920.982178	1699.154663	1367.615845	57.395203
794.544556	919.570496	1681.693481	1364.718140	58.408897
794.855286	918.604492	1680.876343	1359.888306	57.890610
795.166016	924.920227	1692.467407	1377.126587	58.915775
795.476624	921.205078	1701.755249	1377.795288	58.495945
795.787292	921.873840	1713.643555	1392.655884	59.459465
796.097778	910.059753	1725.160522	1387.008911	58.514133
796.408264	907.681946	1745.816772	1396.222534	58.289021
796.718689	912.957520	1754.956055	1408.630981	58.868683
797.029053	916.152527	1744.553711	1411.603027	59.808037
797.339355	917.341370	1732.367798	1412.643433	60.771290
797.649658	914.963684	1731.327637	1410.711548	60.726330
797.959839	923.359863	1729.916016	1401.572266	59.290653
798.270020	929.972839	1728.801392	1395.925293	58.329468
798.580078	943.124451	1738.980835	1396.222534	56.932140
798.890137	933.985168	1723.377319	1394.290649	58.311382
799.200195	925.143250	1702.572632	1379.875977	58.491837
799.510071	910.951355	1668.764771	1361.968872	59.515640
799.820007	914.443604	1662.671875	1350.006226	58.212532
800.129883	912.140137	1652.789673	1339.157959	57.654507
800.439575	907.681946	1661.483276	1332.990845	56.421883
800.749329	908.870911	1668.393188	1332.990845	55.840355
801.058960	908.276428	1667.130249	1334.402588	56.153919
801.368591	912.511719	1648.703125	1333.139404	57.135643
801.678162	908.796570	1628.418335	1324.445923	57.759418
801.987671	915.112305	1625.669312	1331.504761	58.600853
802.297119	917.415710	1631.762085	1330.687378	57.853119
802.606506	911.025635	1628.864258	1329.424194	58.285881
802.915894	906.418945	1631.390625	1323.108521	57.476669
803.225159	899.657410	1607.613647	1313.449219	58.448784
803.534424	907.830627	1607.242188	1317.684448	58.599808
803.843628	907.979187	1590.969849	1320.730835	60.432987
804.152771	918.827454	1600.703613	1333.362305	60.793274
804.461792	929.229797	1607.167969	1347.851440	61.749237
804.770874	933.613770	1618.164673	1346.439575	60.306080
805.079773	925.440430	1614.969604	1336.557373	59.622849
805.388733	909.688232	1609.248413	1322.737061	59.044075
805.697571	911.768738	1607.019165	1320.507935	58.790211
806.006470	911.620117	1615.861328	1332.916504	59.822739
806.315125	908.573730	1623.514526	1333.956787	59.499062
806.623901	904.709961	1620.468140	1335.591431	60.199306
806.932495	901.514954	1616.009766	1326.897949	59.536190
807.241150	908.053528	1609.248413	1334.105469	60.760845
807.549622	915.335266	1603.304077	1334.774048	60.967705
807.858154	919.273254	1590.078125	1332.396362	61.586182
808.166565	919.050354	1582.202148	1315.975464	59.854336
808.474915	914.815125	1583.242310	1314.266479	59.759892
808.783264	922.691223	1590.003906	1318.055908	59.247292
809.091492	916.895569	1579.898804	1312.037476	59.598789
809.399719	912.214539	1571.205444	1302.155273	59.172401
809.707825	909.316711	1565.855469	1283.133789	56.937550
810.015930	914.889404	1557.682251	1278.081177	56.502148
810.323975	924.474426	1550.623413	1273.325806	55.713799
810.632080	912.734619	1538.214844	1267.901733	56.783108
810.939880	904.115540	1531.230469	1272.359741	58.720367
811.247864	899.657410	1534.128418	1266.266968	57.781925
811.555664	900.177490	1520.308105	1267.381470	59.213974
811.863464	899.434509	1511.317383	1258.093628	58.615650
812.171143	882.716309	1489.472290	1245.016479	59.711018
812.478882	883.830811	1493.633301	1243.753296	59.022797
812.786438	902.109192	1507.973633	1265.078125	59.909264
813.094055	920.759277	1513.695190	1284.173950	61.290718
813.401489	912.660339	1496.011108	1270.947998	61.418907
813.708984	909.985413	1478.847168	1253.932739	60.462376
814.016357	921.130859	1498.537476	1259.208374	58.551029
814.323730	939.929382	1525.583496	1280.681763	58.183212
814.630981	927.075012	1522.611328	1279.195679	59.126648
814.938232	915.037903	1509.756958	1269.387817	59.582741
815.245361	903.000977	1493.707642	1250.068970	58.754711
815.552490	908.796570	1499.874634	1246.651001	57.159019
815.859619	905.304382	1491.701538	1241.375610	57.311195
816.166565	917.564270	1485.757202	1255.047241	59.395840
816.473572	922.691223	1478.624023	1260.099976	60.692364
816.780457	922.616882	1478.104004	1271.171021	62.747475
817.087341	917.564270	1487.094604	1274.811890	62.726707
817.394043	907.979187	1495.936646	1272.433960	61.986588
817.700806	909.019348	1498.165649	1269.016113	61.104816
818.007507	910.431213	1502.549683	1277.709595	62.027855
818.314209	914.889343	1509.014038	1289.820923	63.106548
818.620667	913.774841	1521.273926	1289.152344	61.790630
818.927246	910.579834	1540.221069	1280.310181	58.720795
819.233704	912.140198	1562.883423	1296.433838	59.054573
819.540161	911.471497	1572.988647	1313.449097	60.766014
819.846497	912.437439	1607.910767	1347.182617	62.510689
820.152832	909.539551	1646.622681	1366.501343	61.995964
820.458984	905.229980	1716.838745	1406.847656	61.805355
820.765259	905.675781	1774.274780	1439.317993	61.437119
821.071350	911.174316	1853.184082	1491.181274	61.571224
821.377502	913.477722	1952.972656	1560.134277	62.208729
821.683472	914.517883	2160.946045	1715.278320	64.244408
821.989441	902.852356	2553.041260	1992.056030	66.004784
822.295349	905.155762	3164.776123	2419.593750	67.021790
822.601196	896.313721	3951.344482	2960.666260	67.572235
822.907043	906.641846	4674.830078	3452.624756	67.565170
823.212769	905.081543	5176.150879	3756.968506	66.772202
823.518494	913.997742	5288.941895	3764.696045	65.159645
823.824097	910.134033	5051.173340	3507.013916	62.710827
824.129700	917.118469	4596.515137	3112.615234	59.670021
824.435242	912.214539	4081.596924	2695.553955	56.267727
824.740723	911.620117	3637.563721	2358.962646	53.095100
825.046082	899.880188	3256.836914	2108.488281	51.278332
825.351501	898.096985	2957.322998	1929.047241	50.064934
825.656799	898.617126	2715.170166	1808.825317	50.106339
825.962036	896.239441	2524.212158	1734.225464	51.474209
826.267212	906.567566	2379.544678	1705.470337	54.237286
826.572449	917.564270	2305.985107	1719.810669	57.781212
826.877502	920.982239	2336.746338	1778.361328	60.559456
827.182495	932.350586	2483.197021	1899.103149	62.337093
827.487488	917.935852	2657.139648	2027.721191	63.809967
827.792419	921.873840	2808.345703	2137.614990	64.445229
828.097290	894.456116	2836.134766	2148.091553	64.564514
828.402100	903.446777	2805.447998	2098.531982	62.833042
828.706848	906.716064	2688.272461	1981.728027	60.341171
829.011597	911.991638	2511.283447	1852.738647	58.822727
829.316223	898.840027	2304.201416	1702.201172	57.164028
829.620789	908.499329	2131.447998	1589.632446	55.695965
829.925354	927.149353	2007.956665	1493.781860	52.426781
830.229797	936.511475	1909.877075	1434.934082	51.206104
830.534302	951.966492	1824.503296	1407.665039	52.226856
830.838562	936.734375	1725.012085	1362.117554	53.963619
831.142944	937.031555	1652.195313	1331.876343	55.210403
831.447144	902.926697	1577.521118	1278.006836	55.600838
831.751404	901.514954	1551.292358	1264.186646	55.814758
832.055542	908.499329	1536.283203	1262.328979	56.361698
832.359619	907.979248	1530.338867	1269.387695	58.070679
832.663635	919.644714	1537.917603	1293.833374	60.521603
832.967651	907.533386	1559.465454	1314.638062	62.445873
833.271545	914.963684	1615.638306	1352.978149	62.513248
833.575439	900.771973	1696.479858	1410.637085	64.076920
833.879211	899.434509	1824.206055	1510.425659	66.069412
834.183044	900.994812	1968.130493	1600.703491	65.568855
834.486694	899.657288	2088.203369	1666.238647	64.497398
834.790344	923.285583	2161.540283	1708.442505	63.408356
835.093933	914.517883	2145.639648	1689.049438	62.912666
835.397522	912.957520	2078.395752	1638.449341	62.250561
835.700928	888.289063	1953.121460	1536.951782	60.916885
836.004395	914.369324	1873.988892	1486.054321	59.574127
836.307739	923.657043	1784.231079	1413.089233	56.872757
836.611023	930.418640	1716.318481	1353.572632	53.843246
836.914307	903.966858	1616.084351	1290.341064	54.257088
837.217529	914.740784	1576.035034	1272.805664	54.146076
837.520691	913.403320	1519.193359	1241.524170	54.164120
837.823730	910.877014	1478.475464	1209.871216	52.677063
838.126831	896.090820	1420.370728	1179.704224	54.095798
838.429749	903.075256	1393.993286	1189.437988	58.332088
838.732727	906.270325	1375.491821	1179.481445	58.226471
839.035522	904.932800	1361.077271	1172.868530	58.739227
839.338379	895.942200	1351.269165	1155.258789	56.951733
839.641113	897.205322	1345.547974	1170.267700	60.904842
839.943848	904.115540	1369.027710	1194.564819	62.474010
840.246460	907.013367	1390.203979	1217.152832	64.185738
840.549072	903.075256	1426.017700	1231.864868	62.873001
840.851563	899.211487	1443.850464	1237.586060	62.128235
841.154053	899.731628	1445.113647	1239.220703	62.247940
841.456482	900.028809	1434.711304	1230.081543	61.728733
841.758850	904.487000	1415.095337	1213.437744	60.506405
842.061157	900.697571	1396.371094	1187.952026	57.952351
842.363403	908.053528	1365.832642	1159.716919	54.974854
842.665588	891.186829	1320.953735	1130.887329	55.774536
842.967712	905.007141	1299.108765	1123.011353	55.316750
843.269775	904.189758	1284.173950	1116.175415	55.788021
843.571777	907.459167	1271.245239	1112.014526	56.229572
843.873840	899.211609	1258.019409	1108.002075	58.190060
844.175659	905.824524	1243.753296	1104.361328	58.751080
844.477600	935.694153	1259.208252	1117.884399	56.316013
844.779297	938.963562	1254.452881	1111.865845	54.804482
845.081116	930.418701	1244.347656	1105.698853	55.834335
845.382751	911.397217	1228.149780	1091.878418	56.978607
845.684387	899.657410	1211.728638	1075.829102	56.452396
845.985962	896.833801	1198.131348	1069.141724	57.188625
846.287537	891.929871	1179.630005	1062.677368	59.349121
846.588989	905.081482	1172.274048	1068.473022	61.151230
846.890381	909.019531	1171.456665	1068.101685	60.617241
847.191711	919.421875	1170.713745	1066.244019	58.426937
847.493042	911.471436	1176.732300	1065.055176	57.899132
847.794250	923.657166	1182.973633	1070.404907	56.590214
848.095459	918.901794	1181.413208	1070.033569	57.571507
848.396606	915.483887	1175.394775	1058.442261	55.002842
848.697693	902.406555	1169.450562	1050.714722	55.536976
848.998657	901.366394	1160.162720	1043.507324	54.923859
849.299622	917.861572	1164.174927	1055.470093	55.867260
849.600464	907.459167	1160.979980	1061.488647	60.756149
849.901367	899.954590	1158.305054	1055.098511	60.051727
850.202087	885.762695	1144.707642	1045.364990	61.635609
850.502808	904.635559	1143.741821	1037.117432	55.407112
850.803467	907.682068	1147.902710	1039.272217	54.778870
851.104065	924.697449	1163.803589	1056.807617	55.251682
851.404663	921.205139	1163.134888	1062.826172	58.538082
851.705139	918.901794	1162.540405	1056.138916	56.328148
852.005615	907.533386	1156.298950	1048.634277	56.720428
852.306030	894.604797	1151.097778	1031.767578	53.476231
852.606384	900.771912	1151.989380	1040.015137	55.427364
852.906616	902.703796	1147.902710	1042.615723	57.060581
853.206909	908.499329	1141.884155	1054.355591	62.496037
853.506958	899.508789	1134.825439	1049.302856	63.656384
853.807129	888.214661	1127.172241	1035.705688	61.722683
854.107178	896.982422	1130.070190	1039.346558	61.077480
854.407166	912.437439	1131.184692	1049.154297	62.499920
854.707092	917.267090	1126.949341	1046.182251	61.481197
855.007019	909.539551	1129.029785	1031.693237	55.653358
855.306763	905.378601	1123.531372	1021.959656	53.440098
855.606567	903.000977	1115.283813	1019.730530	54.987747
855.906250	901.291992	1107.407837	1018.393066	56.813232
856.205933	901.737793	1109.934082	1021.142273	57.351875
856.505493	903.075195	1111.420044	1019.879089	56.062771
856.805054	915.335205	1120.485107	1043.135742	62.296173
857.104492	910.728516	1122.639771	1044.399048	63.078545
857.403931	913.106140	1131.481812	1042.690063	59.339909
857.703308	901.663513	1116.398438	1022.702576	56.366734
858.002563	895.645020	1107.407715	1013.414795	55.614033
858.301819	896.759583	1109.636841	1014.677917	55.392639
858.601013	904.189880	1125.686157	1016.684082	50.788303
858.900208	909.242432	1122.193970	1016.386902	50.314014
859.199219	910.877136	1122.639771	1022.479736	52.701744
859.498291	915.929688	1116.992798	1027.903809	55.691032
859.797302	931.310364	1126.503540	1045.513550	58.507774
860.096191	950.926270	1141.438477	1050.937622	52.496033
860.395020	937.848938	1135.642944	1046.851074	55.108917
860.693787	919.198975	1126.503540	1033.328003	55.053795
860.992554	892.672852	1095.742188	1017.724426	61.580727
861.291260	905.824402	1101.760742	1020.696533	58.627274
861.589844	909.242371	1104.732910	1017.129944	55.188129
861.888428	920.387756	1106.590454	1017.427185	52.114941
862.186890	918.307312	1105.253052	1022.851257	55.922081
862.485413	922.171082	1098.714355	1028.572632	60.269386
862.783813	908.796570	1098.342896	1031.098999	64.523766
863.082153	901.514832	1086.677246	1019.656250	63.804211
863.380371	900.920410	1100.200439	1017.427063	58.463787
863.678589	903.075256	1098.788696	1016.609863	58.010635
863.976746	904.635559	1105.624512	1014.232178	54.528679
864.274902	902.778076	1093.735962	1017.501465	60.077847
864.572937	906.195984	1091.804199	1018.987549	60.768627
864.870911	917.638611	1101.835083	1027.606567	59.701447
865.168884	913.477600	1099.828979	1021.811035	58.133961
865.466736	910.133972	1110.528442	1014.677917	52.169079
865.764587	894.233215	1093.290161	1002.715271	54.498001
866.062317	899.657288	1102.057983	1004.498535	51.798859
866.360107	903.446777	1097.376953	1008.733704	54.291153
866.657715	906.939026	1099.754517	1005.092957	50.905624
866.955322	896.908203	1088.757690	1003.086731	55.344704
867.252808	887.397400	1091.209839	997.959900	54.247181
867.550293	886.654297	1090.838379	1005.613098	58.260567
867.847717	892.747131	1097.822754	993.501770	49.130482
868.145081	902.183594	1088.609253	997.737000	51.255501
868.442383	904.189758	1094.479126	1001.972168	51.386166
868.739624	914.740784	1093.438843	1012.151672	54.511440
869.036804	917.267090	1109.339722	1020.845032	53.926445
869.333984	909.391052	1101.983765	1013.637695	54.128033
869.631042	895.347839	1093.810425	1008.733704	57.132111
869.928101	884.202454	1082.219116	994.170410	55.534698
870.224976	893.415955	1079.024048	990.306641	52.201756
870.521851	934.133789	1127.098022	1033.402222	51.443954
870.818726	933.613586	1125.537598	1039.717896	55.284542
871.115479	936.882996	1140.695435	1050.937744	55.960640
871.412231	911.248535	1105.698853	1026.714966	59.380943
871.708862	905.675842	1097.748413	1020.993713	60.038696
872.005493	898.691406	1087.568848	1007.396301	57.553139
872.302063	883.162170	1090.020874	994.987732	54.058910
872.598572	895.422119	1104.286987	1005.538635	52.721416
872.895020	894.976257	1110.602783	1010.739929	53.687119
873.191406	901.069092	1109.562500	1015.272278	54.775440
873.487671	898.765808	1102.206543	1007.767761	53.579216
873.783997	909.242432	1111.048462	1014.380676	52.098663
874.080200	905.898743	1107.036255	1007.173340	50.350925
874.376343	905.230042	1105.847412	1006.356018	50.407387
874.672424	908.350769	1106.367554	1017.129883	54.934288
874.968445	909.762512	1113.203247	1016.684143	52.556648
875.264465	910.134033	1113.574829	1015.495300	51.789646
875.560364	905.750183	1105.698853	1012.894775	53.586048
875.856201	900.028809	1094.479004	1008.287903	55.674458
876.152039	899.434387	1099.977417	1017.501465	58.873688
876.447754	891.484070	1097.748413	1008.733704	56.844353
876.743469	910.951355	1111.643066	1026.269165	57.460175
877.039063	904.264160	1110.305542	1018.616028	55.499466
877.334595	905.007141	1105.847412	1014.009277	54.273048
877.630127	889.180664	1093.958984	1003.904053	56.023209
877.925537	899.211487	1096.708130	1008.287903	55.229504
878.221008	893.713074	1100.200317	1010.517029	56.567154
878.516296	887.917480	1106.739014	1010.739929	56.129051
878.811646	882.790588	1109.562500	1006.207520	54.423378
879.106812	894.901917	1134.230957	1026.640747	55.045067
879.401978	890.666748	1138.837769	1027.681030	55.209621
879.697083	897.279724	1159.122437	1045.364990	56.555046
879.992126	893.713135	1174.428833	1050.789063	55.955521
880.287109	908.053528	1213.586426	1073.897339	54.280182
880.582031	907.384766	1258.167969	1095.667847	53.675056
880.876892	899.954590	1323.628662	1136.683105	55.875149
881.171753	897.056824	1461.980347	1235.059814	59.831638
881.466492	900.771912	1698.634399	1399.120117	62.460415
881.761230	902.555115	2013.232056	1611.700317	63.848015
882.055786	900.325989	2353.315674	1828.515625	63.881363
882.350403	892.078430	2589.672607	1972.142944	63.623241
882.644958	885.465515	2686.191895	2000.229126	61.906334
882.939453	887.397461	2608.768311	1922.359985	60.124321
883.233826	894.679138	2474.132080	1776.503906	55.831028
883.528137	901.217712	2292.461914	1628.121460	52.248466
883.822449	900.920471	2136.797607	1492.444458	47.862682
884.116577	896.833801	1977.864136	1383.962524	45.061523
884.410828	895.050537	1858.682617	1292.941650	41.290771
884.704956	906.047363	1741.507202	1230.675903	38.856270
884.999023	903.372498	1638.672241	1191.072632	39.126919
885.292969	902.852356	1521.125366	1158.453735	41.341183
885.586914	885.837097	1422.822754	1122.491211	44.070843
885.880798	898.914368	1356.916260	1105.550171	45.116802
886.174622	911.471497	1328.904175	1101.612183	45.550026
886.468384	912.586121	1294.724976	1096.782471	48.201420
886.762085	900.994812	1266.415649	1086.603027	50.793003
887.055664	889.106384	1230.750366	1067.358521	52.174820
887.349304	891.112549	1207.196289	1053.315430	51.316425
887.642822	890.592468	1172.199707	1042.170044	53.825882
887.936340	893.490234	1157.339233	1031.619019	52.351452
888.229736	890.369446	1145.153442	1019.359070	50.627052
888.523071	887.768860	1142.032715	1002.715149	45.207481
888.816284	911.248535	1157.116333	1033.030762	49.531590
889.109619	937.031677	1161.128662	1041.055420	46.419071
889.402710	947.656921	1156.893433	1051.903687	49.822453
889.695862	924.103027	1114.838013	1017.650085	49.045570
889.988892	899.285889	1097.376831	1007.767883	54.763733
890.281921	883.162231	1087.568970	1000.634888	57.470051
>>>>>End Processed Spectral Data<<<<<
