Jaz Data File
++++++++++++++++++++++++++++++++++++
Date: Fri Jun 04 13:45:56 2021
User: jaz
Dark Spectrum Present: Yes
Reference Spectrum Present: Yes
Processed Spectrum Present: Yes
Spectrometers: JAZA3586
Integration Time (usec): 386000 (JAZA3586)
Spectra Averaged: 10 (JAZA3586)
Boxcar Smoothing: 1 (JAZA3586)
Correct for Electrical Dark: No (JAZA3586)
Strobe/Lamp Enabled: Yes (JAZA3586)
Correct for Detector Non-linearity: No (JAZA3586)
Correct for Stray Light: No (JAZA3586)
Number of Pixels in Processed Spectrum: 2048
>>>>>Begin Processed Spectral Data<<<<<
W	D	R	S	P
191.335022	0.000000	0.000000	0.000000	0.000000
191.713211	286.065460	285.248138	278.932404	872.735413
192.091385	572.502502	577.257874	565.443665	-148.439270
192.469528	854.406982	861.837219	854.406921	-0.000821
192.847641	859.682556	865.923828	869.713318	160.716629
193.225739	885.911377	882.047607	884.722473	30.770567
193.603790	921.205139	908.276550	905.155762	124.138664
193.981842	931.979004	931.904785	912.437439	26329.687500
194.359863	932.573425	939.037842	925.737610	-105.745285
194.737854	946.170898	946.913879	934.951172	-1510.096069
195.115829	950.108887	942.530029	936.660095	177.451431
195.493774	946.170837	931.384583	930.641602	105.024811
195.871704	932.499207	924.103027	913.477600	226.550751
196.249603	954.121277	933.465088	927.966614	126.619019
196.627457	952.337952	942.604309	929.749939	232.061249
197.005310	948.399902	940.300964	935.174011	163.304016
197.383133	928.486816	932.424988	931.681824	81.129211
197.760910	946.839539	940.375305	945.279236	24.137476
198.138687	946.839600	944.536194	952.040710	-225.800888
198.516449	949.663086	944.164612	941.712708	144.592453
198.894180	927.966614	930.715820	922.319763	-205.399292
199.271866	925.291748	933.687988	916.152588	-108.848244
199.649536	922.765442	935.174011	918.158875	-37.124081
200.027191	932.870667	943.793030	924.102966	-80.272919
200.404816	924.325867	940.300842	927.446533	19.534718
200.782410	923.880066	954.046875	936.957336	43.349865
201.159988	922.616882	964.077820	936.957336	34.587868
201.537537	931.756165	977.377991	943.570313	25.895824
201.915070	928.561218	968.610352	937.997559	23.561909
202.292557	920.685059	963.780579	935.025391	33.275692
202.670029	919.719177	959.396729	931.681824	30.149660
203.047485	921.502441	963.483398	939.335022	42.477783
203.424911	920.016357	963.929199	951.520691	71.742874
203.802292	913.997803	969.353333	950.034607	65.100639
204.179688	909.465332	967.867249	939.186340	50.890469
204.557037	912.363098	964.597961	933.910889	41.251740
204.934357	925.737610	956.350342	948.845703	75.485237
205.311661	936.288574	955.161438	951.149170	78.740547
205.688934	933.242188	959.396729	950.777649	67.045570
206.066177	919.570496	957.019043	930.492981	29.166647
206.443390	908.796631	960.436951	929.155457	39.424282
206.820587	908.870911	949.365906	925.663269	41.467739
207.197769	923.508545	966.678406	940.672424	39.758942
207.574921	926.332031	963.706299	948.548523	59.443283
207.952042	931.533203	973.514221	942.530029	26.194757
208.329147	931.236023	965.489563	939.112122	22.993532
208.706223	1056.881958	1091.878540	1054.058472	-8.067892
209.083267	1059.556763	1097.971313	1071.222290	30.367470
209.460297	1049.600220	1098.119995	1067.878784	37.672401
209.837280	920.759277	970.393555	949.291565	57.485046
210.214264	906.344543	961.179993	939.335022	60.162685
210.591217	898.617126	952.189392	925.960510	51.040184
210.968124	907.384827	968.387390	931.310303	39.220444
211.345016	922.245422	974.183044	941.861267	37.768085
211.721893	922.839844	977.526611	950.926270	51.358723
212.098724	917.638672	957.390625	950.851868	83.551102
212.475555	922.542664	960.214111	951.669250	77.317406
212.852356	933.390686	959.248230	951.817810	71.264015
213.229126	940.003723	970.170593	947.508301	24.876884
213.605865	923.880066	955.904480	924.177307	0.928171
213.982590	911.768738	956.053040	918.753174	15.771811
214.359283	899.805969	953.155273	911.768738	22.423477
214.735931	895.942200	960.511230	919.496094	36.478622
215.112579	900.400391	967.644287	930.864502	45.303905
215.489197	901.440613	968.610352	931.681824	45.022076
215.865799	909.168152	980.275879	933.539368	34.273655
216.242355	903.818298	971.359558	928.338196	36.303585
216.618896	918.307312	983.768066	941.712708	35.754852
216.995407	915.409424	969.873352	936.734436	39.154377
217.371902	914.889343	968.387390	929.378418	27.083372
217.748367	902.183594	955.978821	923.508484	39.640858
218.124802	902.852356	961.551514	930.567200	47.215061
218.501236	903.595398	957.539124	931.904785	52.479481
218.877609	908.499329	960.288391	927.000732	35.724541
219.253983	904.858582	960.065430	931.384583	48.048389
219.630295	903.669617	983.247864	944.461853	51.260536
220.006592	900.846191	991.644043	951.594910	55.891983
220.382889	907.533386	998.554199	948.399963	44.898056
220.759140	914.146301	988.746277	944.387634	40.537994
221.135391	910.877014	994.244690	947.211121	43.582966
221.511581	903.669739	994.913391	947.211121	47.719902
221.887772	899.508789	1005.092957	948.622864	46.516514
222.263931	911.248535	1011.780212	956.127380	44.641495
222.640060	924.994568	1017.947266	967.867249	46.123116
223.016159	926.852112	1022.999817	967.941589	42.735786
223.392212	914.220703	1022.033875	954.046936	36.940044
223.768265	899.434387	1027.532349	945.576477	36.020939
224.144302	892.672913	1027.532349	937.031555	32.892502
224.520294	893.787415	1023.668640	938.443359	34.382141
224.896286	909.242432	1033.179321	944.981995	28.836905
225.272217	919.124695	1041.947144	954.938660	29.159136
225.648148	927.595215	1066.392578	962.145996	24.892967
226.024048	909.019470	1065.798218	958.282227	31.421833
226.399902	903.743958	1077.612305	954.864258	29.401730
226.775772	894.307556	1072.708374	949.885925	31.153652
227.151581	910.431152	1098.194214	948.845703	20.459057
227.527374	903.669617	1127.469360	956.053162	23.406437
227.903137	910.579773	1175.394897	966.826965	21.240173
228.278870	908.127869	1238.329224	978.046692	21.174603
228.654572	914.369324	1308.396729	986.071472	18.197248
229.030273	909.688171	1396.891235	993.130188	17.126743
229.405930	901.589172	1473.497192	1003.086731	17.747183
229.781555	906.121765	1537.992065	1013.191895	16.944954
230.157181	908.276550	1551.960938	1013.563416	16.356909
230.532761	904.338379	1529.001343	1003.532532	15.879627
230.908325	895.570618	1470.748047	997.142517	17.659229
231.283859	892.598572	1427.578125	993.278809	18.819454
231.659332	899.434387	1381.139038	991.867004	19.188650
232.034821	902.778015	1356.321899	983.396484	17.775230
232.410263	903.298157	1334.996948	983.619385	18.605850
232.785690	899.508728	1312.037476	983.916687	20.461109
233.161087	903.075195	1299.851685	990.009521	21.910151
233.536469	904.264099	1280.235840	991.198303	23.122538
233.911804	907.161865	1289.449463	998.331360	23.848406
234.287140	909.688171	1298.291382	997.142395	22.504761
234.662430	912.363098	1324.446045	999.817383	21.222496
235.037704	912.734619	1341.981445	1007.470520	22.070263
235.412933	901.514954	1348.000000	1009.848328	24.263607
235.788162	893.044434	1346.365356	996.399597	22.799557
236.163345	900.549011	1348.371460	992.015686	20.424763
236.538513	908.053650	1364.792358	998.628601	19.830803
236.913635	908.722351	1371.108032	1018.467346	23.734514
237.288742	901.217773	1377.423828	1023.148438	25.604601
237.663834	898.171326	1372.668457	1025.303223	26.792974
238.038879	899.880188	1375.937866	1023.594238	25.987198
238.413910	898.394226	1389.683716	1022.999817	25.362967
238.788910	899.285828	1402.538208	1024.114380	24.804363
239.163879	903.595398	1417.770142	1025.600464	23.728327
239.538834	908.573669	1425.051880	1031.024780	23.708862
239.913757	914.294983	1469.336304	1036.968872	22.101757
240.288651	916.375488	1509.756836	1050.714844	22.639633
240.663528	908.127869	1562.214478	1064.980835	23.980459
241.038361	897.725403	1609.619751	1073.971558	24.757347
241.413177	897.948425	1708.219604	1095.816528	24.419985
241.787979	899.508789	1819.970825	1115.209473	23.433958
242.162735	903.818359	1958.619629	1141.809937	22.562693
242.537476	896.833801	2076.760986	1158.676636	22.191439
242.912170	919.050293	2205.007568	1181.264648	20.390596
243.286865	924.920227	2262.815186	1199.245972	20.504280
243.661514	924.697327	2259.768799	1195.307861	20.269365
244.036148	912.883118	2186.951904	1188.694946	21.648109
244.410751	914.740784	2082.259521	1171.605347	22.000893
244.785339	916.747009	1999.040405	1168.707520	23.280239
245.159882	913.626221	1949.777710	1170.862305	24.826107
245.534378	916.003906	1986.854858	1193.821899	25.943666
245.908890	913.477600	2072.005859	1223.468628	26.757311
246.283356	907.236145	2235.694580	1256.458984	26.287825
246.657791	888.214661	2451.172607	1288.409180	25.604944
247.032196	896.833801	2719.405029	1334.328247	24.004244
247.406586	900.994690	2953.755859	1375.640625	23.122316
247.780960	911.694336	3110.163086	1404.321289	22.407730
248.155289	900.325989	3134.237305	1391.615601	21.992350
248.529602	897.725403	3042.547852	1350.452026	21.107883
248.903870	901.143372	2861.620850	1310.625854	20.886875
249.278122	904.784180	2650.155273	1262.403198	20.489569
249.652344	897.725525	2462.020752	1234.391113	21.521872
250.026550	896.908203	2311.557861	1209.499634	22.096739
250.400711	916.226868	2211.323242	1216.632690	23.195633
250.774857	924.103027	2137.243408	1215.666870	24.033810
251.148987	927.298035	2105.442139	1219.679077	24.817087
251.523071	907.904968	2105.293701	1224.508911	26.441200
251.897125	926.629211	2160.351807	1253.486816	26.493605
252.271164	916.003906	2223.211914	1265.375366	26.726540
252.645187	912.808899	2283.694092	1266.712769	25.815718
253.019165	892.524231	2297.291748	1240.632446	24.780485
253.393112	920.610657	2290.455566	1249.028687	23.974833
253.767044	925.663269	2211.546143	1237.437378	24.245920
254.140930	928.858337	2130.110352	1240.112427	25.910809
254.514801	910.356934	2040.947266	1214.626587	26.912458
254.888657	911.099915	1997.777344	1210.391235	27.541872
255.262466	914.815125	1962.334961	1198.428467	27.074749
255.636276	923.285645	1973.926147	1220.273560	28.267321
256.010010	924.845947	1996.365601	1245.536499	29.928574
256.383759	921.948181	2038.272339	1267.158691	30.923857
256.757446	910.059753	2080.996338	1272.805542	30.979116
257.131134	906.493225	2157.973877	1296.508179	31.164280
257.504791	902.629456	2259.025391	1329.795776	31.492744
257.878418	903.521057	2365.352783	1369.324707	31.864382
258.252014	911.471436	2515.964600	1411.974609	31.193850
258.625580	915.558105	2692.581787	1479.292969	31.723543
258.999115	906.195984	2939.787109	1553.001343	31.806068
259.372650	900.103210	3214.038330	1633.991089	31.716011
259.746124	892.004150	3535.992188	1703.389771	30.687946
260.119598	899.211426	3831.642578	1754.510132	29.166882
260.493042	898.096924	4030.105225	1766.918579	27.740082
260.866425	903.669617	4079.516602	1737.717773	26.262228
261.239838	902.926575	3933.289063	1674.857544	25.473221
261.613159	903.669678	3662.158203	1597.434204	25.150169
261.986511	904.264160	3344.142578	1537.843384	25.967655
262.359802	912.734619	3084.677490	1497.348267	26.916622
262.733063	908.425049	2920.096924	1479.515747	28.388859
263.106293	913.626221	2820.679688	1464.655273	28.894264
263.479523	911.174255	2762.203857	1457.596558	29.519913
263.852692	923.508545	2723.714600	1449.348999	29.210014
264.225861	917.712952	2684.185791	1447.491333	29.990746
264.598969	921.205139	2666.427490	1452.321167	30.432570
264.972076	919.198975	2672.297607	1455.590332	30.596758
265.345154	926.777832	2719.108154	1486.128784	31.208029
265.718201	915.112305	2767.107422	1506.264648	31.919758
266.091217	927.075012	2861.174561	1568.679077	33.173267
266.464203	927.223633	2945.731201	1591.712891	32.919830
266.837158	928.858215	3059.340088	1620.691040	32.473068
267.210114	906.716125	3136.391846	1624.108765	32.174751
267.583038	899.583069	3201.406982	1638.375000	32.095936
267.955902	908.350769	3235.289063	1642.981812	31.570715
268.328766	910.356934	3226.372803	1637.929199	31.414822
268.701569	906.790344	3227.635986	1637.334839	31.477512
269.074371	891.855652	3230.310791	1640.009766	31.993521
269.447144	898.171326	3265.084229	1674.486206	32.798626
269.819885	903.223877	3318.359375	1712.900757	33.525112
270.192596	916.003906	3419.634033	1786.088867	34.752937
270.565277	926.109070	3577.081299	1867.301758	35.503681
270.937927	917.787170	3756.819580	1938.780884	35.962734
271.310577	914.146301	3973.041016	1987.672241	35.095222
271.683136	899.657410	4175.367188	2011.151855	33.931408
272.055725	901.440674	4344.777344	2022.891602	32.568726
272.428284	899.211609	4382.151855	2011.597656	31.938131
272.800812	897.874023	4332.071777	1982.025024	31.569265
273.173279	907.087585	4185.843750	1952.081055	31.871641
273.545776	906.493164	4063.467529	1932.985352	32.515064
273.918152	916.152527	3939.678955	1914.855469	33.031063
274.290558	911.620117	3880.682861	1886.546265	32.836159
274.662964	917.861511	3820.794678	1872.874390	32.898205
275.035278	904.264099	3775.395752	1863.660767	33.415279
275.407593	909.391052	3769.525391	1898.508789	34.582912
275.779907	911.843018	3831.568359	1941.455688	35.264027
276.152161	917.341370	3925.932861	1979.201538	35.294258
276.524384	915.632385	4015.319092	1989.826782	34.654930
276.896606	914.889404	4067.628174	1992.576050	34.182556
277.268799	916.672668	4114.661621	2009.145508	34.161247
277.640930	909.465271	4123.949219	2023.485840	34.656281
278.013031	907.533447	4136.432617	2028.166992	34.706364
278.385162	907.310547	4116.073730	2008.476929	34.317471
278.757233	907.904968	4103.516602	2008.922729	34.454056
279.129272	901.737793	4085.535156	2021.554077	35.172348
279.501282	893.416016	4097.200684	2047.560059	36.024395
279.873230	895.199219	4162.141113	2092.141846	36.638016
280.245178	897.948425	4276.790039	2152.698486	37.135509
280.617126	901.589172	4452.070313	2238.518311	37.654873
280.988983	896.388000	4626.607422	2306.208008	37.794559
281.360870	908.647949	4806.791504	2374.789307	37.611271
281.732697	906.567444	4952.499512	2415.655762	37.298904
282.104492	914.889465	5077.179199	2439.209717	36.622158
282.476288	904.487122	5152.967773	2428.881592	35.880936
282.848053	912.363098	5184.026855	2416.398682	35.209599
283.219757	905.898743	5212.261230	2405.476318	34.822376
283.591461	912.288757	5168.868652	2407.185303	35.119659
283.963135	910.951355	5133.129395	2422.194580	35.792973
284.334747	920.239258	5094.343262	2453.178955	36.724998
284.706360	913.849121	5159.729492	2502.664307	37.420158
285.077942	921.799561	5298.007324	2562.180664	37.484074
285.449524	926.406311	5453.820313	2611.294922	37.215256
285.821014	924.846008	5558.214844	2612.112305	36.415543
286.192535	913.180420	5681.260254	2625.709717	35.916538
286.563995	900.325989	5760.169922	2619.393799	35.372906
286.935425	893.936035	5813.890625	2621.474365	35.112892
287.306824	898.171326	5744.343750	2569.462158	34.486820
287.678223	898.691406	5625.458984	2521.982666	34.342522
288.049561	913.106140	5498.550293	2505.562012	34.728497
288.420898	906.716125	5361.535645	2492.484863	35.596703
288.792145	913.106140	5330.551758	2521.462891	36.409199
289.163452	907.533447	5360.940918	2558.242920	37.066216
289.534668	914.666504	5490.302246	2636.111816	37.621990
289.905914	908.499329	5628.951172	2695.702637	37.860855
290.277039	915.186584	5819.240234	2758.860107	37.594891
290.648193	923.434265	6011.089844	2810.277588	37.086693
291.019318	919.198914	6128.860840	2806.785156	36.232410
291.390381	909.911133	6132.649902	2767.033447	35.558399
291.761475	900.177490	6028.031250	2684.334717	34.793453
292.132507	903.075195	5926.533203	2661.523438	35.004738
292.503510	901.217712	5821.395020	2647.331543	35.488838
292.874481	930.492981	5818.274902	2715.987305	36.529747
293.245422	937.551758	5825.036621	2768.816650	37.468452
293.616364	944.833313	5943.846191	2857.237061	38.255630
293.987213	922.245300	6109.838379	2910.809326	38.333073
294.358093	922.393982	6327.248535	2971.737305	37.916714
294.728943	906.864746	6551.939453	3010.969482	37.273285
295.099731	897.799805	6726.550781	3063.649658	37.158043
295.470490	896.908203	6901.607910	3132.974609	37.238605
295.841248	914.963684	7013.359375	3193.679688	37.365829
296.211975	909.688171	7130.980957	3258.099854	37.747967
296.582642	902.852356	7278.992188	3320.068359	37.910339
296.953308	896.685242	7435.175781	3350.086670	37.522442
297.323883	903.149597	7541.280762	3326.384033	36.504768
297.694519	910.579895	7536.673340	3258.099854	35.428417
298.065063	921.576660	7448.327637	3190.410156	34.762066
298.435608	922.468323	7245.555176	3104.442139	34.508049
298.806122	921.353821	6955.626465	3006.213867	34.550316
299.176575	913.700623	6618.812500	2914.301514	35.066811
299.547028	918.158691	6387.433594	2856.939453	35.448589
299.917450	912.883240	6240.314453	2839.478516	36.163681
300.287872	902.629456	6169.206543	2841.707764	36.818569
300.658234	894.158936	6097.058594	2832.494141	37.254906
301.028564	902.109375	6028.848145	2807.528320	37.166298
301.398865	910.431335	5983.671875	2774.092041	36.735111
301.769135	913.997864	5929.134277	2753.436279	36.677738
302.139374	909.539551	5905.580078	2725.720947	36.352417
302.509583	899.731628	5867.686035	2689.981445	36.035954
302.879791	899.657410	5801.259277	2655.133545	35.814331
303.249939	898.319885	5683.415527	2621.177246	36.004658
303.620087	902.257874	5572.778809	2602.007080	36.393139
303.990173	894.976257	5505.236816	2581.350830	36.578724
304.360260	899.657410	5487.181641	2585.957764	36.758392
304.730286	901.812195	5474.772949	2589.003906	36.894951
305.100281	906.493164	5451.813477	2602.155518	37.305672
305.470276	903.595398	5439.182129	2601.932617	37.444706
305.840179	902.257996	5457.758301	2610.254639	37.493061
306.210144	900.846191	5479.751465	2620.879883	37.564301
306.579987	906.641785	5514.971191	2655.356201	37.946815
306.949890	906.641846	5544.915527	2675.269531	38.131165
307.319702	919.124695	5629.471191	2714.724365	38.120327
307.689484	918.307373	5705.854980	2754.178955	38.346806
308.059265	923.582825	5815.153809	2814.512939	38.656910
308.429016	915.335266	5939.759277	2863.106689	38.766068
308.798737	906.270325	6100.921875	2896.691406	38.316742
309.168396	897.725525	6236.003906	2928.047119	38.033264
309.538055	894.902039	6307.854980	2948.926514	37.946465
309.907684	891.335449	6332.226563	2956.876953	37.963295
310.277313	894.084656	6350.207520	2955.836670	37.787857
310.646851	899.285828	6375.990723	2944.022461	37.335159
311.016388	916.747009	6373.018066	2942.090576	37.119556
311.385895	940.003723	6321.006348	2924.480713	36.879318
311.755371	935.099792	6255.025879	2908.208252	37.089016
312.124817	923.657043	6190.605469	2877.373047	37.093891
312.494232	912.288757	6134.655762	2849.583740	37.096107
312.863617	912.660339	6056.043457	2816.295898	37.011349
313.232971	918.084412	6013.765137	2822.017334	37.363663
313.602295	909.836731	5988.725098	2868.605225	38.566875
313.971619	916.226807	6035.164063	2922.772217	39.198475
314.340820	909.465332	6053.368652	2933.991455	39.357780
314.710083	917.787292	6120.761230	2925.298096	38.583908
315.079285	925.217468	6143.571777	2886.957764	37.593082
315.448486	932.424805	6164.153809	2855.379150	36.755619
315.817596	930.418640	6057.678223	2783.454346	36.140858
316.186707	919.421875	5878.831543	2725.200928	36.411171
316.555786	913.626221	5678.957031	2664.867188	36.749619
316.924866	906.270264	5527.825684	2635.220459	37.410568
317.293884	904.487000	5444.680176	2619.171143	37.766762
317.662872	910.208313	5422.463867	2633.734375	38.196556
318.031830	905.750183	5412.953125	2649.189453	38.681175
318.400757	910.059753	5470.240723	2682.328369	38.863995
318.769684	905.378662	5513.707520	2692.804688	38.786858
319.138550	902.555176	5573.075684	2687.009521	38.206757
319.507416	904.635559	5574.041504	2662.043701	37.636658
319.876190	900.920471	5539.862793	2627.790039	37.225502
320.244995	926.926453	5502.859375	2613.969727	36.867741
320.613770	923.954407	5431.603027	2585.957520	36.870735
320.982483	927.446594	5394.525879	2577.635742	36.941124
321.351166	909.316711	5323.938477	2586.700684	37.996101
321.719818	904.115540	5313.387207	2638.638184	39.338078
322.088440	898.914307	5345.188965	2717.696289	40.905750
322.457062	897.205383	5483.169434	2805.745117	41.616982
322.825623	907.681946	5640.690918	2882.053955	41.714947
323.194183	900.846191	5805.791504	2922.623291	41.219158
323.562653	902.629456	5951.201660	2961.112061	40.773560
323.931183	897.799805	6072.390137	2978.350342	40.207058
324.299591	901.069153	6156.277344	2986.226318	39.677921
324.668060	894.530518	6184.586426	2946.028564	38.780273
325.036407	887.100281	6180.945801	2903.898682	38.097038
325.404755	893.564514	6122.023438	2854.710205	37.509060
325.773102	898.542786	6038.285156	2803.144287	37.056362
326.141388	912.288879	5954.248535	2765.844482	36.762604
326.509674	913.997803	5867.537598	2720.519775	36.469311
326.877899	916.598389	5798.287109	2690.873047	36.345512
327.246124	912.660339	5736.541504	2646.439941	35.941589
327.614288	919.570374	5696.715332	2632.916992	35.865494
327.982422	921.799500	5648.121094	2618.056396	35.889576
328.350525	926.629211	5593.360840	2645.994385	36.843029
328.718628	919.273254	5554.128418	2670.737061	37.788967
329.086700	925.960510	5576.642090	2703.578857	38.222752
329.454712	913.626282	5621.520996	2721.708740	38.405331
329.822693	919.867676	5664.765137	2741.398682	38.389259
330.190674	916.672668	5688.021973	2784.419922	39.145058
330.558563	921.205078	5712.542480	2803.218750	39.279507
330.926483	919.421875	5753.705566	2829.967529	39.520760
331.294312	902.778015	5820.652344	2851.961182	39.634666
331.662231	901.143372	5932.106934	2914.301514	40.015362
332.029999	898.171204	6068.600098	2972.851807	40.125893
332.397766	907.830566	6171.509766	3019.662842	40.120838
332.765503	908.945129	6266.319824	3040.467529	39.786697
333.133240	897.948425	6337.427734	3038.832764	39.358257
333.500916	888.883484	6410.170410	3040.319092	38.966194
333.868561	885.911316	6418.121094	3019.216797	38.561543
334.236176	890.220886	6403.631348	2999.155029	38.250988
334.603790	894.679016	6371.830078	2971.588623	37.919525
334.971344	890.815247	6325.019531	2950.709717	37.906094
335.338867	886.431458	6280.883301	2949.520752	38.244652
335.706360	882.047607	6240.611816	2939.787109	38.400948
336.073853	885.093933	6235.187500	2952.938721	38.650627
336.441284	892.301331	6254.506348	2964.752930	38.649242
336.808655	905.304382	6271.149902	2993.210938	38.911041
337.176086	903.298157	6282.740234	3021.074219	39.367954
337.543396	912.660339	6262.307129	3033.185547	39.638599
337.910706	903.223938	6227.310547	3034.671875	40.034061
338.277954	912.585999	6200.413574	3042.622070	40.281876
338.645264	899.285828	6163.484863	3032.442627	40.521961
339.012421	904.189880	6154.643066	3008.962891	40.087452
339.379669	900.697571	6143.794922	2948.332031	39.053913
339.746796	917.638672	6156.872559	2915.044189	38.124001
340.113953	922.096741	6155.014160	2875.366455	37.326591
340.481018	922.245361	6161.998535	2856.865234	36.921967
340.848114	913.923523	6187.484863	2844.828125	36.614811
341.215118	905.378723	6235.113281	2864.369873	36.755890
341.582153	904.041260	6336.610840	2931.019531	37.311596
341.949066	907.756348	6446.355469	3032.888428	38.369488
342.316010	905.675964	6579.431152	3162.546875	39.777374
342.682922	908.202148	6680.408691	3294.657227	41.343895
343.049835	899.360168	6832.432129	3443.039795	42.872894
343.416656	920.462097	7059.576172	3615.347656	43.896976
343.783478	918.827454	7329.814941	3753.476318	44.215481
344.150269	929.527039	7623.458984	3832.088623	43.361084
344.516998	915.781006	7835.593262	3846.800781	42.356926
344.883728	918.455872	7989.771484	3800.212891	40.752773
345.250427	911.099915	8009.907715	3732.522705	39.745026
345.617065	904.041199	7931.518066	3632.585938	38.826801
345.983704	898.765686	7788.337402	3550.481445	38.488834
346.350281	893.936035	7631.335938	3483.534424	38.436169
346.716827	894.158936	7477.008301	3420.005859	38.370113
347.083405	893.713074	7321.269531	3369.553955	38.519161
347.449860	943.570129	7217.171875	3380.625000	38.846188
347.816376	955.087097	7105.197266	3365.021484	39.185223
348.182770	957.613342	7019.080566	3372.971924	39.847755
348.549194	915.929626	6950.871094	3332.402588	40.041367
348.915558	909.316711	6985.718750	3380.104736	40.662025
349.281921	901.663574	7014.994629	3406.185547	40.968204
349.648193	900.623291	7067.823730	3427.064453	40.965771
350.014526	897.056702	7104.900391	3426.098389	40.739456
350.380737	904.338440	7205.803223	3435.163330	40.162487
350.746948	911.025696	7281.443848	3479.745117	40.322620
351.113159	908.945251	7347.796875	3512.289795	40.431812
351.479309	903.743958	7375.511230	3561.180908	41.062000
351.845428	894.233215	7443.795410	3610.369141	41.470497
352.211517	896.833801	7541.503418	3676.572998	41.834126
352.577576	893.415955	7650.728516	3727.470459	41.940556
352.943604	897.948425	7763.891113	3791.147705	42.138412
353.309601	911.174255	7892.583984	3862.849609	42.279072
353.675537	916.746887	8095.875488	3956.619873	42.343204
354.041473	911.099915	8287.130859	4028.544922	42.264534
354.407379	894.233215	8473.705078	4075.281494	41.969261
354.773254	901.143372	8631.969727	4169.200684	42.273067
355.139038	908.276367	8808.736328	4259.775391	42.421570
355.504913	924.994446	9056.907227	4419.823730	42.976719
355.870636	914.072083	9305.003906	4547.697754	43.304199
356.236389	902.332214	9583.267578	4691.994141	43.654995
356.602081	889.552185	9840.429688	4805.454590	43.748806
356.967804	886.580078	10105.615234	4899.818848	43.532089
357.333405	891.706970	10356.981445	4954.505859	42.923203
357.699036	889.626465	10550.912109	4944.920410	41.974686
358.064606	896.982422	10705.981445	4911.781738	40.929756
358.430176	899.360168	10762.600586	4873.069824	40.288074
358.795654	894.901917	10783.851563	4914.679199	40.649185
359.161163	902.926697	10790.686523	5007.483398	41.511494
359.526581	905.304382	10874.723633	5191.828613	42.996731
359.892029	927.298035	11124.973633	5468.829590	44.534969
360.257416	916.375488	11525.762695	5754.746094	45.604622
360.622772	912.140198	12030.129883	5996.675781	45.732510
360.988098	891.632629	12542.893555	6124.401855	44.911613
361.353394	895.199219	12967.756836	6175.373535	43.737000
361.718658	900.697571	13274.625977	6099.510254	42.014244
362.083893	897.651184	13320.026367	5900.527344	40.273106
362.449097	903.446777	13148.460938	5609.260254	38.430447
362.814209	900.251770	12707.918945	5287.381348	37.154922
363.179382	912.214539	12084.222656	4973.675781	36.353905
363.544434	910.208313	11382.285156	4732.414551	36.499027
363.909546	907.161926	10700.186523	4591.165527	37.618652
364.274536	903.966858	10209.268555	4508.243164	38.733578
364.639587	897.725525	9859.079102	4439.810547	39.526226
365.004517	896.610901	9645.606445	4389.804688	39.926800
365.369507	894.604797	9484.221680	4358.671875	40.328541
365.734344	901.291992	9389.486328	4355.625488	40.695740
366.099274	903.149597	9327.889648	4337.347168	40.763245
366.464081	910.579834	9267.109375	4315.873535	40.750095
366.828918	910.208313	9208.633789	4284.443359	40.661148
367.193665	908.350769	9142.057617	4235.849609	40.413132
367.558411	913.700500	9066.121094	4211.032227	40.446049
367.923126	909.019531	8962.393555	4164.592773	40.424961
368.287781	919.124695	8876.500977	4154.859375	40.663334
368.652435	911.694336	8802.717773	4121.200684	40.672878
369.017059	919.198975	8770.098633	4147.949707	41.125870
369.381653	929.452698	8744.613281	4181.236816	41.608665
369.746185	927.000732	8746.916016	4211.403809	42.000496
370.110687	921.279358	8757.318359	4238.895996	42.337929
370.475220	900.474670	8813.714844	4275.155762	42.646008
370.839661	902.852356	8892.773438	4335.489746	42.962097
371.204041	902.480896	8983.347656	4358.003418	42.761780
371.568451	904.932861	9020.127930	4347.601074	42.422493
371.932770	900.251770	9051.855469	4312.901855	41.864773
372.297150	906.716064	9039.669922	4291.428223	41.617252
372.661377	906.418884	9034.542969	4294.399902	41.682201
373.025696	905.601563	9033.798828	4309.037598	41.871967
373.389862	897.131104	9046.282227	4347.972168	42.346016
373.754059	906.270325	9084.845703	4394.932129	42.656109
374.118225	911.322937	9139.235352	4455.710938	43.077610
374.482361	911.322815	9262.651367	4526.224121	43.285347
374.846436	895.942200	9437.411133	4629.728027	43.713627
375.210510	891.781250	9663.440430	4776.029785	44.281799
375.574524	904.561340	9939.698242	4943.285645	44.700203
375.938538	919.273254	10226.877930	5106.454102	44.986664
376.302460	925.663269	10520.967773	5243.171387	44.996052
376.666412	922.022461	10798.414063	5341.177246	44.744629
377.030304	916.449768	10997.397461	5351.430664	43.993694
377.394196	907.830750	11117.618164	5280.769043	42.830849
377.757996	909.762512	11102.238281	5154.230957	41.643154
378.121796	902.778076	11007.426758	4986.752441	40.416790
378.485565	907.161926	10803.837891	4842.902832	39.768314
378.849304	893.936096	10527.877930	4720.600098	39.720650
379.212982	896.090820	10239.731445	4654.395996	40.223133
379.576630	901.069092	9967.487305	4620.960449	41.029339
379.940277	911.322754	9808.999023	4585.963379	41.298882
380.303864	915.112305	9687.069336	4587.747070	41.867905
380.667450	905.675842	9664.851563	4594.954590	42.119019
381.030945	900.549011	9615.664063	4616.130859	42.633766
381.394501	903.223877	9632.159180	4626.755859	42.657345
381.757935	920.684998	9651.253906	4658.631836	42.814468
382.121399	917.341370	9678.300781	4707.300293	43.259636
382.484741	918.232971	9814.943359	4794.457520	43.569191
382.848145	907.013367	9911.686523	4857.837891	43.875271
383.211487	910.059753	10057.169922	4911.112793	43.741169
383.574768	901.514954	10163.645508	4939.645020	43.598286
383.938019	893.490234	10257.415039	4959.632324	43.423481
384.301270	900.549011	10363.668945	4993.142578	43.247822
384.664459	903.223816	10404.387695	5028.659668	43.420322
385.027649	908.573730	10450.602539	5051.099121	43.413464
385.390778	905.081482	10534.491211	5109.649902	43.663822
385.753876	913.997803	10579.815430	5135.284668	43.672325
386.116943	912.065918	10660.731445	5184.323730	43.824024
386.479980	913.403320	10702.934570	5180.832031	43.591759
386.842987	915.706726	10786.600586	5200.001465	43.403313
387.205994	926.257629	10848.866211	5196.583496	43.036324
387.568909	920.759277	10897.832031	5192.942871	42.820011
387.931793	911.322937	10903.924805	5165.451172	42.572781
388.294678	897.502625	10875.540039	5155.048340	42.669174
388.657471	904.858459	10818.475586	5147.023926	42.791298
389.020294	913.180481	10790.389648	5185.141113	43.250683
389.383057	925.514709	10870.338867	5274.007324	43.726189
389.745819	924.251648	10971.465820	5384.123535	44.389141
390.108521	924.697327	11129.061523	5525.150391	45.083191
390.471191	915.706726	11325.963867	5665.805176	45.629025
390.833801	913.031799	11560.760742	5792.863281	45.829788
391.196442	909.093750	11813.612305	5865.605469	45.453743
391.558960	914.666504	11999.071289	5880.466309	44.799881
391.921509	914.517883	12152.878906	5855.054199	43.961357
392.284027	914.815125	12240.407227	5823.771973	43.343933
392.646484	908.796570	12233.348633	5807.425781	43.256718
393.008911	900.846191	12128.210938	5781.791504	43.473648
393.371307	900.623291	12053.164063	5800.441895	43.934547
393.733673	904.561279	11995.133789	5785.135254	44.006516
394.096008	902.778015	11972.174805	5787.884766	44.131645
394.458344	903.521057	11916.745117	5712.615723	43.666550
394.820587	899.211487	11816.510742	5587.861816	42.946983
395.182831	907.161926	11694.950195	5470.314941	42.299244
395.545013	894.976257	11463.645508	5353.065918	42.182133
395.907196	902.629395	11216.070313	5304.694336	42.682793
396.269287	901.589172	10985.136719	5249.933105	43.123154
396.631409	903.669739	10841.732422	5246.812500	43.702106
396.993469	902.109375	10705.461914	5227.791504	44.124519
397.355530	906.047363	10617.933594	5253.648438	44.765774
397.717499	916.152588	10563.469727	5276.756348	45.200165
398.079468	914.294983	10576.769531	5322.304199	45.619881
398.441376	915.483887	10591.333008	5324.533203	45.567566
398.803284	901.217773	10591.926758	5340.805176	45.812824
399.165131	899.954590	10618.602539	5353.956543	45.829437
399.526978	894.307556	10591.778320	5373.349609	46.187733
399.888763	900.920471	10574.614258	5372.755371	46.226761
400.250519	903.000977	10546.900391	5373.943848	46.360321
400.612244	926.109131	10580.485352	5446.389648	46.821053
400.973938	931.236084	10573.425781	5505.237793	47.437378
401.335602	930.864502	10628.484375	5588.901855	48.032787
401.697205	920.907959	10748.408203	5675.242188	48.377857
402.058807	909.019531	10938.698242	5786.621582	48.631687
402.420349	905.601563	11183.377930	5941.246094	48.995468
402.781860	892.970032	11431.770508	6069.863281	49.122223
403.143341	897.279602	11783.296875	6234.666504	49.029747
403.504822	904.189880	12102.948242	6367.297363	48.783150
403.866241	910.951355	12466.065430	6495.544434	48.330055
404.227631	915.929688	12724.489258	6569.921387	47.880451
404.588959	916.301086	12957.502930	6617.697754	47.349064
404.950287	909.911133	13037.898438	6605.808594	46.964905
405.311554	898.988586	12990.790039	6574.378906	46.935852
405.672821	902.109314	12796.192383	6525.041504	47.275036
406.034027	902.034973	12520.901367	6465.748535	47.885166
406.395203	912.214539	12162.464844	6398.578613	48.766598
406.756348	906.047363	11898.614258	6336.312988	49.399433
407.117493	899.880310	11731.507813	6328.808594	50.121075
407.478516	894.976318	11712.411133	6370.343750	50.616135
407.839600	896.239502	11718.132813	6445.537598	51.278439
408.200592	914.072083	11769.104492	6555.283203	51.968624
408.561554	927.000793	11837.612305	6644.817871	52.406017
408.922485	925.737610	11906.120117	6729.076660	52.851883
409.283417	918.455994	11904.113281	6788.667969	53.435238
409.644257	911.174316	12015.269531	6883.181152	53.782021
410.005096	917.712891	12136.382813	6961.644531	53.873871
410.365906	917.564270	12239.589844	6979.997559	53.545483
410.726715	911.843018	12299.776367	6957.410156	53.087482
411.087433	908.796570	12285.211914	6929.546387	52.923088
411.448120	911.025635	12303.266602	6908.369629	52.644108
411.808807	918.158691	12223.762695	6905.695313	52.960789
412.169434	913.180420	12124.495117	6877.014160	53.194778
412.530029	919.124695	12070.031250	6946.561035	54.053333
412.890564	918.678772	12074.118164	7009.867676	54.602859
413.251099	930.864563	12149.981445	7154.088379	55.469814
413.611572	925.589050	12250.809570	7235.673340	55.717098
413.972076	928.561218	12352.828125	7348.018066	56.191414
414.332489	918.307312	12456.851563	7416.896973	56.320709
414.692871	919.124695	12644.762695	7562.679688	56.658371
415.053223	913.403320	12816.327148	7676.808594	56.821377
415.413574	918.753113	13098.159180	7848.893066	56.900475
415.773834	910.877136	13317.203125	7986.056152	57.028801
416.134094	914.815125	13573.250000	8179.466309	57.389809
416.494263	912.437439	13785.606445	8370.721680	57.936661
416.854462	913.329102	14104.809570	8623.722656	58.449799
417.214630	912.734619	14507.382813	8920.487305	58.903713
417.574738	911.991638	14923.924805	9199.568359	59.146564
417.934784	920.759277	15379.325195	9506.736328	59.383320
418.294861	925.737610	15869.128906	9830.250000	59.588299
418.654846	926.034851	16473.359375	10221.455078	59.787907
419.014832	921.650940	17082.789063	10631.753906	60.083038
419.374756	911.471497	17770.089844	11066.276367	60.235092
419.734680	925.663330	18478.269531	11551.174805	60.535240
420.094543	922.616882	19158.361328	11894.750000	60.168274
420.454376	932.499207	19696.091797	12131.776367	59.686214
420.814148	918.901794	20134.328125	12207.937500	58.749863
421.173920	916.375488	20535.265625	12335.664063	58.205582
421.533691	912.734558	20895.486328	12397.631836	57.474052
421.893341	906.641785	21112.525391	12436.120117	57.060009
422.253021	906.493164	21196.041016	12404.168945	56.667976
422.612640	903.669739	21102.566406	12373.855469	56.786198
422.972260	914.072083	21003.595703	12391.315430	57.130489
423.331757	916.969910	20997.281250	12445.036133	57.409801
423.691315	935.174011	21132.212891	12582.868164	57.670307
424.050781	936.362976	21289.662109	12596.393555	57.288158
424.410248	935.619873	21259.197266	12471.340820	56.760284
424.769653	925.663330	21172.783203	12228.815430	55.825977
425.128998	923.062683	21007.757813	12008.730469	55.194603
425.488373	918.753174	20691.599609	11734.331055	54.699146
425.847656	911.991638	20280.035156	11444.773438	54.382275
426.206940	912.585999	19863.568359	11124.305664	53.884911
426.566193	918.455872	19422.580078	10872.717773	53.794827
426.925385	917.044128	18952.617188	10595.419922	53.662704
427.284576	916.672668	18363.396484	10324.214844	53.921535
427.643677	915.558105	17918.099609	10113.937500	54.100025
428.002777	918.455994	17568.876953	9977.815430	54.409187
428.361847	928.561096	17198.330078	9873.791016	54.980682
428.720856	927.892395	16834.619141	9748.814453	55.454037
429.079865	926.406311	16554.423828	9663.366211	55.905746
429.438812	915.558105	16395.861328	9627.924805	56.280342
429.797760	925.960510	16313.161133	9619.973633	56.501591
430.156616	933.390808	16142.637695	9546.190430	56.628704
430.515503	933.613770	16039.729492	9477.907227	56.561813
430.874268	920.833679	15964.385742	9479.838867	56.894840
431.233093	906.939148	15989.425781	9543.887695	57.264751
431.591827	897.354004	16063.726563	9659.874023	57.775974
431.950562	907.013367	16177.932617	9737.074219	57.822720
432.309204	908.722229	16261.225586	9839.984375	58.174629
432.667877	917.044128	16456.789063	9956.639648	58.170811
433.026459	920.833679	16724.724609	10042.756836	57.719475
433.385010	920.982239	17052.029297	10096.178711	56.879112
433.743561	923.434265	17491.306641	10091.572266	55.336842
434.102051	920.313477	17951.759766	10094.172852	53.864246
434.460510	926.852112	18523.593750	10136.600586	52.337803
434.818939	921.428040	18933.375000	10131.770508	51.134632
435.177338	922.468262	19300.652344	10110.593750	49.994740
435.535675	926.109131	19484.476563	10076.192383	49.304356
435.894012	937.477539	19509.144531	10094.395508	49.305847
436.252289	932.424805	19423.697266	10218.036133	50.216183
436.610535	932.424805	19115.712891	10272.796875	51.367889
436.968719	937.700256	18830.388672	10480.844727	53.335445
437.326935	940.969666	18443.197266	10641.487305	55.424473
437.685028	936.214294	18181.576172	10839.726563	57.427109
438.043152	918.010193	17999.906250	10941.819336	58.680893
438.401215	914.666504	18058.607422	11108.554688	59.460590
438.759277	912.808899	18277.207031	11346.174805	60.084812
439.117249	928.932617	18728.076172	11679.421875	60.398911
439.475250	934.208069	19119.205078	11977.747070	60.728851
439.833130	940.672424	19600.091797	12257.348633	60.648594
440.191071	939.855042	19848.410156	12339.972656	60.290791
440.548889	944.164551	20131.429688	12391.018555	59.658596
440.906708	935.694092	20268.740234	12328.083008	58.927021
441.264496	923.508484	20354.785156	12223.168945	58.151917
441.622223	919.421875	20278.029297	12025.971680	57.372669
441.979950	921.279480	20108.619141	11815.694336	56.779182
442.337616	931.384583	19917.958984	11669.018555	56.553825
442.695251	931.756165	19658.419922	11552.362305	56.713818
443.052887	933.316467	19421.542969	11501.390625	57.161102
443.410461	920.313477	19274.201172	11577.625977	58.065697
443.768005	907.830627	19273.458984	11707.656250	58.804550
444.125458	916.375427	19360.169922	11873.424805	59.407784
444.482941	920.982239	19600.539063	12069.139648	59.681061
444.840393	928.412537	19919.443359	12392.058594	60.363476
445.197754	924.771667	20307.302734	12720.997070	60.860088
445.555084	928.189514	20631.634766	12989.081055	61.212093
445.912415	926.926453	21012.955078	13157.823242	60.892555
446.269714	921.205139	21316.931641	13237.030273	60.384342
446.626953	913.774902	21479.283203	13215.333008	59.816460
446.984161	906.864746	21586.501953	13102.616211	58.974693
447.341309	920.536438	21584.865234	12955.199219	58.238831
447.698456	931.384583	21607.751953	12785.121094	57.329880
448.055542	937.700378	21475.119141	12623.585938	56.900463
448.412598	935.619934	21205.328125	12415.687500	56.636566
448.769653	926.109192	20851.126953	12159.194336	56.376789
449.126617	931.979065	20390.451172	11868.374023	56.203766
449.483582	952.263733	20076.224609	11690.715820	56.151821
449.840515	962.888977	19642.445313	11516.179688	56.496475
450.197388	955.533020	19372.576172	11386.074219	56.635265
450.554230	937.254578	19133.023438	11266.448242	56.767006
450.911041	922.245422	19010.796875	11226.473633	56.965473
451.267822	923.582825	18944.220703	11270.460938	57.416821
451.624573	910.802795	18865.015625	11313.257813	57.938797
451.981262	914.889465	18808.619141	11297.581055	58.024185
452.337921	916.672668	18630.070313	11186.942383	57.980232
452.694580	916.078308	18387.841797	10964.481445	57.512245
453.051147	912.437500	18271.634766	10841.733398	57.199051
453.407715	918.901794	18037.654297	10621.425781	56.677757
453.764221	939.037781	17989.876953	10572.534180	56.498661
454.120728	948.474182	17609.000000	10342.195313	56.383099
454.477142	939.260681	17453.931641	10305.415039	56.714142
454.833557	928.932617	17202.195313	10195.075195	56.940903
455.189911	930.864502	17128.562500	10222.122070	57.361595
455.546265	937.105957	17054.853516	10259.051758	57.836525
455.902557	932.127625	17027.210938	10324.585938	58.356071
456.258820	923.731384	17120.166016	10480.324219	59.004299
456.615051	916.969910	17267.505859	10651.220703	59.534752
456.971252	931.236023	17363.951172	10847.750977	60.346172
457.327393	933.613708	17668.443359	11183.971680	61.251644
457.683502	943.718811	18111.882813	11593.898438	62.034470
458.039612	940.598145	18802.972656	12199.987305	63.034107
458.395630	957.019043	19571.412109	12816.402344	63.710823
458.751648	944.610413	20230.400391	13330.280273	64.221741
459.107605	936.585693	21055.904297	13784.195313	63.857082
459.463562	923.805664	21612.580078	13918.683594	62.811253
459.819458	927.075012	22010.544922	13849.656250	61.292477
460.175323	925.068848	22079.648438	13483.566406	59.365387
460.531158	931.533264	22060.404297	13015.237305	57.190487
460.886932	940.077942	21800.791016	12535.166992	55.583378
461.242676	944.684753	21358.392578	12081.918945	54.557629
461.598419	934.653870	20749.259766	11738.937500	54.526867
461.954102	927.669495	20090.341797	11386.594727	54.579678
462.309723	936.511536	19421.318359	11102.237305	54.995033
462.665344	938.666260	18817.164063	10868.257813	55.539295
463.020905	942.827148	18419.349609	10779.987305	56.287853
463.376373	936.660095	18171.771484	10755.616211	56.970657
463.731873	946.393799	17965.134766	10792.916016	57.856941
464.087341	948.251404	17821.654297	10815.057617	58.475502
464.442749	952.263672	17798.103516	10902.661133	59.067387
464.798126	943.718933	17787.849609	10921.385742	59.235275
465.153503	933.093567	17908.814453	11011.514648	59.369621
465.508820	914.146301	17917.283203	11083.067383	59.806149
465.864105	905.601563	18077.035156	11161.234375	59.724964
466.219330	909.985352	18322.826172	11329.975586	59.840843
466.574524	915.112305	18462.666016	11343.127930	59.427174
466.929657	920.907898	18509.328125	11295.203125	58.983665
467.284790	931.458923	18480.720703	11162.125977	58.296852
467.639893	938.071838	18459.023438	11017.459961	57.527630
467.994934	944.981995	18381.082031	10890.476563	57.039673
468.349945	941.192566	18193.617188	10721.065430	56.686951
468.704926	933.762268	18012.093750	10652.929688	56.909344
469.059875	939.632141	17796.542969	10584.497070	57.216091
469.414764	928.635437	17622.375000	10562.875000	57.711689
469.769653	939.706482	17494.279297	10523.940430	57.894787
470.124451	932.424805	17454.154297	10600.174805	58.515358
470.479248	938.591858	17398.947266	10628.483398	58.868057
470.834015	930.641541	17405.337891	10679.083984	59.172211
471.188721	930.344299	17521.025391	10783.182617	59.387783
471.543365	930.790222	17689.322266	10946.721680	59.766167
471.898010	919.496155	17851.080078	11085.148438	60.039581
472.252625	916.449768	18062.396484	11271.203125	60.391838
472.607178	917.787170	18304.474609	11431.250000	60.468464
472.961700	932.424866	18495.656250	11510.458008	60.228291
473.316193	937.774597	18664.695313	11497.379883	59.568192
473.670654	945.204895	18717.671875	11448.415039	59.098209
474.025055	952.932373	18822.439453	11479.398438	58.907417
474.379456	945.947937	18893.177734	11496.562500	58.786865
474.733795	943.644531	19005.595703	11574.952148	58.860237
475.088104	937.477356	19165.494141	11764.497070	59.397678
475.442383	953.080994	19306.001953	12000.186523	60.192627
475.796570	954.492859	19553.431641	12232.828125	60.639668
476.150787	962.814697	19910.529297	12483.971680	60.804996
476.504944	956.276062	20288.134766	12699.598633	60.745953
476.859070	962.071716	20602.880859	12909.875000	60.831528
477.213135	956.276062	20867.917969	13079.582031	60.885513
477.567200	943.347351	21241.365234	13236.508789	60.563358
477.921173	929.155518	21594.599609	13406.440430	60.377533
478.275146	924.251465	21942.859375	13544.122070	60.041424
478.629089	936.437195	22164.056641	13734.262695	60.288555
478.983002	942.307068	22569.599609	14025.381836	60.493355
479.336823	945.130615	23020.468750	14371.410156	60.820267
479.690643	942.158508	23555.521484	14799.914063	61.281269
480.044403	942.158508	24193.781250	15344.254883	61.940178
480.398163	940.672424	25081.404297	16111.208008	62.842068
480.751862	934.430969	26292.240234	17158.431641	63.980297
481.105499	938.889221	27875.408203	18555.173828	65.399261
481.459137	934.802551	30041.259766	20655.933594	67.755173
481.812744	936.660095	32919.519531	23434.632813	70.343842
482.166290	934.728210	36527.144531	26887.033203	72.915260
482.519806	941.118225	40667.738281	30490.865234	74.382729
482.873291	944.907715	45000.406250	33817.394531	74.616081
483.226715	934.802551	48905.531250	36152.656250	73.415298
483.580139	930.864441	51453.144531	36872.050781	71.139282
483.933502	934.282410	53310.496094	36283.652344	67.491264
484.286804	952.858093	54024.324219	34560.351563	63.324974
484.640106	956.201660	54379.937500	32401.039063	58.859303
484.993347	958.133545	53589.050781	30211.708984	55.582493
485.346558	943.644531	52336.312500	28607.365234	53.828148
485.699738	944.981934	50766.964844	27946.072266	54.195129
486.052887	939.334961	49286.707031	28050.093750	56.074936
486.405975	942.901550	48492.636719	28724.392578	58.426174
486.759064	944.907654	48174.917969	29491.640625	60.441933
487.112061	948.622803	48216.750000	29876.603516	61.199757
487.464996	950.257507	48168.000000	29628.728516	60.736641
487.817963	944.387634	48047.558594	28780.787109	59.096657
488.170868	938.443359	47545.343750	27512.736328	57.017941
488.523743	931.681824	46623.027344	26095.859375	55.074280
488.876587	931.458923	45321.609375	24799.500000	53.768776
489.229401	952.932312	43990.261719	24017.609375	53.592262
489.582153	959.099426	42744.347656	23839.208984	54.756424
489.934845	972.994141	41888.234375	24257.906250	56.910118
490.287537	954.195557	41594.363281	25000.041016	59.167683
490.640198	962.443176	41851.378906	25850.064453	60.866394
490.992798	949.291565	42161.812500	26319.064453	61.558414
491.345337	952.337952	42380.785156	26275.447266	61.124931
491.697876	954.641357	42166.574219	25430.330078	59.389812
492.050354	972.474060	41733.238281	24133.896484	56.822834
492.402832	967.792969	40638.910156	22346.841797	53.890717
492.755219	967.718689	39173.285156	20603.474609	51.395012
493.107605	950.108887	37126.542969	18966.734375	49.802105
493.459930	955.161438	35041.906250	17806.943359	49.437927
493.812225	946.468018	32845.218750	16922.369141	50.083157
494.164490	952.635193	31081.349609	16447.650391	51.429394
494.516724	948.474304	29680.742188	16169.535156	52.975494
494.868896	953.824036	28785.244141	16173.621094	54.685665
495.221039	951.446350	28234.068359	16302.684570	56.267460
495.573120	967.272766	27804.968750	16448.986328	57.686451
495.925201	999.668762	27686.679688	16610.744141	58.496902
496.277222	1006.876221	27663.421875	16744.490234	59.038464
496.629211	988.151855	27767.150391	16801.554688	59.051510
496.981140	949.365906	27679.250000	16734.013672	59.052433
497.333069	951.520569	27582.656250	16479.826172	58.308838
497.684967	955.235657	27456.562500	16226.972656	57.626312
498.036804	952.783752	27271.552734	15903.754883	56.807255
498.388580	944.016052	26968.767578	15644.809570	56.487740
498.740326	944.238953	26498.876953	15335.488281	56.315605
499.092072	946.393738	25990.203125	15031.292969	56.241043
499.443756	947.879700	25484.197266	14745.152344	56.232040
499.795410	957.093323	25080.734375	14522.614258	56.233307
500.147003	957.316223	24755.587891	14345.031250	56.254990
500.498566	957.018982	24384.445313	14183.348633	56.456608
500.850098	946.170898	23998.367188	14073.825195	56.947525
501.201599	945.947998	23667.794922	13962.745117	57.287582
501.553009	945.130615	23399.337891	13875.809570	57.586887
501.904449	947.062500	23249.767578	13812.875977	57.687233
502.255859	958.728027	23166.916016	13889.257813	58.224155
502.607178	960.882813	23161.640625	13977.382813	58.630882
502.958405	961.031433	23139.427734	14047.523438	59.005585
503.309692	951.520691	23141.656250	14066.916992	59.104626
503.660919	942.009827	23137.498047	14100.057617	59.282536
504.012115	951.743591	23196.716797	14101.096680	59.111576
504.363251	955.161438	23194.263672	14094.112305	59.080406
504.714294	960.585632	23204.740234	14034.745117	58.775707
505.065369	962.443115	23154.062500	14015.425781	58.819424
505.416443	963.854797	23085.111328	13950.707031	58.707573
505.767395	968.535950	23030.052734	13947.140625	58.829155
506.118317	966.083984	22954.935547	13885.246094	58.753239
506.469238	956.201721	22934.500000	13963.190430	59.181049
506.820160	947.879822	22911.541016	14042.842773	59.621037
507.170929	956.053040	23005.087891	14221.465820	60.163235
507.521729	960.511230	23168.333984	14351.941406	60.300507
507.872498	967.867249	23380.912109	14512.583008	60.432289
508.223236	970.022156	23626.630859	14673.078125	60.481495
508.573883	973.068542	23815.509766	14808.977539	60.571060
508.924500	968.313049	24066.875000	14959.291992	60.570774
509.275116	958.653748	24209.388672	15053.210938	60.619839
509.625702	963.186218	24443.218750	15202.856445	60.645866
509.976196	974.257324	24619.093750	15268.465820	60.453831
510.326660	974.628723	24876.328125	15413.208008	60.408169
510.677124	969.130371	25103.916016	15520.129883	60.290573
511.027557	975.074707	25269.759766	15679.807617	60.526539
511.377869	970.170715	25407.962891	15766.590820	60.547283
511.728180	972.845520	25446.304688	15769.637695	60.460567
512.078430	962.368835	25527.814453	15760.276367	60.238708
512.428650	956.573242	25577.744141	15722.827148	59.973804
512.778931	954.418457	25599.367188	15653.651367	59.643997
513.129028	954.344177	25545.500000	15514.928711	59.210655
513.479126	951.520691	25422.228516	15353.395508	58.853531
513.829285	945.576416	25286.775391	15256.950195	58.794861
514.179382	936.660095	25112.388672	15188.961914	58.952934
514.529297	944.684875	25025.677734	15209.321289	59.236084
514.879272	945.353516	25049.974609	15274.039063	59.443729
515.229187	957.093323	25076.351563	15373.828125	59.772713
515.579163	948.102722	25239.669922	15608.773438	60.352924
515.928955	953.155273	25460.646484	15925.081055	61.091221
516.278748	942.827209	25904.009766	16397.496094	61.914814
516.628540	966.158264	26458.009766	16895.843750	62.489323
516.978333	975.297607	27112.912109	17453.560547	63.044250
517.327942	978.492615	27846.802734	18033.345703	63.475719
517.677612	965.712463	28534.843750	18521.291016	63.678387
518.027222	951.446289	29116.562500	18831.058594	63.481411
518.376831	943.793152	29659.044922	18883.812500	62.475578
518.726379	941.192566	29974.013672	18742.712891	61.315159
519.075867	936.660095	30041.259766	18393.787109	59.980648
519.425293	962.071594	29887.007813	18011.277344	58.942932
519.774658	961.551514	29546.474609	17538.564453	57.992157
520.124084	968.907471	29154.380859	17153.376953	57.421318
520.473389	944.238953	28607.212891	16808.167969	57.347153
520.822693	948.102722	28086.947266	16604.951172	57.691658
521.171997	959.991211	27696.859375	16536.218750	58.257488
521.521240	978.418213	27387.759766	16480.492188	58.699207
521.870361	984.659668	27232.914063	16533.320313	59.236931
522.219482	974.108582	27102.068359	16629.095703	59.916611
522.568604	958.356445	27168.343750	16848.291016	60.625492
522.917664	955.087158	27291.091797	17111.990234	61.349106
523.266724	959.991150	27653.390625	17565.757813	62.209263
523.615662	972.845520	28185.029297	18130.603516	63.051750
523.964600	976.412048	28963.943359	18905.656250	64.061539
524.313538	979.161316	29852.677734	19723.138672	64.917542
524.662354	972.102478	30878.130859	20648.654297	65.794601
525.011169	991.941345	31984.570313	21485.078125	66.122612
525.359985	979.458435	33157.957031	22304.638672	66.271523
525.708740	972.919739	34438.199219	23106.212891	66.138077
526.057434	946.616638	35792.218750	24139.390625	66.558685
526.406067	963.483398	37453.179688	25487.837891	67.208992
526.754700	972.845520	39428.371094	27396.601563	68.712502
527.103333	974.703125	41966.175781	29711.501953	70.104332
527.451782	953.675476	44739.750000	32218.031250	71.402512
527.800293	960.362610	47476.167969	34249.097656	71.564354
528.148743	955.235657	49683.781250	35450.941406	70.791580
528.497131	959.991150	51176.519531	35429.769531	68.642296
528.845642	948.622864	51759.644531	34324.738281	65.686768
529.193909	955.310120	51615.941406	32366.931641	62.004005
529.542175	955.830261	50655.656250	29920.740234	58.279705
529.890503	967.124207	49058.371094	27485.617188	55.142036
530.238770	960.585510	46798.011719	25354.615234	53.218586
530.586914	962.591797	44515.281250	23954.974609	52.792110
530.934998	968.238770	42309.675781	23166.474609	53.694881
531.283142	971.805359	40789.746094	23152.875000	55.706223
531.631226	978.566895	39625.937500	23534.642578	58.363804
531.979248	971.285156	39238.449219	24357.919922	61.114105
532.327148	974.851746	39268.839844	25135.642578	63.092907
532.675110	976.040527	39597.925781	25784.380859	64.233887
533.023071	957.984924	39875.222656	25897.767578	64.084152
533.370850	959.471008	39943.136719	25479.445313	62.898075
533.718689	954.418457	39863.035156	24575.701172	60.709644
534.066467	973.588562	39399.460938	23516.515625	58.666016
534.414246	964.077820	38582.578125	22451.609375	57.119587
534.761963	960.288391	37667.316406	21714.896484	56.541237
535.109619	957.762146	36813.730469	21274.949219	56.663334
535.457153	962.517517	36083.781250	21159.556641	57.506580
535.804749	965.118103	35461.863281	21112.375000	58.403358
536.152344	961.328613	35003.863281	21009.837891	58.892529
536.499817	961.031433	34493.183594	20757.654297	59.037735
536.847229	965.043701	34023.808594	20333.310547	58.587387
537.194641	963.186096	33563.433594	19811.927734	57.817787
537.542114	971.953857	33276.843750	19240.763672	56.551224
537.889404	965.712463	32902.359375	18796.138672	55.830612
538.236694	978.641113	32583.228516	18565.279297	55.645840
538.583984	975.223145	32425.853516	18716.558594	56.410110
538.931213	980.127136	32736.884766	19234.820313	57.482861
539.278381	970.616394	33644.714844	20204.322266	58.865299
539.625488	975.594727	35052.378906	21524.607422	60.302086
539.972595	982.207703	37010.707031	23196.712891	61.658150
540.319641	982.579285	39254.050781	24830.259766	62.311893
540.666687	982.579285	41694.972656	26120.228516	61.744461
541.013611	973.885742	43913.425781	26836.802734	60.231010
541.360596	974.257324	45408.324219	26913.781250	58.377560
541.707458	968.090149	46430.503906	26423.384766	55.991955
542.054260	968.610291	46668.644531	25467.478516	53.607986
542.401062	971.433777	46618.121094	24313.853516	51.137161
542.747864	971.136536	45844.855469	23012.220703	49.118023
543.094666	978.418152	44739.824219	21791.873047	47.561211
543.441284	980.795898	43209.636719	20585.941406	46.425961
543.787903	985.179749	41876.941406	19668.822266	45.690479
544.134460	976.412109	40771.316406	18816.496094	44.830070
544.481079	969.724854	40174.515625	18296.896484	44.196571
544.827637	967.792969	39738.285156	17898.041016	43.667870
545.174072	969.204773	39432.828125	17736.802734	43.593388
545.520508	981.390381	39183.316406	17647.341797	43.625946
545.866943	977.823792	38866.488281	17650.982422	44.005665
546.213318	985.031189	38499.136719	17665.843750	44.465443
546.559631	982.950684	37876.253906	17454.525391	44.646515
546.905823	981.464661	36955.496094	17057.900391	44.689003
547.252136	980.052917	35696.289063	16474.771484	44.632488
547.598389	974.777405	34135.636719	15892.534180	44.986038
547.944458	972.028137	32553.359375	15302.719727	45.377094
548.290588	974.851746	30931.851563	14691.877930	45.789051
548.636658	976.412048	29446.835938	14169.752930	46.340515
548.982727	984.659668	27990.205078	13706.325195	47.107609
549.328735	984.511047	26702.468750	13365.499023	48.141415
549.674622	986.294434	25564.298828	13100.535156	49.288952
550.020569	977.749512	24678.164063	12947.026367	50.502399
550.366455	971.656677	23909.353516	12882.161133	51.925461
550.712280	966.529846	23300.294922	12826.210938	53.102020
551.058044	973.142761	22864.728516	12852.067383	54.262512
551.403748	975.891907	22560.609375	12905.936523	55.270798
551.749512	976.114807	22372.328125	13053.206055	56.444992
552.095154	973.142761	22168.587891	13155.668945	57.477097
552.440735	978.418213	22095.328125	13198.838867	57.870308
552.786316	970.244934	21977.037109	13138.429688	57.924999
553.131897	967.644348	21824.121094	12976.226563	57.577232
553.477417	955.458679	21590.437500	12802.582031	57.412819
553.822815	957.687805	21311.283203	12595.277344	57.177071
554.168213	957.910645	21010.357422	12413.754883	57.129406
554.513672	963.186096	20655.859375	12201.101563	57.066475
554.859009	958.430847	20289.619141	12006.428711	57.151161
555.204285	966.975586	19919.000000	11850.764648	57.428112
555.549500	962.294617	19583.820313	11724.078125	57.792168
555.894714	966.529785	19295.154297	11621.243164	58.131546
556.239990	965.712402	19065.335938	11555.410156	58.507832
556.585022	985.774170	18843.095703	11508.971680	58.929314
556.930115	988.523438	18612.681641	11451.312500	59.366177
557.275146	983.842468	18407.904297	11345.653320	59.468395
557.620178	964.820984	18257.960938	11245.418945	59.448990
557.965149	963.483398	18166.794922	11173.867188	59.351265
558.310059	962.740417	18053.111328	11107.291992	59.358288
558.654968	966.752747	17898.634766	11071.773438	59.680431
558.999756	962.963318	17784.431641	11054.164063	59.990013
559.344604	958.876648	17743.490234	11110.858398	60.483856
559.689331	954.195557	17766.525391	11124.975586	60.495960
560.033997	957.613464	17781.906250	11161.532227	60.649914
560.378723	957.910645	17793.125000	11213.989258	60.920387
560.723389	965.043762	17817.125000	11263.473633	61.110725
561.067932	960.139832	17837.705078	11313.554688	61.344250
561.412476	958.356506	17798.398438	11294.979492	61.381222
561.757019	962.071594	17798.400391	11299.661133	61.400501
562.101501	965.563782	17782.796875	11254.632813	61.181705
562.445862	971.359436	17754.560547	11186.645508	60.866135
562.790222	956.647522	17688.283203	11106.918945	60.665150
563.134644	964.672180	17643.552734	11108.331055	60.817387
563.478943	964.969421	17657.224609	11169.407227	61.132763
563.823181	968.015869	17694.525391	11253.444336	61.491779
564.167358	963.186218	17778.113281	11359.995117	61.830826
564.511536	961.477234	17952.427734	11548.575195	62.310211
564.855774	958.133606	18145.244141	11767.247070	62.890808
565.199768	957.390625	18369.787109	12016.608398	63.513474
565.543823	951.743591	18576.794922	12224.432617	63.958336
565.887817	955.087158	18831.060547	12405.583008	64.055237
566.231812	959.545227	18995.863281	12451.129883	63.713585
566.575745	960.957092	19105.533203	12335.070313	62.686024
566.919617	961.179993	19092.380859	12187.503906	61.917156
567.263428	943.644592	18990.068359	11940.372070	60.935772
567.607239	938.591980	18865.982422	11777.575195	60.460464
567.950989	941.415527	18701.771484	11597.540039	59.999504
568.294678	948.697083	18602.353516	11547.164063	60.035534
568.638367	951.817871	18446.095703	11508.526367	60.343784
568.981995	944.833435	18302.839844	11486.829102	60.732761
569.325623	954.269836	18217.837891	11524.946289	61.231121
569.669128	970.244934	18208.548828	11613.960938	61.744564
570.012573	974.851746	18245.701172	11773.265625	62.523930
570.356140	978.269714	18381.228516	11961.846680	63.113274
570.699524	960.734192	18492.312500	12120.706055	63.656403
571.042908	955.532959	18726.142578	12318.722656	63.943726
571.386230	937.254578	18875.564453	12421.038086	64.018196
571.729492	961.031433	19082.720703	12536.132813	63.874294
572.072815	964.969421	19185.482422	12524.540039	63.442616
572.416016	978.641113	19228.798828	12482.039063	63.031773
572.759094	961.848694	19203.017578	12359.143555	62.481167
573.102234	959.693909	19113.779297	12201.250000	61.923004
573.445374	953.452454	19030.708984	12091.801758	61.615269
573.788391	948.548523	18910.710938	12011.109375	61.588135
574.131409	945.056335	18843.466797	11971.653320	61.606571
574.474365	938.146179	18780.162109	11900.992188	61.443985
574.817261	946.170715	18742.935547	11823.791992	61.121338
575.160156	954.715576	18672.423828	11719.768555	60.758717
575.502930	953.675354	18604.806641	11574.729492	60.172085
575.845703	945.427795	18544.175781	11390.905273	59.353527
576.188477	960.957031	18482.429688	11194.596680	58.406277
576.531250	967.570007	18309.455078	10988.851563	57.786575
576.873901	973.365723	18117.751953	10782.959961	57.217525
577.216431	946.170898	17918.771484	10587.914063	56.807693
577.559082	935.248352	17736.355469	10384.325195	56.240799
577.901611	925.811829	17516.642578	10179.546875	55.776203
578.244080	932.350586	17267.580078	9970.310547	55.328026
578.586487	947.656921	17082.716797	9818.137695	54.976433
578.928955	1058.962402	16975.275391	10138.308594	57.044277
579.271301	1067.432983	16760.763672	10043.944336	57.199532
579.613647	1060.448364	16448.617188	9913.915039	57.534245
579.955872	958.133606	16115.370117	9360.433594	55.434246
580.298157	954.344177	15878.194336	9268.224609	55.708683
580.640320	964.152100	15726.914063	9235.457031	56.028168
580.982483	962.740295	15528.301758	9198.528320	56.542881
581.324524	967.049988	15403.176758	9174.007813	56.850136
581.666626	962.888977	15302.644531	9101.489258	56.755501
582.008728	958.133606	15216.157227	9077.043945	56.942745
582.350647	944.016113	15121.198242	9040.709961	57.110744
582.692566	961.179993	15029.210938	9040.486328	57.430256
583.034424	963.334778	14948.816406	8985.725586	57.362278
583.376343	963.186096	14885.213867	8901.688477	57.021168
583.718201	944.016052	14855.120117	8829.392578	56.684044
584.059937	935.322571	14815.368164	8780.278320	56.519665
584.401611	935.842773	14793.300781	8756.649414	56.437527
584.743347	941.043945	14723.456055	8763.633789	56.757771
585.085022	939.112061	14684.594727	8754.866211	56.860527
585.426514	949.291504	14649.152344	8748.328125	56.927853
585.768127	938.220459	14686.824219	8708.055664	56.513630
586.109619	949.737366	14760.309570	8707.907227	56.175587
586.451172	945.427795	14795.825195	8729.231445	56.199135
586.792542	947.211121	14856.307617	8775.746094	56.283562
587.133850	945.056335	14891.898438	8827.311523	56.516418
587.475220	942.381348	14947.551758	8879.473633	56.672588
587.816589	946.319397	14925.856445	8916.178711	57.010895
588.157776	952.783752	14924.371094	8972.127930	57.397518
588.498962	951.520691	14897.398438	9030.530273	57.931168
588.840210	944.239014	14843.975586	9059.136719	58.381664
589.181335	951.520691	14829.114258	9107.358398	58.769829
589.522400	953.452576	14765.511719	9116.943359	59.104080
589.863403	966.083984	14727.320313	9124.299805	59.284031
590.204407	968.907471	14626.862305	9063.223633	59.264484
590.545410	965.712402	14626.268555	8996.053711	58.784878
590.886353	967.644348	14605.612305	8901.837891	58.177242
591.227112	949.811707	14583.543945	8799.151367	57.572933
591.567932	946.690918	14548.250000	8729.826172	57.222378
591.908752	941.638428	14528.635742	8704.265625	57.132763
592.249512	945.204895	14581.538086	8735.102539	57.126041
592.590149	948.102722	14600.187500	8743.276367	57.098778
592.930786	953.749756	14633.028320	8805.764648	57.400795
593.271423	954.567078	14622.774414	8835.930664	57.662018
593.612000	957.762024	14596.101563	8932.969727	58.476379
593.952576	946.393738	14647.073242	9025.403320	58.967949
594.292969	931.756042	14668.471680	9130.913086	59.687901
594.633484	916.375427	14728.210938	9261.833008	60.422512
594.973877	915.037903	14760.309570	9390.526367	61.215759
595.314209	940.598145	14870.946289	9596.047852	62.133762
595.654480	958.802246	15055.588867	9811.674805	62.800644
595.994812	959.322449	15249.370117	10047.808594	63.600113
596.335022	943.495911	15441.815430	10180.735352	63.712482
596.675171	946.468079	15561.515625	10222.122070	63.466465
597.015320	942.530029	15602.308594	10132.141602	62.685883
597.355408	949.068665	15548.809570	9958.049805	61.706448
597.695496	934.133789	15451.844727	9688.108398	60.298588
598.035461	943.793152	15270.100586	9384.507813	58.917587
598.375366	938.146179	15046.375000	9062.851563	57.588417
598.715271	942.381409	14787.208008	8816.463867	56.873829
599.055176	949.960266	14528.114258	8625.504883	56.528629
599.395081	944.239014	14259.659180	8497.482422	56.725536
599.734802	942.604309	14013.866211	8367.155273	56.800568
600.074524	932.053406	13775.948242	8276.431641	57.181866
600.414246	933.539368	13573.843750	8240.989258	57.810707
600.753906	946.765320	13398.191406	8284.678711	58.932316
601.093506	939.855164	13262.218750	8320.493164	59.896286
601.433044	949.365906	13178.403320	8417.606445	61.069736
601.772583	940.969666	13131.890625	8529.209961	62.245014
602.112122	963.706299	13226.106445	8758.359375	63.565475
602.451538	962.071594	13383.628906	8999.917969	64.708839
602.790894	964.672302	13608.096680	9266.960938	65.664871
603.130310	948.399963	13846.980469	9512.753906	66.397644
603.469604	945.204895	14100.872070	9752.602539	66.947556
603.808838	938.740540	14359.149414	9945.122070	67.109589
604.148010	932.499084	14612.299805	10075.151367	66.833229
604.487305	939.855042	14829.932617	10114.829102	66.054161
604.826416	947.805481	14955.949219	10047.065430	64.956932
605.165527	953.972656	14945.620117	9856.256836	63.625706
605.504456	942.975891	14861.956055	9597.237305	62.175976
605.843445	935.248352	14705.624023	9331.159180	60.970821
606.182434	931.013184	14549.737305	9080.907227	59.843300
606.521423	936.065735	14318.952148	8841.800781	59.073463
606.860229	938.146179	14085.417969	8628.700195	58.495438
607.199036	943.644531	13865.110352	8497.854492	58.462486
607.537903	938.591980	13769.186523	8458.028320	58.605518
607.876648	952.486572	13807.674805	8513.458008	58.816498
608.215271	956.944824	13982.805664	8624.093750	58.860973
608.553955	954.121277	14314.269531	8772.402344	58.519421
608.892578	957.910706	14861.360352	8899.756836	57.121410
609.231140	953.378235	15708.635742	8962.468750	54.279568
609.569641	956.721863	16787.435547	8948.500000	50.482742
609.908081	940.077942	18065.740234	8883.112305	46.380890
610.246521	945.353516	19368.863281	8771.435547	42.478779
610.584961	948.251282	20556.146484	8611.239258	39.081135
610.923340	945.056335	21424.744141	8418.200195	36.490517
611.261597	942.158508	21820.552734	8198.190430	34.753780
611.599854	947.434021	21872.119141	8009.312988	33.749031
611.938110	952.783691	21638.587891	7844.955566	33.318363
612.276245	957.613464	21229.402344	7732.461426	33.420078
612.614319	944.387512	20518.919922	7599.830566	34.000519
612.952393	940.598145	19631.746094	7468.611816	34.925697
613.290466	931.013123	18686.689453	7369.343750	36.260689
613.628479	939.483582	17781.234375	7269.555176	37.585594
613.966370	945.873596	16905.875000	7202.608887	39.202599
614.304260	937.105957	16036.754883	7143.314941	41.101677
614.642151	929.081238	15205.829102	7111.959473	43.307331
614.979980	920.387756	14491.854492	7058.238281	45.226139
615.317749	924.771667	13866.077148	7023.761719	47.128090
615.655396	933.242188	13398.191406	7009.941406	48.750294
615.993164	934.579590	12947.323242	7012.393066	50.594715
616.330811	951.446289	12592.824219	7009.496094	52.038940
616.668396	944.759094	12242.041992	6991.143066	53.520687
617.005859	960.362610	11984.583008	6997.607422	54.763458
617.343445	957.985046	11755.582031	6981.111816	55.782108
617.680908	965.117981	11555.708008	6990.103027	56.889984
618.018311	969.724792	11413.343750	6976.579590	57.516987
618.355652	971.136536	11263.325195	6979.403809	58.376965
618.692993	974.554504	11147.710938	6972.047363	58.954102
619.030273	957.836426	11009.136719	6957.334473	59.688774
619.367554	943.198730	10911.725586	6912.232910	59.878796
619.704712	933.465149	10851.690430	6883.552734	59.991451
620.041870	939.557922	10811.789063	6857.918457	59.949570
620.379028	928.635315	10749.002930	6829.014160	60.083076
620.716064	927.446533	10709.473633	6804.568848	60.080818
621.053040	922.096680	10652.929688	6777.746094	60.176239
621.389954	935.842712	10648.397461	6764.000000	60.006428
621.726929	935.545593	10603.667969	6718.749512	59.817242
622.063843	932.276184	10590.070313	6703.070801	59.752720
622.400635	927.372253	10560.125977	6702.253906	59.950478
622.737427	930.195801	10581.673828	6722.018066	60.009689
623.074219	939.037781	10596.682617	6737.845215	60.043705
623.410889	949.365906	10627.666992	6744.011719	59.872555
623.747559	953.601074	10668.012695	6787.627441	60.055374
624.084167	954.418396	10698.997070	6840.233887	60.400921
624.420715	951.520569	10775.157227	6910.301270	60.657585
624.757324	958.950867	10872.716797	6988.393066	60.818893
625.093750	962.888916	10984.616211	7079.711426	61.035606
625.430176	963.260498	11092.652344	7189.085449	61.462975
625.766602	965.489563	11184.416992	7321.566895	62.199062
626.102905	954.121277	11331.164063	7434.283691	62.447102
626.439209	955.978821	11450.420898	7524.562500	62.591068
626.775452	941.861328	11548.648438	7535.187500	62.161388
627.111694	934.356750	11593.304688	7513.937012	61.728230
627.447876	925.811829	11600.809570	7453.974121	61.153755
627.783997	930.641541	11553.182617	7366.371582	60.585598
628.120056	932.127625	11478.656250	7286.793457	60.253628
628.456055	940.969666	11371.139648	7189.234375	59.905685
628.792053	933.019226	11291.859375	7088.331543	59.420868
629.128052	932.424805	11230.113281	6968.332031	58.614197
629.463928	931.979004	11191.476563	6884.369629	58.018341
629.799744	933.465088	11142.510742	6810.810059	57.569969
630.135559	931.458984	11084.480469	6756.271973	57.370243
630.471375	923.880066	11030.758789	6676.842285	56.921257
630.807068	940.078064	10951.625977	6640.806152	56.941525
631.142700	948.177002	10862.909180	6616.880371	57.174545
631.478333	952.783875	10709.102539	6590.056641	57.780739
631.813965	938.963562	10560.200195	6539.902344	58.214336
632.149475	938.814880	10366.122070	6480.608887	58.784481
632.484924	940.969666	10228.809570	6467.902832	59.507198
632.820435	938.963440	10065.493164	6462.181641	60.518276
633.155884	941.935547	9923.351563	6491.605469	61.790588
633.491150	961.254333	9832.254883	6532.323730	62.800911
633.826477	967.570129	9732.319336	6547.035645	63.658016
634.161804	966.975586	9655.787109	6521.624512	63.928753
634.497009	945.873596	9515.652344	6438.479980	64.092751
634.832153	940.449524	9384.879883	6379.779785	64.413223
635.167297	926.183411	9245.264648	6300.499512	64.602280
635.502380	918.530273	9121.030273	6261.044434	65.132751
635.837463	928.783997	9033.055664	6191.645996	64.939354
636.172424	939.409241	8937.725586	6157.020996	65.233879
636.507324	951.074890	8858.295898	6107.832031	65.215797
636.842224	945.799316	8775.967773	6073.058594	65.480827
637.177124	946.616699	8675.362305	6016.143066	65.593132
637.511963	932.722107	8594.000977	5966.062500	65.698433
637.846741	922.394043	8501.940430	5914.496582	65.862816
638.181396	917.564270	8423.104492	5874.968262	66.049927
638.516113	927.966614	8335.500977	5814.336426	65.964859
638.850769	927.075012	8253.026367	5773.470215	66.153801
639.185303	930.121399	8204.432617	5719.080078	65.833839
639.519836	925.886230	8098.625000	5676.207520	66.227440
639.854370	925.291748	8025.660156	5628.728516	66.242149
640.188843	929.824219	7967.109375	5602.500000	66.398842
640.523254	933.019226	7954.031738	5583.701172	66.239479
640.857605	945.056335	7907.963379	5564.010254	66.336571
641.191895	930.567200	7827.791504	5514.748047	66.464142
641.526184	922.839783	7743.829590	5486.587402	66.907410
641.860413	916.821289	7695.234863	5445.274902	66.806984
642.194580	924.771667	7660.685059	5431.603516	66.907509
642.528748	919.570496	7625.763184	5400.098633	66.811806
642.862793	931.681824	7598.642090	5382.414551	66.758049
643.196838	929.972900	7554.208984	5360.569824	66.884644
643.530823	939.037781	7524.859375	5358.786621	67.110062
643.864746	929.155518	7489.343262	5365.696777	67.628265
644.198669	931.904724	7484.810059	5368.074707	67.697754
644.532532	937.848938	7472.921875	5361.164551	67.685783
644.866333	937.180176	7453.825684	5331.369141	67.430229
645.200073	943.495911	7416.303223	5309.449707	67.450699
645.533813	932.722107	7402.705566	5289.759277	67.342323
645.867554	923.880066	7409.541504	5295.629395	67.406380
646.201172	923.805725	7449.738770	5321.560547	67.388908
646.534729	930.790100	7452.116699	5330.477051	67.466133
646.868225	935.471191	7450.259277	5335.084473	67.532715
647.201782	923.285645	7416.748535	5327.653809	67.827728
647.535217	917.118469	7428.562988	5346.377441	68.022675
647.868591	923.954346	7437.925781	5374.910156	68.329376
648.201965	933.167786	7439.113770	5382.191895	68.383972
648.535278	933.316406	7444.463379	5356.780762	67.936790
648.868591	921.502258	7448.921875	5324.161621	67.448692
649.201782	921.205078	7474.779785	5295.777832	66.750938
649.534912	922.616882	7496.550781	5291.245605	66.453796
649.868103	918.232910	7482.952637	5276.311035	66.386353
650.201172	919.867676	7503.607910	5286.861328	66.329979
650.534180	929.304138	7498.259277	5282.477539	66.268883
650.867188	942.752930	7525.304688	5299.344238	66.183929
651.200134	937.254456	7520.178223	5309.226074	66.413826
651.533020	926.406250	7493.355469	5302.539063	66.638748
651.865845	941.786926	7475.671387	5294.514648	66.617760
652.198608	958.133545	7443.052246	5272.818359	66.534134
652.531433	957.687805	7401.219238	5250.527344	66.622467
652.864136	942.009949	7329.740723	5214.267090	66.882233
653.196777	2715.392822	9191.618164	6336.089844	55.907520
653.529358	2799.652344	9184.485352	6345.823730	55.540550
653.861938	2795.491211	9131.359375	6313.130859	55.519459
654.194519	1000.411804	7151.785645	5107.346191	66.764511
654.526978	927.372314	7081.495605	5073.464355	67.370964
654.859375	922.171143	7023.984863	5055.705566	67.742714
655.191833	934.430969	6995.378418	5058.752441	68.047470
655.524170	920.759277	6938.239746	5032.523438	68.330330
655.856445	934.802490	6920.927246	5031.779785	68.441231
656.188660	984.436707	6961.421875	5111.729980	69.053093
656.520874	996.845215	6957.037598	5141.302246	69.535622
656.853088	990.826721	6998.572754	5200.968262	70.078552
657.185181	932.796387	6961.644531	5187.519043	70.572731
657.517212	924.697327	7048.207031	5262.638672	70.840767
657.849243	931.904785	7117.309082	5361.386719	71.611839
658.181274	943.793152	7242.063965	5501.521973	72.364761
658.513123	940.523743	7336.873535	5620.035156	73.159088
658.844971	936.660095	7454.644043	5735.501465	73.624626
659.176819	930.121399	7543.806641	5800.813965	73.645668
659.508667	930.047180	7615.880371	5832.763672	73.329926
659.840393	930.270020	7656.970215	5821.617676	72.715408
660.172058	932.276184	7670.789551	5770.349609	71.797340
660.503662	941.638367	7651.396973	5679.700684	70.614502
660.835266	942.455750	7607.781250	5542.462891	69.013992
661.166931	938.591980	7500.933594	5402.773438	68.027267
661.498413	935.025452	7393.937500	5287.678711	67.389885
661.829773	938.740540	7264.725098	5171.320801	66.907852
662.161194	951.817871	7169.915527	5075.915527	66.324104
662.492615	944.090332	7048.281250	4976.350098	66.057236
662.823975	948.622803	6941.285156	4918.988770	66.253792
663.155212	933.687988	6811.775879	4857.466309	66.752632
663.486450	934.505310	6694.525879	4800.772949	67.122459
663.817627	931.979004	6578.763184	4754.630859	67.696083
664.148743	936.288574	6482.392090	4705.739746	67.965759
664.479858	939.706543	6409.798340	4676.093262	68.305740
664.810913	932.573425	6342.628906	4650.087402	68.714890
665.141907	930.418640	6280.585938	4652.687500	69.572937
665.472778	932.722107	6243.509277	4638.421875	69.776848
665.803711	957.985046	6224.636719	4639.461426	69.901649
666.134583	957.613464	6197.070313	4639.016113	70.263054
666.465454	973.365540	6154.346191	4655.659668	71.073311
666.796143	943.495911	6109.986816	4628.019043	71.315781
667.126831	953.972656	6112.438965	4610.409668	70.882248
667.457458	944.387634	6104.935059	4602.384766	70.883896
667.788147	948.474304	6101.441895	4608.626465	71.029984
668.118774	948.771423	6089.479980	4620.886230	71.432076
668.449219	950.183105	6094.234863	4626.384766	71.465096
668.779663	955.978821	6094.532715	4656.551270	72.015839
669.110107	935.248352	6083.164063	4646.669434	72.095612
669.440552	934.356689	6072.314941	4643.028320	72.181824
669.770874	919.570496	6058.123535	4596.886719	71.563263
670.101135	926.926453	6030.408691	4569.320313	71.370750
670.431396	917.044250	5989.244629	4527.339355	71.178085
670.761597	915.409607	5926.682129	4488.775879	71.306564
671.091797	913.031921	5902.682129	4473.172363	71.350494
671.421875	906.790466	5866.274902	4454.819824	71.540283
671.751892	914.220703	5856.466309	4460.392578	71.752235
672.081909	923.434265	5809.209473	4430.300293	71.777061
672.411865	931.161682	5782.535156	4407.562988	71.658089
672.741821	920.536438	5738.473145	4364.689941	71.486069
673.071716	911.768555	5729.037109	4353.916016	71.454338
673.401550	908.276367	5700.133301	4334.597656	71.502998
673.731262	912.511719	5682.300781	4318.622559	71.410095
674.060974	909.985413	5623.453125	4281.248535	71.524055
674.390625	920.387756	5607.552246	4272.629395	71.519608
674.720276	923.211243	5567.726074	4280.505371	72.285149
675.049927	933.985168	5552.345215	4290.610840	72.680038
675.379395	928.412415	5531.169434	4271.291504	72.627762
675.708923	935.768494	5501.894043	4239.267578	72.347969
676.038330	931.087402	5486.587402	4222.771973	72.257370
676.367737	930.047119	5453.299805	4224.109863	72.825081
676.697083	944.684875	5459.615234	4252.344727	73.260490
677.026428	946.245178	5445.795410	4253.979004	73.512543
677.355652	939.929504	5452.333984	4251.378906	73.385475
677.684875	934.653992	5477.671387	4278.944824	73.613861
678.013977	924.920227	5487.033203	4309.482910	74.188492
678.343079	933.687927	5512.444824	4360.604004	74.843811
678.672180	921.725281	5519.131348	4364.170410	74.877983
679.001221	923.805664	5576.865234	4403.550293	74.784012
679.330139	921.056458	5634.523926	4451.921387	74.910141
679.659058	914.220703	5695.080566	4517.011230	75.358627
679.987976	920.164856	5747.538574	4567.982422	75.565262
680.316772	921.502380	5779.710938	4603.573730	75.790718
680.645630	921.056458	5805.643066	4635.003418	76.034012
680.974304	909.688171	5817.011719	4622.000977	75.648415
681.302979	902.257996	5815.822754	4580.020020	74.849159
681.631653	907.013367	5804.751953	4520.503418	73.778740
681.960266	925.514709	5807.427246	4488.181641	72.976868
682.288757	936.883057	5788.404785	4452.293457	72.459961
682.617249	933.390808	5762.027344	4409.420898	71.987816
682.945679	930.790222	5693.520996	4356.294434	71.923111
683.274109	933.242188	5627.836426	4324.418457	72.235771
683.602478	942.604309	5533.100098	4244.840332	71.936371
683.930725	936.511536	5437.918457	4167.044922	71.767197
684.259033	925.068848	5349.572754	4088.432617	71.496460
684.587280	917.935852	5289.164551	4041.102295	71.448257
684.915344	924.325867	5241.091309	4027.727539	71.891823
685.243469	934.430969	5213.524902	4004.396484	71.743362
685.571533	940.078064	5184.249512	4003.356445	72.176125
685.899536	939.334961	5172.286621	3988.644531	72.037430
686.227539	919.867676	5123.023926	3968.731201	72.537476
686.555420	913.031921	5112.026855	3975.938232	72.943794
686.883301	911.397156	5106.454590	3977.424561	73.086655
687.211121	920.387878	5151.036133	4004.916748	72.909126
687.538940	928.783997	5186.701660	4013.238525	72.440453
687.866638	922.245422	5204.979980	4007.219971	72.032829
688.194336	917.712891	5183.729004	3984.260498	71.883171
688.521973	909.836853	5149.327637	3954.316406	71.812386
688.849609	913.700500	5107.643066	3943.542236	72.243286
689.177063	919.273254	5093.971191	3930.242188	72.124237
689.504578	924.028625	5036.684082	3887.889893	72.066856
689.832031	920.462097	4960.672363	3838.478516	72.224373
690.159485	921.353699	4872.549316	3788.696045	72.568977
690.486816	918.158691	4817.714355	3755.556641	72.762085
690.814087	942.827332	4792.451172	3755.556641	73.065041
691.141296	951.297852	4733.528809	3735.346436	73.608635
691.468506	948.548523	4682.854004	3704.956299	73.813133
691.795715	921.873779	4618.285645	3651.309814	73.840149
692.122803	911.025635	4576.304688	3621.589111	73.952446
692.449829	905.898743	4540.787598	3602.864502	74.196648
692.776855	907.013367	4500.738281	3571.137451	74.132668
693.103821	900.103210	4477.185059	3555.533936	74.234550
693.430664	901.812073	4440.924805	3532.946045	74.344452
693.757568	901.886414	4422.051758	3524.921143	74.514534
694.084351	907.087585	4401.767578	3503.150391	74.286140
694.411133	918.530273	4380.219238	3505.973877	74.745117
694.737854	922.839844	4364.393066	3493.490967	74.694504
695.064575	919.496277	4353.693359	3500.624268	75.159576
695.391174	914.740784	4346.263184	3506.717041	75.534294
695.717773	909.242432	4340.393066	3524.921143	76.233284
696.044250	914.146423	4341.953613	3550.852539	76.921074
696.370789	910.282654	4366.102051	3587.260986	77.462914
696.697205	917.787170	4419.302734	3643.953857	77.856766
697.023621	916.524109	4470.052246	3711.792236	78.661766
697.349915	935.619873	4550.298340	3816.039063	79.686737
697.676208	925.291809	4630.545410	3929.796631	81.087700
698.002380	927.075012	4766.965332	4060.569336	81.603745
698.328674	906.418762	4903.459473	4183.837402	81.996132
698.654724	910.876953	5045.005859	4308.443359	82.183372
698.980896	911.025635	5151.185059	4381.111328	81.838570
699.306946	929.155518	5207.357422	4376.727539	80.584595
699.632935	935.248291	5210.478027	4320.257324	79.177246
699.958862	939.112061	5177.339355	4223.440918	77.492981
700.284729	920.610657	5096.200684	4122.091797	76.671349
700.610596	919.644775	5018.479980	3989.461670	74.894867
700.936340	918.678772	4886.815430	3866.565186	74.288933
701.262146	919.421875	4754.779785	3727.916260	73.226395
701.587830	917.192810	4618.954590	3625.229736	73.155350
701.913513	911.917297	4491.376465	3526.555664	73.045624
702.239075	914.146301	4385.197754	3452.772705	73.137100
702.564697	914.294922	4277.013184	3385.232178	73.480354
702.890137	913.626221	4187.850098	3328.241943	73.746201
703.215698	910.579834	4122.018066	3290.199219	74.098244
703.541016	903.000977	4043.702393	3232.688477	74.177299
703.866455	906.864685	3992.062256	3192.565186	74.086029
704.191711	920.759277	3955.133789	3159.351563	73.774422
704.517029	922.468262	3928.905029	3150.509766	74.109039
704.842163	927.298035	3919.988525	3147.463623	74.186272
705.167419	922.542542	3908.620361	3142.336182	74.338104
705.492493	930.641541	3916.125000	3144.045166	74.138870
705.817566	923.359863	3922.143799	3134.088623	73.720840
706.142578	920.164978	3931.431396	3127.550049	73.304207
706.467590	923.582825	3958.403320	3124.578125	72.524727
706.792480	932.424805	3971.108643	3120.862549	72.019264
707.117371	935.545593	3996.000000	3121.828857	71.436554
707.442200	947.136719	4030.625244	3144.045654	71.247513
707.766907	940.821106	4055.071045	3148.280518	70.882538
708.091675	946.245178	4075.578369	3134.237549	69.918808
708.416321	930.047180	4063.392822	3102.361572	69.328911
708.741028	936.437195	4077.807617	3121.828857	69.568100
709.065552	928.932617	4084.271729	3156.305420	70.590599
709.390137	929.229919	4072.903564	3176.738525	71.493065
709.714600	932.053284	4057.820068	3184.466064	72.059525
710.039063	938.146179	4042.587891	3209.431641	73.162445
710.363403	950.777588	4075.058350	3255.721924	73.775200
710.687744	943.718933	4107.900391	3289.752930	74.143471
711.012085	937.477356	4140.816406	3298.594971	73.708015
711.336304	933.836609	4171.354980	3308.551758	73.349861
711.660461	930.864441	4175.738281	3302.458984	73.087418
711.984619	933.316467	4183.391602	3297.926514	72.755554
712.308716	916.598450	4165.410645	3263.152588	72.228065
712.632751	914.369324	4150.772949	3239.004150	71.827713
712.956726	921.056458	4121.720703	3218.942383	71.794029
713.280701	930.195801	4060.420898	3211.363525	72.875519
713.604553	949.068665	4008.854492	3195.388672	73.414291
713.928467	947.879883	3938.341064	3180.676758	74.663963
714.252258	947.136780	3871.320313	3149.692139	75.322060
714.575989	940.003723	3812.621094	3138.695313	76.539658
714.899719	931.904785	3766.999268	3114.770264	76.994453
715.223267	929.675720	3746.491455	3123.315186	77.876572
715.546936	931.533203	3728.584717	3120.863037	78.272774
715.870422	924.400146	3716.102295	3122.943359	78.752785
716.193970	921.502380	3687.867188	3111.129150	79.151772
716.517395	917.267090	3659.260498	3086.906494	79.126350
716.840820	918.678772	3604.127686	3064.913086	79.920876
717.164124	922.616882	3579.012939	3028.356201	79.270531
717.487488	922.616882	3545.948486	3004.356201	79.354790
717.810730	923.359863	3528.190186	2959.403076	78.164139
718.133972	919.198914	3478.110352	2915.713135	78.022011
718.457092	912.214539	3428.550537	2866.227295	77.653091
718.780212	908.945129	3380.847900	2849.955078	78.522911
719.103210	907.756348	3332.105469	2813.992432	78.628777
719.426208	905.155762	3281.133789	2781.076904	78.953644
719.749207	928.412598	3250.372314	2765.472900	79.116806
720.072083	934.356689	3219.982666	2746.526123	79.285477
720.394958	937.105957	3195.165771	2733.299805	79.545891
720.717773	915.260925	3144.194092	2684.334229	79.368614
721.040527	907.682068	3127.327148	2666.353027	79.232079
721.363281	909.242371	3106.076416	2651.195313	79.293785
721.685913	924.623047	3108.751221	2643.170654	78.683456
722.008545	938.517639	3069.891357	2623.257568	79.044792
722.331055	935.248352	3041.507568	2600.298096	79.052460
722.653503	917.861511	3011.860596	2572.137451	79.000793
722.976013	916.078308	3017.730713	2577.561523	79.056046
723.298401	925.811951	3025.012451	2584.248779	79.003258
723.620789	926.257751	3004.430420	2598.217773	80.453377
723.943115	918.381653	2990.461670	2598.069092	81.062866
724.265381	905.898743	2977.904297	2592.273438	81.388519
724.587585	907.533508	2990.981689	2598.663330	81.169754
724.909790	905.007141	2991.279053	2601.412354	81.312759
725.231873	913.403381	2981.619385	2618.576416	82.446564
725.553894	937.180237	2979.687500	2635.368896	83.142357
725.875916	1515.403931	3505.379639	3034.077393	76.316177
726.197937	1547.651367	3538.592773	3044.108398	75.163292
726.519775	1529.967407	3541.713623	3037.941162	74.958450
726.841675	949.514465	3028.133545	2655.950684	82.094704
727.163513	921.130859	3007.031250	2647.257080	82.752090
727.485291	916.969910	3018.250977	2666.130127	83.242561
727.806946	932.796387	3060.603516	2687.826416	82.480690
728.128662	930.418701	3083.265625	2704.321777	82.398010
728.450256	933.242188	3106.968506	2701.498291	81.346771
728.771790	931.087402	3089.507080	2689.461182	81.465797
729.093323	917.787170	3091.216064	2686.860596	81.395508
729.414795	924.028564	3089.061279	2689.238281	81.532707
729.736145	911.025696	3089.507080	2687.455078	81.544395
730.057495	914.369324	3075.538330	2679.727783	81.685349
730.378845	908.945251	3069.965576	2668.433350	81.419319
730.700134	911.545837	3076.132813	2672.520264	81.353828
731.021301	915.558167	3097.606201	2700.606689	81.806107
731.342468	918.307373	3111.575195	2735.380127	82.847740
731.663574	925.217529	3121.011475	2751.355469	83.165268
731.984680	926.183411	3144.862549	2737.460938	81.637650
732.305664	916.152527	3150.361084	2732.333984	81.289703
732.626648	910.877014	3156.305420	2735.009033	81.237595
732.947571	904.264160	3142.261963	2735.529053	81.826035
733.268433	906.790466	3131.488281	2721.411377	81.567070
733.589233	901.514954	3106.893799	2699.120850	81.510071
733.909973	917.192871	3103.847656	2695.479736	81.324539
734.230713	935.768494	3097.680420	2676.309570	80.509338
734.551331	936.362976	3063.798096	2650.303711	80.563713
734.871948	926.406311	3007.179688	2615.381592	81.170555
735.192505	918.010071	2955.985107	2586.626221	81.876183
735.513062	920.164856	2928.864502	2562.849365	81.778503
735.833435	929.675598	2896.840088	2529.710693	81.337128
736.153931	921.948181	2865.261475	2491.890381	80.786880
736.474304	930.492981	2838.661133	2467.519287	80.549835
736.794617	930.047119	2833.385742	2470.342529	80.925980
737.114807	945.427917	2836.729248	2481.116211	81.197441
737.434998	940.375244	2831.230713	2479.704834	81.409164
737.755188	937.477478	2824.097900	2480.819092	81.804565
738.075256	926.480652	2800.766846	2484.385742	83.119911
738.395325	917.935852	2802.327393	2492.930420	83.581070
738.715271	928.338196	2819.119385	2506.973877	83.491188
739.035278	925.068848	2830.264893	2518.788086	83.651192
739.355164	926.332031	2826.846924	2526.143799	84.177811
739.675049	915.186707	2813.546875	2508.905762	83.952408
739.994873	920.387878	2824.692383	2504.967773	83.210426
740.314636	927.000732	2826.326904	2485.723145	82.067123
740.634277	925.514648	2820.531250	2466.924561	81.340179
740.953979	915.558105	2782.710938	2422.566162	80.711555
741.273499	916.969910	2756.259521	2403.692871	80.831367
741.593140	923.211243	2717.399170	2388.832275	81.687157
741.912598	922.393860	2693.993896	2378.504150	82.191818
742.232117	920.462097	2669.028320	2362.083252	82.445900
742.551453	906.938965	2650.229492	2335.854736	81.966591
742.870850	921.576660	2639.678467	2324.857666	81.676247
743.190063	922.319641	2613.152344	2301.378174	81.560913
743.509338	928.932617	2586.106201	2281.465088	81.616829
743.828552	921.502380	2559.951904	2264.449951	81.964539
744.147705	915.706726	2543.827881	2259.248291	82.520981
744.466797	922.542664	2525.995117	2254.790283	83.086197
744.785828	933.985168	2514.924316	2255.830566	83.611404
745.104858	944.090332	2516.558838	2242.456299	82.568649
745.423706	943.644531	2521.760254	2229.081787	81.453926
745.742615	942.307129	2517.376221	2222.542969	81.281250
746.061401	951.372009	2516.038818	2229.230225	81.669670
746.380249	944.981995	2492.038818	2228.264404	82.949921
746.698975	940.449524	2481.339355	2215.187256	82.727379
747.017639	928.783997	2463.878174	2196.611572	82.589561
747.336304	932.276184	2456.076416	2188.215088	82.421494
747.654907	938.443359	2451.766846	2189.255615	82.653328
747.973389	941.266846	2451.098145	2201.515381	83.469490
748.291931	940.226563	2449.463623	2211.694824	84.245766
748.610352	933.242188	2439.209717	2200.921143	84.177048
748.928711	934.430969	2433.265625	2207.236572	84.919678
749.247070	940.895325	2460.683350	2225.440674	84.521347
749.565308	934.208008	2465.661865	2230.716309	84.658661
749.883545	930.418640	2461.797607	2220.239502	84.226105
750.201782	923.657043	2443.444824	2198.468994	83.880920
750.519836	931.681824	2442.627441	2192.450439	83.442352
750.837952	933.910889	2435.420166	2183.237061	83.204689
751.155884	934.059509	2414.689697	2180.487549	84.182266
751.473877	925.366028	2399.829346	2175.286377	84.771210
751.791809	912.585999	2384.820068	2171.422607	85.505196
752.109619	909.465332	2383.111084	2157.230713	84.672005
752.427490	910.356934	2375.829346	2155.224854	84.946526
752.745300	929.155579	2388.906982	2159.980225	84.317413
753.062988	926.852112	2377.092773	2159.237061	84.977959
753.380615	929.304138	2359.408691	2151.435303	85.457466
753.698303	927.966614	2350.566406	2145.714111	85.600143
754.015808	926.034851	2360.968994	2143.485107	84.843636
754.333374	926.703552	2362.232178	2141.181641	84.601456
754.650757	924.028625	2345.662598	2139.695313	85.511932
754.968262	924.102966	2345.513916	2143.113281	85.760582
755.285583	932.722107	2362.752197	2152.029541	85.264458
755.602905	928.486816	2376.646729	2140.810059	83.714737
755.920105	928.338196	2360.003174	2145.119629	84.990654
756.237305	909.093811	2341.575928	2135.163086	85.590546
756.554443	909.539551	2317.427490	2136.649170	87.159607
756.871582	913.997742	2320.102295	2129.738770	86.461639
757.188599	922.171143	2316.015869	2129.887451	86.646400
757.505615	927.446594	2349.377686	2148.983154	85.906876
757.822510	937.254578	2370.777100	2178.258545	86.570244
758.139465	945.427795	2406.962402	2214.220947	86.812393
758.456238	942.009949	2408.002686	2228.487305	87.754684
758.773010	929.229797	2407.928467	2232.796631	88.156357
759.089783	927.446533	2408.151367	2234.505615	88.272766
759.406433	919.496155	2419.370850	2234.505859	87.674637
759.723145	920.907959	2426.206787	2235.545898	87.334015
760.039673	917.638672	2438.763916	2243.050537	87.133644
760.356201	926.926453	2435.940186	2255.236084	88.025017
760.672668	930.195740	2449.760498	2260.585693	87.550720
760.989136	925.143127	2442.033203	2252.263916	87.489586
761.305481	923.508484	2432.745361	2251.743896	88.007088
761.621826	927.892334	2432.522461	2254.196045	88.148155
761.938049	949.365906	2464.546875	2284.288330	88.103165
762.254333	943.644531	2507.048096	2313.637939	87.628906
762.570496	931.087402	2535.134521	2358.145264	88.966080
762.886597	906.270264	2574.292236	2410.008789	90.151001
763.202637	911.099915	2664.495850	2525.549561	92.075592
763.518677	919.644775	2808.197266	2683.591064	93.402023
763.834656	927.297852	2958.214111	2843.267822	94.340179
764.150574	918.678772	3083.637451	2939.266846	93.331482
764.466370	920.536377	3126.955811	2962.003906	92.524002
764.782288	918.232971	3118.930908	2906.128174	90.330215
765.097961	936.362854	3072.045898	2800.989502	87.308212
765.413696	925.291809	2993.953857	2662.563721	83.980461
765.729309	925.514709	2885.620361	2541.524658	82.445045
766.044861	924.920349	2777.064209	2442.850586	81.955307
766.360474	932.796387	2692.656250	2369.365234	81.629730
766.675903	930.567200	2605.201904	2311.928955	82.487350
766.991394	918.455872	2531.791016	2266.752930	83.572037
767.306763	919.867676	2467.296387	2242.381836	85.465271
767.622131	923.508545	2421.005615	2203.001221	85.442085
767.937378	918.604553	2368.993652	2173.577393	86.526634
768.252625	928.263855	2332.362305	2145.788330	86.712189
768.567810	920.610657	2295.879883	2128.475830	87.827545
768.882996	934.951172	2257.985352	2117.924805	89.413689
769.197998	925.366150	2225.812256	2087.980957	89.401230
769.513062	936.511536	2205.601807	2070.816895	89.379410
769.828064	929.452820	2190.592773	2038.197876	87.916107
770.142944	926.034851	2175.732178	2032.996704	88.578407
770.457825	925.514648	2161.837646	2028.241211	89.194054
770.772705	917.564270	2134.048584	2022.074219	90.795250
771.087402	918.753113	2126.023682	2015.758423	90.866577
771.402100	916.226868	2102.024170	1999.634766	91.365356
771.716736	924.474426	2090.804443	2002.681274	92.444397
772.031372	930.195801	2066.953125	1988.340820	93.084511
772.345947	926.629211	2061.231934	1970.879761	92.036659
772.660461	931.236023	2069.479492	1942.198853	88.817810
772.974854	929.304138	2057.219727	1921.765503	87.990753
773.289246	934.951111	2051.795410	1922.062866	88.384010
773.603638	933.985168	2033.591187	1913.815063	89.107368
773.917908	927.372314	2022.891602	1900.737915	88.849701
774.232178	922.616943	2002.978516	1884.688477	89.050888
774.546265	920.313477	1988.935181	1885.431641	90.314293
774.860474	925.440430	1978.978516	1883.202515	90.909111
775.174561	936.585876	1977.566895	1884.019897	91.013580
775.488586	937.848938	1978.755859	1883.648315	90.863007
775.802551	939.037842	1972.365845	1888.255005	91.860199
776.116516	932.276184	1953.344238	1879.933105	92.810356
776.430359	929.675598	1936.254517	1862.620483	92.684723
776.744202	940.003723	1942.570313	1859.425659	91.706818
777.057922	934.876892	1944.799316	1854.967407	91.105072
777.371704	933.985168	1944.130737	1852.589844	90.937851
777.685303	922.245422	1928.824219	1841.964478	91.370796
777.998962	922.839844	1924.737793	1833.716797	90.915146
778.312500	924.102966	1913.295044	1823.611816	90.933693
778.626038	923.062683	1898.954712	1821.680054	92.081642
778.939453	925.514648	1904.824585	1833.865601	92.754189
779.252869	939.260681	1923.920288	1853.258423	92.823723
779.566223	943.124329	1926.446655	1846.051147	91.824097
779.879578	936.362854	1924.440430	1839.140991	91.367134
780.192749	922.245422	1908.613892	1826.732422	91.698692
780.505920	911.917297	1908.836914	1823.983276	91.488419
780.819031	912.214539	1889.889648	1810.534546	91.883286
781.132141	957.019043	1933.282593	1856.305054	92.115089
781.445190	961.625793	1933.133911	1859.500000	92.420662
781.758118	972.176819	1943.462036	1870.645508	92.503075
782.071045	925.960510	1882.385132	1804.887329	91.897133
782.383911	922.096741	1867.598755	1782.299438	90.978409
782.696838	911.768738	1846.942749	1763.277832	91.053543
783.009583	916.078308	1843.896484	1762.906372	91.270905
783.322266	917.712891	1826.212280	1762.237671	92.958214
783.634888	915.186584	1819.822266	1755.104614	92.846001
783.947510	900.623230	1806.819336	1748.194458	93.530663
784.260132	897.131042	1801.320923	1747.302856	94.025803
784.572571	897.948303	1788.540894	1739.352417	94.476883
784.885010	910.505554	1774.794922	1733.928345	95.271652
785.197449	924.102844	1783.042358	1729.841797	93.806252
785.509766	935.917053	1787.351929	1728.058472	93.036057
785.822083	932.721985	1779.029907	1721.371094	93.187019
786.134277	931.013000	1760.974487	1717.135864	94.717995
786.446533	930.641602	1751.092163	1716.987305	95.843155
786.758606	947.954102	1759.414063	1731.550659	96.566261
787.070740	948.474182	1769.593628	1731.996460	95.421234
787.382690	936.882996	1770.262329	1737.717773	96.094872
787.694641	912.734558	1778.286987	1746.634155	96.343048
788.006653	901.663574	1793.964844	1773.308716	97.685074
788.318481	912.065918	1830.670410	1806.076172	97.322655
788.630310	912.363220	1859.128418	1821.902710	96.068115
788.942017	908.945251	1867.598999	1827.178223	95.783592
789.253784	909.019531	1876.663696	1838.769531	96.083878
789.565430	915.558105	1879.264526	1841.741577	96.106392
789.877014	922.914063	1879.561646	1837.432007	95.596115
790.188538	918.455872	1860.168579	1803.104126	93.940353
790.500061	917.935791	1827.252563	1766.993164	93.373116
790.811462	920.610657	1801.989624	1752.652710	94.402306
791.122925	929.081238	1791.215820	1748.640259	95.061607
791.434204	929.452637	1786.683228	1739.203735	94.461296
791.745483	928.783997	1776.429565	1729.841675	94.503845
792.056702	914.294983	1748.788940	1698.783081	94.007645
792.367920	916.152588	1731.030640	1694.399048	95.504654
792.678955	911.397156	1713.272095	1675.674805	95.311325
792.990112	917.341370	1705.173218	1682.733765	97.151749
793.301086	914.815125	1694.473633	1675.303345	97.541191
793.612122	927.818115	1704.281616	1671.959961	95.837326
793.922974	924.400208	1699.228882	1654.424438	94.217506
794.233826	923.434265	1707.773804	1644.170532	91.890846
794.544556	918.307312	1703.241211	1638.003540	91.688766
794.855286	921.279480	1698.783203	1646.325562	93.253067
795.166016	930.864502	1702.052368	1662.449097	94.864639
795.476624	924.548767	1694.993774	1672.702759	97.106735
795.787292	916.003906	1709.854126	1688.083496	97.257591
796.097778	904.189758	1718.176147	1688.900879	96.403473
796.408264	904.784241	1740.095337	1702.498169	95.499023
796.718689	913.031921	1764.689819	1715.575562	94.233101
797.029053	918.976135	1765.135376	1739.723999	96.996857
797.339355	921.428040	1764.095337	1743.513306	97.557510
797.649658	927.223633	1745.073853	1742.324585	99.663841
797.959839	920.016357	1736.306030	1713.792358	97.241951
798.270020	920.387878	1726.349487	1700.566406	96.800957
798.580078	925.737610	1732.739380	1690.907104	94.816338
798.890137	929.527039	1719.885132	1689.049316	96.098503
799.200195	929.898621	1711.265991	1673.223022	95.131233
799.510071	921.428040	1684.442749	1650.412109	95.539978
799.820007	918.753113	1676.343628	1633.768188	94.380150
800.129883	912.660339	1665.495483	1627.601074	94.966438
800.439575	907.310547	1669.359253	1629.532837	94.773773
800.749329	909.093750	1663.637817	1631.910645	95.795189
801.058960	907.904968	1653.607056	1635.180054	97.528908
801.368591	908.127869	1638.820801	1630.053101	98.800087
801.678162	912.065857	1635.848633	1624.183228	98.388275
801.987671	916.301086	1624.257446	1614.300903	98.593620
802.297119	920.982239	1616.232788	1610.288452	99.145012
802.606506	913.180481	1595.873901	1604.567261	101.273392
802.915894	910.654114	1595.650879	1585.397095	98.503090
803.225159	901.812073	1585.397095	1571.576782	97.978256
803.534424	905.230042	1597.137085	1562.883423	95.049385
803.843628	901.366272	1596.468140	1570.685181	96.290764
804.152771	914.146301	1607.464966	1582.573608	96.409828
804.461792	924.251465	1616.604126	1599.737671	97.563896
804.770874	929.898621	1621.508301	1605.682007	97.711670
805.079773	921.873840	1617.421509	1606.722168	98.461739
805.388733	914.666504	1606.127563	1604.121582	99.709892
805.697571	913.626221	1606.276367	1616.009888	101.405258
806.006470	914.517883	1624.331909	1620.096680	99.403336
806.315125	909.465332	1640.752563	1625.520630	97.917107
806.623901	903.075256	1648.554321	1623.217285	96.601242
806.932495	898.171326	1641.718384	1621.954102	97.341888
807.241150	904.932861	1634.288208	1614.746704	97.320717
807.549622	915.706787	1617.198853	1608.579590	98.771294
807.858154	921.799622	1607.019409	1599.217407	98.861389
808.166565	919.496277	1595.428101	1589.335083	99.098572
808.474915	915.855408	1599.960327	1580.047241	97.089180
808.783264	920.239197	1597.211304	1575.737793	96.828003
809.091492	920.313477	1577.818237	1562.883423	97.728561
809.399719	914.666504	1561.174438	1555.898926	99.183998
809.707825	904.487000	1557.162109	1544.084839	97.996361
810.015930	897.279602	1564.072266	1552.629517	98.283913
810.323975	908.425110	1572.319946	1556.418945	97.604889
810.632080	912.660339	1548.022949	1553.818481	100.912163
810.939880	911.694397	1530.636108	1539.775269	101.476578
811.247864	908.647949	1520.753906	1521.199585	100.072807
811.555664	903.149597	1517.410156	1509.757202	98.754120
811.863464	914.517883	1519.639282	1501.138062	96.942558
812.171143	907.013367	1500.320679	1491.924316	98.584824
812.478882	918.530273	1496.754028	1488.877930	98.637878
812.786438	927.595215	1501.435181	1506.487671	100.880470
813.094055	931.161682	1505.298828	1522.537109	103.002464
813.401489	921.873840	1507.973633	1506.933472	99.822525
813.708984	904.487000	1491.106934	1481.596313	98.378746
814.016357	919.867676	1498.091431	1478.401367	96.594734
814.323730	934.876892	1500.023438	1495.565063	99.211113
814.630981	933.836609	1504.035645	1488.877930	97.341682
814.938232	928.486816	1494.747925	1479.961548	97.388771
815.245361	914.072021	1481.224731	1465.992676	97.314293
815.552490	917.341370	1487.466187	1475.503418	97.901726
815.859619	913.477600	1487.912109	1473.868774	97.555275
816.166565	916.449707	1500.394897	1490.958496	98.384026
816.473572	915.186584	1496.456665	1493.484741	99.488716
816.780457	910.802734	1490.809937	1499.800415	101.550064
817.087341	907.756348	1489.175171	1497.422729	101.418526
817.394043	907.087646	1494.599243	1503.144043	101.454407
817.700806	909.168152	1495.267944	1504.778809	101.622742
818.007507	908.870911	1513.323608	1504.927246	98.610916
818.314209	910.951355	1513.100586	1508.716797	99.271973
818.620667	905.750183	1529.670288	1517.038574	97.975426
818.927246	902.332214	1524.320313	1526.400757	100.334480
819.233704	899.805908	1549.063110	1550.400757	100.206024
819.540161	898.691406	1578.784180	1586.734741	101.169044
819.846497	911.694397	1620.691040	1648.405884	103.909019
820.152832	913.403381	1664.232422	1697.296875	104.403725
820.458984	916.598328	1724.046265	1748.937378	103.082687
820.765259	908.127869	1785.494507	1800.651978	101.727608
821.071350	913.180420	1863.140991	1880.824707	101.861519
821.377502	902.480774	1960.254395	2007.510864	104.467529
821.683472	908.127869	2167.856201	2270.096924	108.116096
821.989441	906.344543	2538.180908	2751.578369	113.077133
822.295349	907.682068	3145.531250	3476.401367	114.785187
822.601196	909.985413	3918.576904	4372.343750	115.082367
822.907043	912.957520	4671.040527	5180.757813	113.563225
823.212769	919.124695	5158.243652	5667.291504	112.008339
823.518494	929.452698	5283.220703	5639.799316	108.190117
823.824097	916.003906	5040.250488	5196.137695	103.779778
824.129700	914.666504	4609.295410	4527.190918	97.777733
824.435242	900.177429	4088.507080	3848.583252	92.474937
824.740723	905.378723	3635.557861	3298.372070	87.649681
825.046082	897.799805	3259.437500	2881.459717	83.995102
825.351501	894.604797	2959.774658	2583.802734	81.794624
825.656799	891.186829	2725.572510	2371.519775	80.699112
825.962036	896.833801	2524.806396	2250.852295	83.172073
826.267212	910.802734	2394.256592	2219.051025	88.189346
826.572449	924.028625	2328.127197	2237.552002	93.549225
826.877502	928.486816	2364.089844	2335.037354	97.976288
827.182495	936.214294	2503.630127	2512.843750	100.587822
827.487488	936.660095	2669.399414	2740.210205	104.086639
827.792419	938.220459	2829.150391	2921.954346	104.907845
828.097290	915.781067	2868.902344	2968.468018	105.097771
828.402100	910.431335	2834.574463	2886.809326	102.714706
828.706848	919.198975	2687.380859	2686.637695	99.957970
829.011597	922.022522	2506.453857	2426.652588	94.963409
829.316223	910.208313	2294.393799	2176.698242	91.497124
829.620789	904.264160	2136.723389	1979.870483	87.273178
829.925354	910.356934	2010.260132	1854.670288	85.854225
830.229797	931.013184	1920.056641	1757.036499	83.517395
830.534302	954.046936	1841.741577	1693.730591	83.326363
830.838562	942.752930	1743.736328	1627.526733	85.491638
831.142944	928.561096	1668.318970	1584.653931	88.690216
831.447144	903.446777	1593.644897	1537.917603	91.925896
831.751404	905.378662	1570.165039	1515.552734	91.784981
832.055542	913.180420	1549.360352	1513.769165	94.405487
832.359619	909.985352	1538.363647	1514.215210	96.157021
832.663635	922.319641	1542.821655	1532.567993	98.347519
832.967651	916.895569	1568.901978	1560.654297	98.735031
833.271545	915.260925	1616.455688	1639.340942	103.263748
833.575439	903.446777	1695.365234	1757.185059	107.806335
833.879211	900.103210	1820.119507	1910.397461	109.812645
834.183044	902.926697	1968.353516	2061.826172	108.773262
834.486694	896.685242	2095.262451	2170.828369	106.304634
834.790344	920.462158	2173.428955	2215.781494	103.380180
835.093933	920.387878	2166.072998	2171.497070	100.435432
835.397522	930.641602	2088.129639	2075.126221	98.876579
835.700928	902.555176	1971.177124	1934.322754	96.551224
836.004395	919.124695	1876.218140	1828.515625	95.015900
836.307739	918.307373	1787.129272	1716.318481	91.849792
836.611023	921.279480	1716.764282	1636.591797	89.921555
836.914307	907.459167	1640.827026	1550.846313	87.730484
837.217529	920.016296	1601.297974	1506.562012	86.094452
837.520691	926.926453	1546.313843	1454.624390	85.196754
837.823730	919.198975	1491.775757	1415.986938	86.763557
838.126831	909.539612	1429.955688	1383.368164	91.048027
838.429749	908.870911	1397.931274	1370.290894	94.348267
838.732727	918.753235	1381.287476	1354.390015	94.184761
839.035522	916.003967	1369.622070	1349.560181	95.577362
839.338379	916.672668	1355.578857	1337.746216	95.937027
839.641113	910.431335	1357.436401	1357.584961	100.033234
839.943848	909.093811	1378.389648	1375.863403	99.461693
840.246460	902.852356	1405.361694	1407.293457	100.384422
840.549072	903.669678	1437.014526	1437.683228	100.125381
840.851563	911.917297	1454.772827	1470.599487	102.915443
841.154053	916.078308	1462.277466	1481.447632	103.509743
841.456482	922.245422	1437.609009	1449.720337	102.350052
841.758850	916.672668	1410.117065	1399.788940	97.906929
842.061157	911.694336	1378.686890	1350.303345	93.922058
842.363403	903.966858	1359.962646	1316.792847	90.532852
842.665588	896.462341	1327.715210	1286.774536	90.506577
842.967712	904.041260	1308.025024	1270.130737	90.619850
843.269775	906.939148	1282.910767	1250.366211	91.343880
843.571777	912.437500	1271.988281	1231.493286	88.737335
843.873840	913.106140	1263.592163	1227.183716	89.612015
844.175659	920.907959	1260.842896	1229.412842	90.754097
844.477600	936.660156	1267.455933	1247.171265	93.867920
844.779297	937.700378	1247.914185	1238.700806	97.029991
845.081116	939.855164	1237.140259	1232.905151	98.575409
845.382751	924.548767	1221.536743	1210.168457	96.172142
845.684387	910.877014	1214.849487	1197.834106	94.402328
845.985962	899.954529	1196.050903	1186.094360	96.637398
846.287537	901.737793	1174.205811	1178.961304	101.745338
846.588989	908.499329	1172.794067	1172.274048	99.803246
846.890381	909.539612	1175.394653	1164.472290	95.891609
847.191711	907.236145	1179.630005	1162.168823	93.589729
847.493042	915.112305	1178.218262	1165.066650	95.001404
847.794250	925.811829	1193.450317	1174.205933	92.809563
848.095459	930.270020	1189.363647	1174.948853	94.436455
848.396606	920.462097	1184.385376	1169.598999	94.397469
848.697693	907.459167	1161.574585	1163.134766	100.613968
848.998657	909.168152	1160.237061	1160.088501	99.940826
849.299622	920.016296	1157.562134	1168.187500	104.472977
849.600464	929.972839	1151.171997	1160.088379	104.030930
849.901367	921.576660	1147.011108	1150.280396	101.450218
850.202087	915.483826	1151.469238	1135.642700	93.293427
850.502808	911.768738	1157.636353	1143.964722	94.439438
850.803467	911.545837	1161.054199	1153.029663	96.783859
851.104065	927.298035	1166.255493	1166.701294	100.186562
851.404663	928.858398	1170.490723	1164.843750	97.662987
851.705139	929.007019	1164.472290	1158.379517	97.412453
852.005615	916.301086	1149.983276	1143.296021	97.138313
852.306030	912.586121	1144.410522	1125.983521	92.051308
852.606384	918.753174	1149.611694	1122.416992	88.220184
852.906616	924.697327	1156.819092	1133.487915	89.948730
853.206909	931.013123	1158.007935	1141.289917	92.635063
853.506958	925.068848	1152.732422	1140.472534	94.614914
853.807129	917.267090	1138.763550	1123.605835	93.156677
854.107178	909.093750	1134.230957	1126.652222	96.633728
854.407166	909.093750	1134.230957	1129.624268	97.953827
854.707092	905.081482	1136.162964	1131.258911	97.877785
855.007019	901.737793	1134.008179	1120.707886	94.273788
855.306763	910.951355	1127.246582	1117.810181	95.637260
855.606567	909.911133	1120.262085	1108.745239	94.524940
855.906250	908.945251	1110.305542	1109.933960	99.815468
856.205933	900.177429	1110.082642	1104.509888	97.345108
856.505493	905.824463	1115.655273	1106.516113	95.644508
856.805054	916.969788	1124.274414	1116.844238	96.415817
857.104492	923.434265	1125.389038	1118.924683	96.799110
857.403931	922.096741	1119.073242	1123.828735	102.414246
857.703308	912.288757	1120.782104	1110.825684	95.224586
858.002563	906.493164	1123.011353	1107.853516	92.999275
858.301819	909.911133	1129.327026	1109.190918	90.822861
858.601013	918.307312	1126.652222	1113.723389	93.794502
858.900208	922.245361	1121.525269	1109.933960	94.183403
859.199219	918.381653	1118.924683	1114.540771	97.813980
859.498291	923.137024	1122.491211	1117.215698	97.353699
859.797302	924.102966	1129.772949	1130.367310	100.288986
860.096191	933.019226	1141.958618	1137.723267	97.972931
860.395020	926.257751	1132.224854	1134.453979	101.082275
860.693787	917.489990	1125.983398	1116.918457	95.652168
860.992554	899.805969	1111.642944	1090.095215	89.828156
861.291260	902.480896	1116.844116	1089.797974	87.383034
861.589844	911.025696	1122.119629	1097.822632	88.489960
861.888428	923.582825	1127.543823	1109.562500	91.183937
862.186890	919.347595	1131.110352	1110.156860	90.105202
862.485413	912.511719	1127.469604	1108.373657	91.116425
862.783813	907.013367	1127.395142	1100.051880	87.592773
863.082153	908.499329	1127.395142	1097.748413	86.456238
863.380371	912.437439	1130.441528	1102.578125	87.218864
863.678589	908.350769	1123.902954	1110.379883	93.726311
863.976746	904.338379	1119.296265	1110.751465	96.024895
864.274902	909.836731	1116.026855	1111.494507	97.801857
864.572937	918.010071	1122.342651	1107.704956	92.836342
864.870911	931.161682	1128.138184	1110.751343	91.173141
865.168884	915.855286	1124.943237	1096.113770	86.211800
865.466736	897.428223	1109.934082	1094.627808	92.797249
865.764587	881.601807	1098.862915	1078.801147	90.766060
866.062317	886.208496	1102.206665	1084.819702	91.950409
866.360107	900.103088	1113.946411	1086.900269	87.352356
866.657715	900.474609	1114.615112	1092.101440	89.486496
866.955322	900.549011	1103.395386	1091.284058	94.029312
867.252808	901.514954	1095.519409	1081.624756	92.837975
867.550293	912.660217	1095.445190	1082.144897	92.723534
867.847717	907.607727	1099.308716	1082.665039	91.317894
868.145081	910.802734	1098.119995	1091.655640	96.548981
868.442383	903.223877	1097.971313	1088.312012	95.040085
868.739624	914.072083	1101.091919	1090.095337	94.120102
869.036804	923.062683	1109.785400	1085.711426	87.107101
869.333984	922.393982	1106.144653	1084.002441	87.949860
869.631042	911.322937	1103.172485	1074.194336	84.895378
869.928101	900.846191	1095.519409	1072.039551	87.938835
870.224976	897.799805	1088.757813	1069.290405	89.805397
870.521851	943.644592	1121.005127	1102.132202	89.359009
870.818726	939.186340	1121.748169	1112.831909	95.116035
871.115479	947.954102	1136.162964	1132.299194	97.947083
871.412231	917.787170	1110.528442	1113.129150	101.349327
871.708862	921.279480	1113.946411	1099.383179	92.441238
872.005493	915.929688	1111.568726	1086.900269	87.390831
872.302063	908.499329	1105.921753	1083.779419	88.784286
872.598572	909.093750	1108.819458	1096.411011	93.787254
872.895020	906.938965	1107.184937	1099.160034	95.992477
873.191406	913.700500	1116.695679	1104.807129	94.143433
873.487671	913.329041	1110.454102	1103.098145	96.268379
873.783997	915.558044	1114.020630	1108.968140	97.454185
874.080200	900.549011	1101.909302	1095.742310	96.937332
874.376343	893.415955	1104.732788	1090.541016	93.284126
874.672424	906.195984	1114.392212	1098.714355	92.469673
874.968445	925.663269	1126.503540	1106.218872	89.900101
875.264465	927.966614	1129.698608	1107.259155	88.876602
875.560364	917.415710	1122.639771	1091.729858	84.938454
875.856201	898.022644	1117.884399	1081.327393	83.372734
876.152039	901.514954	1121.079468	1084.151001	83.181038
876.447754	897.502625	1122.713989	1078.652466	80.435478
876.743469	910.505554	1137.871826	1097.302612	82.156891
877.039063	899.285828	1130.441528	1094.404785	84.410187
877.334595	903.595398	1123.382813	1093.587524	86.443588
877.630127	898.245605	1108.522339	1081.550415	87.173126
877.925537	909.836853	1117.735840	1082.887817	83.237999
878.221008	905.601563	1121.822388	1087.791626	84.261108
878.516296	898.245605	1111.122925	1090.020874	90.087227
878.811646	894.753418	1113.723511	1089.872192	89.107498
879.106812	900.846191	1122.416870	1109.339600	94.097923
879.401978	905.304382	1128.807007	1111.420044	92.220688
879.697083	905.527344	1134.528320	1133.933716	99.740349
879.992126	905.750183	1155.333008	1145.524902	96.070198
880.287109	909.985535	1197.759888	1188.472046	96.772530
880.582031	918.233093	1244.199097	1235.134155	97.219055
880.876892	917.267090	1318.204590	1330.464478	103.057808
881.171753	913.180420	1467.330078	1497.274048	105.403587
881.466492	919.050293	1712.454712	1767.884644	106.986343
881.761230	916.152527	2033.665527	2113.540771	107.147591
882.055786	913.923523	2360.597412	2443.890869	105.757584
882.350403	898.617188	2598.217529	2653.944580	103.278831
882.644958	895.124939	2687.455322	2687.826660	100.020721
882.939453	900.400391	2630.390625	2543.456299	94.974869
883.233826	908.722229	2487.209229	2320.028076	89.408775
883.528137	907.087585	2315.495850	2067.696045	82.405685
883.822449	908.870911	2153.070068	1859.722778	76.422798
884.116577	900.177429	2001.640991	1675.897827	70.426331
884.410828	897.799805	1866.038452	1533.236694	65.628128
884.704956	902.332275	1750.794922	1440.284058	63.403118
884.999023	903.669678	1635.031250	1362.266113	62.704475
885.292969	908.350830	1529.744263	1302.452393	63.422230
885.586914	901.663574	1431.962036	1247.096802	65.139397
885.880798	909.688232	1367.021484	1233.945313	70.901703
886.174622	913.774841	1331.653320	1226.440552	74.822159
886.468384	910.431152	1292.792969	1214.700806	79.576370
886.762085	903.149597	1262.848999	1186.540161	78.785385
887.055664	897.279602	1223.171387	1156.224609	79.457359
887.349304	893.861633	1208.385132	1144.856323	79.801567
887.642822	897.056641	1195.456543	1126.503540	76.892418
887.936340	896.833801	1189.809448	1116.472778	74.968338
888.229736	901.737793	1174.280273	1101.760742	73.391479
888.523071	896.611023	1163.952026	1097.451172	75.125084
888.816284	921.873840	1170.193481	1108.299438	75.074852
889.109619	931.607483	1175.469116	1106.367554	71.663620
889.402710	946.245117	1161.351563	1096.113770	69.671852
889.695862	924.400085	1132.299194	1072.782715	71.372421
889.988892	909.465271	1112.460327	1052.423706	70.424591
890.281921	886.951538	1113.649170	1039.643677	67.354980
>>>>>End Processed Spectral Data<<<<<
