Jaz Data File
++++++++++++++++++++++++++++++++++++
Date: Fri Jun 04 13:51:36 2021
User: jaz
Dark Spectrum Present: Yes
Reference Spectrum Present: Yes
Processed Spectrum Present: Yes
Spectrometers: JAZA3586
Integration Time (usec): 475000 (JAZA3586)
Spectra Averaged: 10 (JAZA3586)
Boxcar Smoothing: 1 (JAZA3586)
Correct for Electrical Dark: No (JAZA3586)
Strobe/Lamp Enabled: Yes (JAZA3586)
Correct for Detector Non-linearity: No (JAZA3586)
Correct for Stray Light: No (JAZA3586)
Number of Pixels in Processed Spectrum: 2048
>>>>>Begin Processed Spectral Data<<<<<
W	D	R	S	P
191.335022	0.000000	0.000000	0.000000	0.000000
191.713211	273.656952	280.864258	279.303925	78.350670
192.091385	560.985596	563.065979	558.459229	-121.437584
192.469528	843.187317	849.131531	844.673340	24.999487
192.847641	854.035583	856.413147	854.778503	31.247112
193.225739	875.731934	879.001221	880.487244	145.454041
193.603790	896.908142	893.341614	894.381836	70.833763
193.981842	915.112305	915.409485	908.127869	-2350.236084
194.359863	913.031738	918.158691	916.969910	76.813095
194.737854	934.430969	942.678650	932.722168	-20.718567
195.115829	926.926453	938.591980	931.161682	36.305511
195.493774	924.102966	937.254578	922.542542	-11.864895
195.871704	908.796570	920.239197	915.706726	60.389595
196.249603	939.409363	938.963440	926.034851	2999.288330
196.627457	941.341125	930.641602	916.969910	227.778503
197.005310	934.802551	933.687988	916.821228	1613.307007
197.383133	922.245422	918.901794	914.963684	217.779556
197.760910	936.734375	944.090393	948.028381	153.534241
198.138687	946.319519	947.434021	948.251404	173.340637
198.516449	936.660095	941.564026	941.638428	101.517189
198.894180	919.941956	925.068848	920.387878	8.697722
199.271866	914.889343	917.267090	919.570496	196.873474
199.649536	913.328918	915.186707	920.462097	383.960846
200.027191	923.211243	920.239258	924.623108	-47.505802
200.404816	913.997742	916.301208	915.706726	74.191841
200.782410	928.041016	934.728271	917.044189	-164.444519
201.159988	926.703552	948.548523	925.960510	-3.401433
201.537537	935.025391	962.888977	941.489746	23.200012
201.915070	923.359863	955.681580	942.604309	59.540298
202.292557	916.003967	945.279236	927.075012	37.817059
202.670029	915.260925	945.130615	927.223633	40.049656
203.047485	915.335266	943.867432	924.920227	33.593529
203.424911	909.911133	948.919983	926.554871	42.666569
203.802292	913.774902	957.019043	924.028625	23.711243
204.179688	908.499329	964.003479	928.115234	35.341331
204.557037	916.598389	964.895203	929.229797	26.153709
204.934357	917.118469	965.786804	930.270081	27.022932
205.311661	917.415588	962.145996	921.353821	8.804374
205.688934	910.356934	959.471008	926.554932	32.980358
206.066177	888.511902	937.774658	917.044250	57.918701
206.443390	887.471680	931.756104	921.130859	76.006813
206.820587	879.372742	928.189514	911.322937	65.449219
207.197769	901.292053	952.932373	922.468262	41.007122
207.574921	909.316711	958.876648	927.743835	37.181492
207.952042	921.353699	953.601135	928.041016	20.737514
208.329147	918.381653	952.783875	924.028625	16.414558
208.706223	1058.368042	1113.203247	1064.237915	10.704570
209.083267	1064.757935	1125.983398	1070.405029	9.223441
209.460297	1063.866333	1125.834839	1069.067505	8.393250
209.837280	922.542480	963.557800	925.068848	6.159570
210.214264	911.322937	956.498962	917.341370	13.322183
210.591217	905.155762	942.009827	907.607727	6.653175
210.968124	912.883240	959.916809	923.137024	21.800991
211.345016	920.685059	967.198486	937.774597	36.741085
211.721893	916.152527	967.347107	938.666260	43.976791
212.098724	905.750183	955.235657	928.635437	46.246407
212.475555	905.155762	958.133606	933.019226	52.594559
212.852356	910.431213	967.347107	942.232849	55.874790
213.229126	914.220703	970.839355	948.697205	60.892479
213.605865	911.322937	961.923035	932.276184	41.409500
213.982590	908.796631	954.344177	929.972900	46.492668
214.359283	898.542908	950.926270	914.220703	29.928961
214.735931	893.118713	953.972656	918.084473	41.025703
215.112579	899.583008	968.313049	922.393982	33.189232
215.489197	904.338440	967.421387	926.777832	35.571251
215.865799	906.567444	965.712585	925.143127	31.406948
216.242355	899.805969	963.929199	919.124695	30.127499
216.618896	903.743958	975.743347	933.242188	40.970112
216.995407	900.325989	979.309814	927.743835	34.713242
217.371902	894.976257	968.535950	924.994629	40.808182
217.748367	890.815247	964.226379	909.019470	24.797634
218.124802	889.403564	957.241882	900.623230	16.538832
218.501236	897.725403	958.653625	892.524231	-8.536556
218.877609	894.530457	955.607239	894.233215	-0.486668
219.253983	894.901917	958.282227	901.886414	11.019979
219.630295	896.016418	955.533020	911.694336	26.342091
220.006592	895.273438	958.579407	920.982239	40.610390
220.382889	903.075195	971.136536	923.211365	29.585325
220.759140	901.440613	979.384216	920.387878	24.308943
221.135391	909.613953	976.560608	910.059753	0.665904
221.511581	898.319885	968.015808	906.939026	12.366778
221.887772	894.456116	972.102539	913.997803	25.167530
222.263931	898.022705	991.941345	931.013123	35.126591
222.640060	913.403320	1015.123779	943.421692	29.510653
223.016159	913.551941	1023.594421	939.632263	23.700232
223.392212	906.641785	1018.393127	932.127625	22.805847
223.768265	897.725403	1009.625305	926.480530	25.697187
224.144302	890.815247	1009.030945	918.901672	23.758627
224.520294	883.905212	1010.071106	906.418884	17.844500
224.896286	895.793640	1026.417847	912.883301	13.083074
225.272217	907.607727	1040.163696	926.703613	14.405905
225.648148	916.672607	1062.008789	937.774658	14.519475
226.024048	899.434387	1060.745605	926.406250	16.720388
226.399902	896.610901	1074.788940	925.737549	16.346935
226.775772	888.957703	1076.200684	924.474426	18.968254
227.151581	893.713135	1108.968262	936.883057	20.055235
227.527374	893.490234	1129.698608	938.963562	19.251362
227.903137	899.434387	1176.360718	950.108948	18.298931
228.278870	907.904968	1230.750366	958.282227	15.604143
228.654572	906.047363	1315.826782	967.570068	15.013616
229.030273	903.298157	1394.662109	971.656738	13.912005
229.405930	894.456238	1473.942993	978.938416	14.578794
229.781555	902.034973	1526.400757	978.864075	12.305142
230.157181	900.920471	1553.298462	969.278992	10.478361
230.532761	899.434387	1529.447266	961.402893	9.836070
230.908325	890.592468	1478.252808	954.566956	10.886303
231.283859	893.787415	1421.782715	963.557617	13.214171
231.659332	895.124939	1381.510620	957.910645	12.908626
232.034821	891.632629	1353.498413	957.836426	14.333990
232.410263	884.573914	1337.300415	945.502136	13.458064
232.785690	880.858826	1309.808350	948.548584	15.780355
233.161087	890.369568	1290.415283	946.468018	14.023009
233.536469	896.090820	1271.245239	949.960266	14.359273
233.911804	903.298157	1275.109009	952.412292	13.209441
234.287140	897.353943	1282.762085	952.783875	14.382138
234.662430	898.096985	1309.956909	962.517395	15.641339
235.037704	896.536621	1321.473877	964.820862	16.069252
235.412933	892.524353	1329.572876	969.204651	17.545031
235.788162	885.465576	1316.421387	954.492737	16.017225
236.163345	890.295227	1326.303589	956.350281	15.149951
236.538513	903.595398	1339.678101	968.684570	14.925878
236.913635	907.013367	1363.009155	977.972351	15.561324
237.288742	908.796570	1377.498169	989.489258	17.216217
237.663834	906.641785	1376.012085	977.898132	15.181265
238.038879	910.877014	1367.615845	984.585388	16.137970
238.413910	905.527283	1354.910034	969.576172	14.252636
238.788910	899.583008	1372.965698	974.926025	15.915879
239.163879	899.285828	1388.049194	976.857910	15.871092
239.538834	898.468506	1407.590820	981.613281	16.331001
239.913757	900.400391	1446.525391	993.353088	17.020407
240.288651	902.034973	1487.391968	997.365417	16.285864
240.663528	902.852356	1542.673218	1008.956604	16.583431
241.038361	895.942200	1590.821289	1017.055603	17.429420
241.413177	895.645020	1686.671875	1034.219604	17.518316
241.787979	885.985657	1796.937012	1041.203979	17.039145
242.162735	884.573914	1931.350586	1050.863403	15.885862
242.537476	871.793762	2042.433228	1052.349487	15.423684
242.912170	891.781250	2170.828369	1084.968384	15.103989
243.286865	898.319885	2226.332520	1094.256226	14.754102
243.661514	905.973145	2232.425293	1102.503784	14.816263
244.036148	902.109375	2152.178223	1087.940552	14.865675
244.410751	909.762512	2054.470215	1079.024170	14.786451
244.785339	909.242371	1965.232788	1062.974731	14.558120
245.159882	903.446777	1925.332031	1061.711548	15.487529
245.534378	900.400391	1950.743530	1070.776489	16.220995
245.908890	900.177490	2049.566162	1091.655640	16.659130
246.283356	894.753418	2210.208740	1111.717285	16.493443
246.657791	884.276672	2434.528564	1137.946167	16.363113
247.032196	891.632629	2687.826660	1183.122192	16.228178
247.406586	887.620300	2915.341797	1207.493530	15.775008
247.780960	896.610901	3066.473389	1228.744019	15.306643
248.155289	889.849365	3106.968018	1218.267456	14.812834
248.529602	896.908203	3012.306641	1202.366699	14.439762
248.903870	899.360168	2826.178467	1176.657959	14.391486
249.278122	898.319885	2611.666260	1134.156616	13.764685
249.652344	896.982422	2435.568848	1110.899902	13.903507
250.026550	903.520996	2293.353516	1091.358398	13.515111
250.400711	923.880066	2194.456543	1116.398315	15.152040
250.774857	926.332031	2123.868896	1114.243530	15.691500
251.148987	907.384827	2093.330566	1109.339722	17.029016
251.523071	884.276672	2084.042725	1095.519287	17.606983
251.897125	899.062927	2141.627197	1118.107422	17.628424
252.271164	899.954590	2196.462891	1132.299194	17.920795
252.645187	900.326111	2255.681885	1137.128906	17.471634
253.019165	874.988831	2255.607666	1120.931030	17.813910
253.393112	898.542786	2255.904785	1132.596313	17.243265
253.767044	892.227051	2177.812744	1114.912354	17.321701
254.140930	908.796570	2096.748291	1104.361328	16.462349
254.514801	903.521057	2008.551147	1081.178955	16.077202
254.888657	912.065918	1965.307007	1082.665039	16.197538
255.262466	905.081360	1944.428101	1079.246948	16.757217
255.636276	912.957520	1958.916992	1094.701904	17.375853
256.010010	919.347473	1992.353149	1098.788574	16.723221
256.383759	927.595154	2030.544922	1109.785522	16.518465
256.757446	919.421875	2072.971680	1109.711060	16.495966
257.131134	919.496277	2134.197021	1127.915283	17.158054
257.504791	912.957520	2227.149658	1140.992554	17.351727
257.878418	903.818359	2327.681396	1159.939819	17.987787
258.252014	902.257996	2479.704834	1193.375977	18.455011
258.625580	908.350769	2656.619873	1245.982300	19.312332
258.999115	900.028809	2886.735107	1292.793091	19.769619
259.372650	894.381836	3172.354492	1344.953613	19.779509
259.746124	884.350891	3488.438477	1378.315430	18.968813
260.119598	890.369446	3794.565674	1413.609253	18.016682
260.493042	894.976257	3980.991455	1419.182007	16.986494
260.866425	897.576843	4016.284912	1411.305786	16.472492
261.239838	904.858582	3859.952148	1372.445435	15.823081
261.613159	910.208313	3581.465576	1319.987793	15.340322
261.986511	902.778015	3278.607422	1272.954224	15.580926
262.359802	889.700745	3034.151367	1242.415894	16.447809
262.733063	881.230225	2881.459229	1232.756470	17.574301
263.106293	886.580078	2788.878174	1228.075317	17.951721
263.479523	907.013245	2748.383545	1229.709961	17.524813
263.852692	910.951355	2708.333984	1223.542847	17.391483
264.225861	912.363037	2661.374756	1221.536743	17.677052
264.598969	907.310547	2632.619629	1225.029053	18.415165
264.972076	904.932800	2637.746582	1235.505737	19.077234
265.345154	911.917236	2690.427490	1250.960693	19.063339
265.718201	905.527283	2737.832764	1243.010254	18.418489
266.091217	926.406250	2836.506592	1275.109009	18.255730
266.464203	931.236023	2934.437500	1289.152222	17.867210
266.837158	926.703430	3036.009033	1318.724609	18.585320
267.210114	899.583008	3100.281006	1309.139526	18.610300
267.583038	894.827637	3147.166016	1311.665894	18.506910
267.955902	898.022705	3184.391846	1312.408936	18.124205
268.328766	907.607727	3183.351563	1311.368652	17.741932
268.701569	896.462219	3169.976807	1316.124023	18.458725
269.074371	889.997986	3168.342529	1314.563599	18.634830
269.447144	888.660461	3211.214844	1329.201294	18.967945
269.819885	890.889648	3273.257813	1344.136108	19.025038
270.192596	899.285828	3384.637451	1380.544556	19.363810
270.565277	927.446594	3532.871826	1429.287109	19.261366
270.937927	927.000732	3728.064697	1462.054688	19.101810
271.310577	926.183411	3937.598389	1493.261719	18.830957
271.683136	892.970032	4148.618652	1513.100586	19.047834
272.055725	895.422058	4301.979004	1527.961060	18.568279
272.428284	896.685242	4338.461426	1527.589478	18.330774
272.800812	909.316711	4269.211426	1517.261353	18.094156
273.173279	914.443542	4137.250000	1514.140747	18.607920
273.545776	909.762451	4032.111328	1498.537476	18.856798
273.918152	915.186584	3932.471436	1474.909058	18.550535
274.290558	908.796570	3850.738525	1445.782349	18.252766
274.662964	911.917297	3785.574951	1436.568726	18.257269
275.035278	895.793640	3735.792236	1427.949707	18.737900
275.407593	900.028809	3746.268799	1442.364380	19.054457
275.779907	913.254700	3789.290283	1467.107056	19.257492
276.152161	907.682068	3868.422607	1474.463013	19.143215
276.524384	910.654114	3959.220459	1479.961548	18.674595
276.896606	893.787415	4020.668701	1479.144165	18.720146
277.268799	899.657410	4071.789063	1499.949097	18.923922
277.640930	894.456116	4081.671143	1510.500000	19.328594
278.013031	900.846191	4089.101563	1511.985962	19.168470
278.385162	901.960693	4068.296631	1505.075806	19.047729
278.757233	903.372375	4055.293701	1507.676636	19.172567
279.129272	903.446777	4067.628174	1503.961548	18.978519
279.501282	909.019531	4097.572266	1509.979980	18.847437
279.873230	908.276367	4157.385742	1526.252319	19.019857
280.245178	907.236145	4250.858887	1561.397339	19.564444
280.617126	901.291992	4405.705566	1603.452759	20.036470
280.988983	889.552185	4571.549316	1628.269897	20.062963
281.360870	902.629395	4756.562988	1667.130249	19.836897
281.732697	893.713074	4911.038574	1692.467407	19.882738
282.104492	902.332214	5047.012695	1712.751953	19.553249
282.476288	875.731873	5143.160156	1706.064819	19.457455
282.848053	887.323059	5197.847168	1705.916016	18.990568
283.219757	888.586182	5222.069824	1698.857422	18.697920
283.591461	910.728333	5151.110352	1702.721069	18.677391
283.963135	909.242371	5074.429688	1692.170288	18.796944
284.334747	918.678772	5050.132813	1717.432983	19.333488
284.706360	911.545715	5142.045410	1736.231567	19.493818
285.077942	920.982239	5291.171387	1779.252808	19.639210
285.449524	917.787292	5434.129883	1789.432495	19.299801
285.821014	912.140320	5514.525391	1791.141479	19.098818
286.192535	903.000977	5621.298340	1800.652222	19.024899
286.563995	894.010254	5703.031250	1810.460083	19.056890
286.935425	893.415833	5732.455078	1806.596313	18.871113
287.306824	887.620300	5674.424316	1773.383179	18.504263
287.678223	885.837097	5543.429199	1743.661987	18.417776
288.049561	903.595398	5421.795410	1739.872437	18.509075
288.420898	907.459167	5308.854980	1721.519653	18.495506
288.792145	914.443542	5266.576660	1720.479492	18.520479
289.163452	904.412781	5303.579590	1726.052246	18.677160
289.534668	898.988586	5425.956543	1780.367554	19.469522
289.905914	893.415955	5575.453613	1816.775879	19.721327
290.277039	901.960693	5761.953125	1855.636108	19.622982
290.648193	926.109131	5925.196777	1878.892944	19.059153
291.019318	924.994568	6055.894531	1883.499634	18.681032
291.390381	908.796570	6076.773438	1860.094360	18.407547
291.761475	884.573914	5994.966309	1820.639648	18.316904
292.132507	882.864929	5879.796875	1799.760620	18.349173
292.503510	883.459290	5781.791504	1799.611938	18.703360
292.874481	917.564270	5762.175781	1842.335938	19.088665
293.245422	918.976074	5800.367188	1869.233521	19.466940
293.616364	924.102966	5927.128418	1897.840210	19.462969
293.987213	898.171326	6074.470215	1905.567505	19.461708
294.358093	900.400391	6273.304688	1939.672485	19.342836
294.728943	889.998047	6467.160156	1956.093384	19.115374
295.099731	884.276672	6694.154785	1967.387329	18.642570
295.470490	889.626465	6846.476074	1995.473755	18.564297
295.841248	902.852356	6962.685059	2041.244141	18.785864
296.211975	901.143372	7048.430176	2075.200439	19.098785
296.582642	905.230164	7212.490723	2091.993164	18.815823
296.953308	899.137207	7351.808594	2102.618408	18.650898
297.323883	896.165100	7476.414063	2097.342773	18.254290
297.694519	891.558411	7485.033203	2084.042725	18.085827
298.065063	903.892578	7448.550781	2057.887939	17.632629
298.435608	909.390930	7233.667480	2013.975220	17.465780
298.806122	904.858582	6925.756348	1948.291626	17.330191
299.176575	903.372498	6596.224609	1888.552124	17.305555
299.547028	907.459167	6351.619629	1853.407104	17.375460
299.917450	907.830750	6208.289551	1845.382324	17.688120
300.287872	891.855530	6115.187988	1831.265015	17.984869
300.658234	884.796875	6074.396484	1832.305054	18.257828
301.028564	884.128113	6029.071777	1824.429077	18.276215
301.398865	883.607910	5962.125000	1819.896484	18.436258
301.769135	889.329285	5898.521484	1805.333008	18.286455
302.139374	892.821472	5868.354004	1795.822266	18.148827
302.509583	895.570618	5820.726563	1781.779297	17.993515
302.879791	899.731689	5747.167480	1768.330444	17.918728
303.249939	891.929871	5647.006348	1738.832397	17.810492
303.620087	896.165100	5568.022949	1726.498047	17.773077
303.990173	883.682190	5502.488281	1720.851074	18.125223
304.360260	894.753357	5449.658691	1727.315430	18.278362
304.730286	895.347717	5433.460449	1733.185425	18.462250
305.100281	900.325989	5423.949707	1724.640503	18.222439
305.470276	894.158936	5418.154297	1727.463867	18.419668
305.840179	890.815369	5428.333984	1724.045898	18.363132
306.210144	891.855469	5432.791504	1732.219238	18.506399
306.579987	900.548889	5464.296875	1748.342896	18.576704
306.949890	904.264160	5499.218750	1756.144897	18.539480
307.319702	909.093811	5587.193359	1786.460327	18.754763
307.689484	902.778015	5690.102051	1794.187866	18.620211
308.059265	904.709900	5809.655762	1829.109985	18.846285
308.429016	895.719299	5940.725098	1847.685669	18.869480
308.798737	898.022644	6076.030762	1878.298462	18.931522
309.168396	894.233215	6193.057129	1892.267456	18.835014
309.538055	903.298157	6266.246094	1895.239380	18.496195
309.907684	896.165222	6265.131348	1882.310913	18.367516
310.277313	893.193054	6285.490234	1884.688477	18.387255
310.646851	902.703796	6296.264160	1883.276855	18.180441
311.016388	918.233093	6312.908203	1890.632813	18.025177
311.385895	940.300964	6268.994629	1894.942383	17.915112
311.755371	922.616882	6215.125488	1878.521484	18.061464
312.124817	913.923523	6166.308594	1863.586548	18.080605
312.494232	897.874084	6097.801270	1834.831177	18.018658
312.863617	901.960693	6005.071777	1818.410522	17.958649
313.232971	900.177490	5965.988281	1811.500366	17.989676
313.602295	894.158997	5958.707031	1814.844116	18.179020
313.971619	888.660583	6020.378418	1837.432129	18.488380
314.340820	885.242615	6042.000000	1845.976685	18.630585
314.710083	897.576843	6110.135254	1854.298828	18.354172
315.079285	909.465271	6124.326660	1852.441040	18.082470
315.448486	917.935791	6133.837891	1852.069702	17.909344
315.817596	912.808899	6015.028809	1815.438354	17.690916
316.186707	904.338379	5845.395020	1781.184692	17.746130
316.555786	905.378662	5650.275879	1743.438965	17.662348
316.924866	901.589172	5491.490723	1713.346558	17.685726
317.293884	901.217773	5414.513672	1699.897827	17.696159
317.662872	901.886475	5388.729980	1706.361938	17.929651
318.031830	898.914368	5413.102051	1725.977905	18.321426
318.400757	912.660339	5457.312012	1742.547485	18.260742
318.769684	904.264099	5488.222168	1738.015015	18.188450
319.138550	895.199158	5511.181152	1727.983887	18.041334
319.507416	888.957764	5511.032715	1724.491821	18.077032
319.876190	888.289063	5506.351563	1708.739624	17.766121
320.244995	920.090576	5471.429688	1731.104858	17.819246
320.613770	924.251526	5391.554199	1709.631226	17.580624
320.982483	924.845947	5322.155762	1720.256470	18.088572
321.351166	897.948425	5272.595215	1699.154663	18.314764
321.719818	888.289001	5276.681641	1715.724243	18.855087
322.088440	883.533630	5320.148926	1729.470215	19.067162
322.457062	890.072266	5445.571777	1776.578003	19.460121
322.825623	896.685242	5618.697266	1821.456909	19.584270
323.194183	905.824402	5789.371094	1850.880737	19.351843
323.562653	902.555115	5922.892578	1875.697876	19.384010
323.931183	900.028809	6027.808594	1882.608032	19.161884
324.299591	893.713135	6098.024902	1895.090820	19.241310
324.668060	887.843262	6125.962402	1864.106567	18.637669
325.036407	885.391296	6116.302734	1844.119141	18.328121
325.404755	887.843201	6048.093750	1810.682983	17.883623
325.773102	886.059875	5968.886719	1793.593384	17.854898
326.141388	895.347839	5874.299316	1795.005005	18.069208
326.509674	895.719238	5808.912598	1790.324097	18.208216
326.877899	920.536377	5745.309082	1787.872070	17.976717
327.246124	913.106140	5686.759277	1773.308716	18.019796
327.614288	920.759277	5625.756348	1773.903198	18.132719
327.982422	902.778015	5577.682129	1776.726685	18.694471
328.350525	920.313477	5541.645020	1780.516113	18.613741
328.718628	907.310547	5529.459473	1786.757690	19.026802
329.086700	915.781067	5536.221191	1797.234253	19.077257
329.454712	903.521057	5576.865234	1808.156738	19.357351
329.822693	917.638611	5636.604980	1827.103882	19.272552
330.190674	919.199036	5693.520996	1851.920898	19.536217
330.558563	922.319763	5717.000000	1857.567993	19.505957
330.926483	919.496277	5751.773438	1874.657593	19.766277
331.294312	908.202148	5803.636719	1885.654297	19.966606
331.662231	904.115540	5905.357422	1934.025391	20.593084
332.029999	893.564636	6004.625488	1963.820923	20.940002
332.397766	895.496399	6100.253418	1996.737183	21.158352
332.765503	894.901917	6181.912109	2029.504517	21.460192
333.133240	892.747253	6262.828125	2047.708618	21.507338
333.500916	896.982483	6349.167969	2062.049072	21.368801
333.868561	889.403625	6392.634766	2050.309326	21.094986
334.236176	895.422119	6397.984375	2048.823242	20.961163
334.603790	894.902039	6350.504395	2045.256714	21.085751
334.971344	898.022705	6298.493652	2052.984131	21.386311
335.338867	894.530457	6244.326660	2059.374268	21.773609
335.706360	885.168274	6192.686035	2061.974854	22.172449
336.073853	880.784424	6180.203125	2075.943604	22.552647
336.441284	884.871094	6174.407715	2106.556396	23.096264
336.808655	894.679016	6198.927246	2138.283691	23.445448
337.176086	897.354004	6214.753906	2153.590088	23.625008
337.543396	901.812195	6226.642090	2169.044922	23.798555
337.910706	888.809265	6203.385254	2185.317627	24.395329
338.277954	897.131104	6182.952637	2203.447266	24.713589
338.645264	885.539856	6145.132324	2206.122070	25.108072
339.012421	887.248840	6136.958984	2205.973389	25.119951
339.379669	882.642090	6125.739746	2204.115967	25.204067
339.746796	900.994812	6127.225098	2197.725830	24.811974
340.113953	913.997742	6152.042969	2193.862061	24.434004
340.481018	914.146301	6144.092285	2181.230713	24.227488
340.848114	905.824463	6184.661621	2189.924072	24.325426
341.215118	899.137207	6204.648438	2211.323242	24.732510
341.582153	898.542786	6306.146484	2277.898438	25.507708
341.949066	899.062805	6383.420410	2359.111328	26.622053
342.316010	896.759521	6530.168457	2446.639893	27.512299
342.682922	888.660461	6642.217285	2528.893311	28.508156
343.049835	881.453125	6817.497559	2636.334717	29.563148
343.416656	910.505554	7021.681152	2773.720703	30.488651
343.783478	915.260925	7283.449219	2869.645508	30.689804
344.150269	932.499207	7560.450684	2941.718750	30.314335
344.516998	920.759338	7811.444824	2956.133545	29.538052
344.883728	932.870667	7957.375488	2981.768311	29.167860
345.250427	918.827454	7993.412109	2949.297852	28.700914
345.617065	903.000977	7901.276855	2917.570557	28.786655
345.983704	897.354004	7767.458496	2862.958008	28.610977
346.350281	899.731628	7606.592285	2827.070068	28.736818
346.716827	898.617126	7404.935059	2785.832031	29.005882
347.083405	894.381836	7256.403809	2770.971436	29.496748
347.449860	939.632324	7164.045410	2818.822266	30.190638
347.816376	957.762146	7089.593750	2843.044922	30.745834
348.182770	965.341003	7009.570313	2853.373047	31.236935
348.549194	922.468262	6922.189941	2818.450928	31.601177
348.915558	911.991638	6929.174316	2842.376221	32.081203
349.281921	904.858459	6958.895996	2879.230469	32.612484
349.648193	892.895752	7020.417969	2917.273438	33.037460
350.014526	889.923645	7077.110840	2944.393799	33.205238
350.380737	886.282898	7170.732422	2966.684814	33.103962
350.746948	915.335266	7255.140625	3010.746338	33.051666
351.113159	918.976074	7323.869629	3042.993408	33.162415
351.479309	913.700623	7355.449219	3075.835693	33.564411
351.845428	892.004211	7415.634277	3122.943359	34.197819
352.211517	891.186829	7505.912598	3196.131592	34.845661
352.577576	888.586243	7624.573730	3268.353760	35.329159
352.943604	886.877258	7752.969238	3337.083984	35.685612
353.309601	890.295227	7899.196777	3412.872803	35.991055
353.675537	890.889648	8082.724121	3500.252686	36.282303
354.041473	891.484070	8267.291992	3575.075439	36.383694
354.407379	883.905212	8419.760742	3613.415283	36.220306
354.773254	897.948425	8594.373047	3686.975342	36.237953
355.139038	898.468506	8736.663086	3772.794922	36.670773
355.504913	921.502380	8997.540039	3920.954346	37.140144
355.870636	912.140198	9217.996094	4041.027588	37.670864
356.236389	911.545837	9521.151367	4179.305176	37.954807
356.602081	901.663574	9809.891602	4302.573730	38.177177
356.967804	902.257996	10078.718750	4399.687012	38.113049
357.333405	898.914307	10326.073242	4452.441895	37.694576
357.699036	877.738037	10490.058594	4459.946289	37.266842
358.064606	878.778320	10616.298828	4463.661621	36.815155
358.430176	879.967102	10643.567383	4448.206543	36.546349
358.795654	893.341614	10667.196289	4462.398438	36.516369
359.161163	900.103088	10696.545898	4553.047852	37.288483
359.526581	899.137207	10816.098633	4727.808105	38.607300
359.892029	908.870850	11083.291992	4990.839355	40.119911
360.257416	906.641785	11505.925781	5244.509277	40.926044
360.622772	911.397156	12032.953125	5480.271484	41.081253
360.988098	892.895813	12530.707031	5633.780762	40.736908
361.353394	885.688416	12980.833008	5707.191895	39.863132
361.718658	890.369446	13238.218750	5672.789551	38.730793
362.083893	894.753235	13293.203125	5514.822754	37.263283
362.449097	900.103088	13083.817383	5273.189941	35.892891
362.814209	897.428223	12673.961914	4990.245117	34.754005
363.179382	904.784241	12042.687500	4708.563477	34.151665
363.544434	907.830627	11328.934570	4490.633301	34.380264
363.909546	904.858582	10642.155273	4324.195313	35.115871
364.274536	898.171387	10163.051758	4234.586426	36.011417
364.639587	897.428284	9817.543945	4164.444824	36.625275
365.004517	892.301453	9632.901367	4143.640137	37.198120
365.369507	883.979492	9459.553711	4123.503906	37.776180
365.734344	884.053711	9386.142578	4141.707520	38.315922
366.099274	893.861755	9297.276367	4136.804199	38.590767
366.464081	909.019470	9225.054688	4136.209473	38.806835
366.828918	910.728455	9143.469727	4109.906738	38.859211
367.193665	902.332214	9050.666016	4066.885010	38.836807
367.558411	905.824402	9001.031250	4032.408936	38.622662
367.923126	901.143372	8909.789063	3984.260498	38.497360
368.287781	913.923523	8847.002930	3976.458984	38.604622
368.652435	900.474670	8750.483398	3965.759033	39.048164
369.017059	906.121765	8709.393555	3986.415283	39.474384
369.381653	919.942078	8691.783203	4010.786377	39.769779
369.746185	932.053406	8690.296875	4031.814453	39.954418
370.110687	924.697327	8716.452148	4056.185547	40.189770
370.475220	899.434387	8773.367188	4068.371094	40.245922
370.839661	900.177490	8858.815430	4113.026855	40.369339
371.204041	909.316711	8939.211914	4129.893555	40.107334
371.568451	911.174316	8982.159180	4154.190918	40.181175
371.932770	906.864746	9004.078125	4128.333496	39.784904
372.297150	908.796570	8997.761719	4110.426270	39.580212
372.661377	909.316711	8979.781250	4086.129639	39.363449
373.025696	899.583191	9000.584961	4102.773438	39.540668
373.389862	892.004211	9012.919922	4120.828613	39.759365
373.754059	895.942200	9049.253906	4153.818848	39.957710
374.118225	900.771912	9094.579102	4186.363770	40.098473
374.482361	895.793640	9197.339844	4257.174316	40.491020
374.846436	891.335449	9344.309570	4349.310059	40.908375
375.210510	888.883484	9572.938477	4474.732910	41.292339
375.574524	904.932800	9846.447266	4608.478027	41.419662
375.938538	898.022644	10179.695313	4745.046387	41.447525
376.302460	907.161926	10478.466797	4854.716797	41.243645
376.666412	908.722351	10776.940430	4951.235840	40.964981
377.030304	915.335266	10982.090820	4970.777344	40.285492
377.394196	910.579834	11089.161133	4919.211426	39.383011
377.757996	907.384766	11085.222656	4812.363770	38.367470
378.121796	911.025635	10950.660156	4665.689941	37.398415
378.485565	905.378662	10747.665039	4529.791016	36.824902
378.849304	890.815247	10455.135742	4404.219238	36.734486
379.212982	888.809143	10176.277344	4352.802246	37.297497
379.576630	905.007141	9919.338867	4336.604004	38.068233
379.940277	917.861572	9739.972656	4326.647949	38.639122
380.303864	919.496277	9644.940430	4318.251465	38.952229
380.667450	914.443665	9629.112305	4322.412109	39.106117
381.030945	916.152649	9595.007813	4323.973145	39.265781
381.394501	927.892395	9633.199219	4345.074707	39.254017
381.757935	930.195801	9629.038086	4370.188965	39.545414
382.121399	918.976074	9682.757813	4422.052246	39.972198
382.484741	908.722351	9762.708008	4488.924316	40.436050
382.848145	896.536621	9855.586914	4559.363770	40.884098
383.211487	896.239441	10002.038086	4629.951172	41.003670
383.574768	897.428223	10130.582031	4689.096191	41.065792
383.938019	901.663513	10235.051758	4721.566406	40.927288
384.301270	908.647949	10328.820313	4744.377441	40.718254
384.664459	898.468445	10366.565430	4742.296875	40.597687
385.027649	900.549011	10422.665039	4746.086426	40.385323
385.390778	904.041199	10484.114258	4802.185059	40.690125
385.753876	920.536438	10551.358398	4867.051270	40.977962
386.116943	917.861572	10638.143555	4942.245605	41.401924
386.479980	914.592285	10661.326172	4963.272949	41.538841
386.842987	913.477600	10722.032227	5000.796387	41.670959
387.205994	923.285583	10762.526367	5006.145996	41.495682
387.568909	916.598328	10801.907227	5024.052734	41.551102
387.931793	901.366272	10790.910156	4982.591797	41.268085
388.294678	894.679016	10778.055664	4971.372559	41.247982
388.657471	897.205322	10761.559570	4945.515137	41.039783
389.020294	911.545837	10762.526367	4993.291504	41.434917
389.383057	913.552002	10824.047852	5077.401855	42.014542
389.745819	918.233093	10947.687500	5185.810059	42.550442
390.108521	920.387878	11078.536133	5304.025391	43.153904
390.471191	913.106140	11261.765625	5431.751953	43.664070
390.833801	901.812195	11469.963867	5550.339355	43.986191
391.196442	900.028870	11713.304688	5609.261719	43.550476
391.558960	901.217773	11923.581055	5640.319824	42.995335
391.921509	908.647949	12081.918945	5636.084473	42.310226
392.284027	904.635559	12183.045898	5648.269531	42.059418
392.646484	901.366272	12173.534180	5631.552246	41.963409
393.008911	899.062927	12057.770508	5592.839844	42.063801
393.371307	910.728455	11991.864258	5601.236328	42.328766
393.733673	909.316711	11920.385742	5581.917969	42.435490
394.096008	908.127869	11884.348633	5573.893066	42.507938
394.458344	892.524231	11840.360352	5515.490723	42.227215
394.820587	888.066101	11736.559570	5428.705566	41.855026
395.182831	887.694580	11637.664063	5331.442871	41.337307
395.545013	877.143616	11407.473633	5211.667480	41.162281
395.907196	891.038269	11189.915039	5124.138184	41.102539
396.269287	900.103210	10966.784180	5071.680664	41.439457
396.631409	914.592224	10765.498047	5035.569824	41.833485
396.993469	922.171082	10623.505859	5023.086914	42.271667
397.355530	922.468262	10548.311523	5040.473633	42.780720
397.717499	925.960510	10554.924805	5060.684082	42.940483
398.079468	915.038025	10556.633789	5086.169922	43.261841
398.441376	915.632385	10552.249023	5082.825684	43.243324
398.803284	907.459167	10539.915039	5056.820313	43.076878
399.165131	906.047363	10560.274414	5044.634277	42.868134
399.526978	897.205383	10521.116211	5024.201172	42.882729
399.888763	894.901917	10503.506836	5034.751953	43.084820
400.250519	897.651184	10497.117188	5019.000000	42.933105
400.612244	916.449768	10549.723633	5052.213379	42.932068
400.973938	921.873840	10561.909180	5085.797852	43.194073
401.335602	915.706726	10585.463867	5152.596191	43.815887
401.697205	921.799500	10688.149414	5228.756348	44.099968
402.058807	921.650879	10866.252930	5317.251465	44.200871
402.420349	920.313477	11154.398438	5417.485352	43.943077
402.781860	897.353943	11452.649414	5514.748047	43.744808
403.143341	898.245605	11786.715820	5607.402832	43.249023
403.504822	910.951416	12115.653320	5716.033691	42.884514
403.866241	922.988464	12490.510742	5797.171875	42.136799
404.227631	926.777832	12801.168945	5862.484375	41.565979
404.588959	926.554871	13040.870117	5880.020020	40.889355
404.950287	913.626221	13073.414063	5841.085449	40.522572
405.311554	907.161865	12972.289063	5787.958984	40.453754
405.672821	907.236267	12771.151367	5722.126953	40.584332
406.034027	913.923523	12485.458008	5668.183594	41.085823
406.395203	916.524109	12156.964844	5584.443848	41.527908
406.756348	913.254700	11902.182617	5505.162598	41.786678
407.117493	910.728455	11743.545898	5477.521973	42.157024
407.478516	908.425049	11722.590820	5507.317871	42.526558
407.839600	904.412781	11695.471680	5560.443848	43.147121
408.200592	915.855286	11751.049805	5637.050293	43.572773
408.561554	924.177246	11770.963867	5704.442871	44.070797
408.922485	923.880066	11821.860352	5742.708496	44.217628
409.283417	913.106140	11828.398438	5764.256348	44.443615
409.644257	911.025696	11971.356445	5797.990234	44.184612
410.005096	922.096863	12125.683594	5857.134766	44.048733
410.365906	928.783997	12227.997070	5860.329590	43.645035
410.726715	930.492981	12247.614258	5845.023438	43.425621
411.087433	919.347595	12200.358398	5805.271484	43.311047
411.448120	912.363098	12204.370117	5770.869629	43.026066
411.808807	910.059753	12144.629883	5753.333984	43.110455
412.169434	904.189880	12053.833008	5722.572754	43.215576
412.530029	912.734619	12018.539063	5744.343262	43.505253
412.890564	911.025696	12009.624023	5784.243652	43.908405
413.251099	930.270203	12077.906250	5852.603027	44.155846
413.611572	930.938782	12180.445313	5928.168457	44.421764
413.972076	933.390808	12324.518555	5987.833496	44.371750
414.332489	925.663269	12433.520508	6060.353027	44.618992
414.692871	927.520813	12598.769531	6154.494141	44.785038
415.053223	918.753113	12779.844727	6236.895996	44.836876
415.413574	918.678894	13078.541992	6370.269531	44.832664
415.773834	913.923523	13280.867188	6482.689941	45.029449
416.134094	921.799622	13498.129883	6631.592285	45.401104
416.494263	921.576660	13711.972656	6753.968750	45.599777
416.854462	925.663269	14089.058594	6928.728516	45.604233
417.214630	928.189514	14475.581055	7119.389160	45.700310
417.574738	932.350586	14883.948242	7316.068848	45.756180
417.934784	937.328857	15305.541992	7550.270996	46.024807
418.294861	943.644531	15840.077148	7819.692871	46.159027
418.654846	939.706482	16417.185547	8137.931152	46.507732
419.014832	927.743713	17026.990234	8455.352539	46.757523
419.374756	910.505554	17668.666016	8780.500977	46.962170
419.734680	927.669434	18394.531250	9153.574219	47.094349
420.094543	929.452698	19036.580078	9430.797852	46.950268
420.454376	935.396973	19559.748047	9617.669922	46.617855
420.814148	928.561035	19993.599609	9679.415039	45.900002
421.173920	924.028625	20402.783203	9732.764648	45.222279
421.533691	927.743835	20785.517578	9789.457031	44.625916
421.893341	918.381653	20963.693359	9809.519531	44.355198
422.253021	918.530273	21036.585938	9805.581055	44.174503
422.612640	912.957520	20940.140625	9769.247070	44.221340
422.972260	917.712891	20902.544922	9786.336914	44.376774
423.331757	911.991638	20876.464844	9814.870117	44.593609
423.691315	938.443359	21014.294922	9916.143555	44.718903
424.050781	951.223450	21159.185547	9944.972656	44.505966
424.410248	959.545227	21149.080078	9876.836914	44.167892
424.769653	936.660095	21046.763672	9698.288086	43.568287
425.128998	919.719055	20871.039063	9471.070313	42.861080
425.488373	913.477600	20584.082031	9242.367188	42.341812
425.847656	913.403320	20195.701172	9045.166992	42.172173
426.206940	912.808899	19739.556641	8851.832031	42.168850
426.566193	921.873840	19261.197266	8656.266602	42.173813
426.925385	918.158691	18800.224609	8423.700195	41.972450
427.284576	914.592285	18216.798828	8211.936523	42.175800
427.643677	924.103027	17775.664063	8070.093262	42.405510
428.002777	933.539368	17409.796875	7954.329590	42.611557
428.361847	946.468079	17098.914063	7854.614746	42.768421
428.720856	937.700378	16759.796875	7739.594238	42.989841
429.079865	936.511536	16504.195313	7665.068848	43.221313
429.438812	931.830383	16328.246094	7643.520996	43.592552
429.797760	932.722107	16283.887695	7633.787109	43.651829
430.156616	937.180237	16071.679688	7587.867676	43.943890
430.515503	931.310364	15963.940430	7524.562012	43.859600
430.874268	919.050354	15883.766602	7495.732422	43.947926
431.233093	909.911133	15938.230469	7551.013672	44.190586
431.591827	910.877014	15993.734375	7638.096191	44.601757
431.950562	928.486816	16078.512695	7743.978027	44.986664
432.309204	922.542480	16176.666992	7812.113770	45.165298
432.667877	926.406250	16381.668945	7892.880859	45.075096
433.026459	929.006836	16631.400391	7938.948730	44.642506
433.385010	931.236023	17007.744141	7994.452637	43.935020
433.743561	928.709717	17479.123047	8005.820801	42.760933
434.102051	925.960510	18014.250000	8001.882813	41.408020
434.460510	943.347351	18641.958984	8017.634766	39.970863
434.818939	953.006653	19157.470703	8005.597656	38.740993
435.177338	936.957275	19543.326172	8016.520020	38.049133
435.535675	927.298035	19721.873047	8005.078125	37.658634
435.894012	925.068848	19694.011719	8018.006348	37.790821
436.252289	931.979004	19639.472656	8115.937500	38.401501
436.610535	936.957214	19258.224609	8162.896973	39.440174
436.968719	954.121155	18944.818359	8314.548828	40.912411
437.326935	952.635193	18469.724609	8406.089844	42.549618
437.685028	950.851868	18180.462891	8546.967773	44.087563
438.043152	936.660156	17927.759766	8647.499023	45.381634
438.401215	940.746765	17976.724609	8805.168945	46.163609
438.759277	939.780823	18180.314453	8994.790039	46.721348
439.117249	936.957336	18644.558594	9274.465820	47.084347
439.475250	947.805481	19050.697266	9463.417969	47.040066
439.833130	953.898376	19543.177734	9682.016602	46.952431
440.191071	959.396790	19787.259766	9738.413086	46.627789
440.548889	952.040771	20011.804688	9788.864258	46.363762
440.906708	940.821045	20160.259766	9717.680664	45.666573
441.264496	933.985168	20241.099609	9634.090820	45.061653
441.622223	942.158508	20198.822266	9517.063477	44.529549
441.979950	946.319519	19985.869141	9381.165039	44.301708
442.337616	950.480408	19800.263672	9254.850586	44.055519
442.695251	944.684753	19525.863281	9130.466797	44.054161
443.052887	936.882996	19317.888672	9076.596680	44.283287
443.410461	932.127625	19192.095703	9115.977539	44.818531
443.768005	929.081238	19198.931641	9229.958008	45.434841
444.125458	940.226624	19264.392578	9391.121094	46.118851
444.482941	943.273010	19476.750000	9555.479492	46.468380
444.840393	957.539124	19780.794922	9795.996094	46.954987
445.197754	957.687683	20175.714844	10014.668945	47.127529
445.555084	954.121094	20522.560547	10224.053711	47.371853
445.912415	932.201904	20923.943359	10363.074219	47.173840
446.269714	932.944885	21195.816406	10421.030273	46.824978
446.626953	929.527039	21381.943359	10399.780273	46.303833
446.984161	934.208008	21453.869141	10318.641602	45.733864
447.341309	941.935547	21496.298828	10244.041992	45.256115
447.698456	955.384338	21469.845703	10135.633789	44.750134
448.055542	952.858093	21363.964844	10030.421875	44.473644
448.412598	949.440125	21099.744141	9863.388672	44.237289
448.769653	940.152344	20757.505859	9678.003906	44.091919
449.126617	947.359680	20287.167969	9442.017578	43.923176
449.483582	969.724915	19966.775391	9294.155273	43.819595
449.840515	982.059082	19545.330078	9147.928711	43.989388
450.197388	973.068420	19276.652344	9071.469727	44.244896
450.554230	955.681458	19018.078125	9012.325195	44.604511
450.911041	945.502136	18909.076172	9000.956055	44.843269
451.267822	956.350281	18844.285156	9043.754883	45.211506
451.624573	939.557922	18767.232422	9022.356445	45.338490
451.981262	932.722107	18694.044922	8993.527344	45.384037
452.337921	928.858398	18516.611328	8892.549805	45.279751
452.694580	942.901550	18292.958984	8738.594727	44.931805
453.051147	946.245117	18147.771484	8646.830078	44.766869
453.407715	948.325623	17900.195313	8474.745117	44.398758
453.764221	959.991150	17854.275391	8445.469727	44.307755
454.120728	959.173828	17499.478516	8280.741211	44.265011
454.477142	960.511230	17413.882813	8254.438477	44.330898
454.833557	944.981995	17155.458984	8195.441406	44.726997
455.189911	948.919983	17094.382813	8207.702148	44.958649
455.546265	940.300964	16980.550781	8230.140625	45.447170
455.902557	941.861328	16956.771484	8281.260742	45.828541
456.258820	946.542480	17042.962891	8410.547852	46.370594
456.615051	951.000549	17182.802734	8572.230469	46.952457
456.971252	964.746582	17317.585938	8741.045898	47.553204
457.327393	959.768250	17619.478516	9000.957031	48.267277
457.683502	967.495789	18093.083984	9316.297852	48.750454
458.039612	960.808533	18786.847656	9788.492188	49.521286
458.395630	970.244934	19538.419922	10249.911133	49.976185
458.751648	965.638184	20205.212891	10642.750000	50.297951
459.107605	958.356506	20986.357422	10986.549805	50.070869
459.463562	948.399963	21564.804688	11106.622070	49.272518
459.819458	953.898438	21939.958984	11076.752930	48.236088
460.175323	943.644531	22008.541016	10768.841797	46.642513
460.531158	948.102722	21937.583984	10450.826172	45.273743
460.886932	948.771423	21648.171875	10089.194336	44.157909
461.242676	960.659851	21185.341797	9746.436523	43.440865
461.598419	966.901367	20590.099609	9471.293945	43.338463
461.954102	965.192383	19949.240234	9188.944336	43.319279
462.309723	968.981750	19310.236328	8991.446289	43.739998
462.665344	959.248108	18718.712891	8794.989258	44.121494
463.020905	960.511230	18313.835938	8716.303711	44.693409
463.376373	962.963196	18066.855469	8673.653320	45.081493
463.731873	974.034363	17878.423828	8673.356445	45.546291
464.087341	967.718689	17740.517578	8690.594727	46.044052
464.442749	967.198547	17698.312500	8769.282227	46.632183
464.798126	951.074890	17715.255859	8813.342773	46.899204
465.153503	946.096497	17856.205078	8883.708008	46.940037
465.508820	926.703430	17937.791016	8943.669922	47.127888
465.864105	927.223633	18052.738281	9032.387695	47.327999
466.219330	943.124451	18249.193359	9147.854492	47.409557
466.574524	951.892151	18375.880859	9168.212891	47.155220
466.929657	959.396729	18411.248047	9126.454102	46.797657
467.284790	961.551514	18406.123047	9037.959961	46.297543
467.639893	964.077820	18338.505859	8929.329102	45.844685
467.994934	961.923096	18285.232422	8826.420898	45.398361
468.349945	952.932434	18118.421875	8716.972656	45.230518
468.704926	954.567078	17942.173828	8652.774414	45.316608
469.059875	962.443115	17740.591797	8603.288086	45.540451
469.414764	955.904541	17538.935547	8580.403320	45.977715
469.769653	953.303955	17418.044922	8564.131836	46.225014
470.124451	954.567139	17403.703125	8598.534180	46.470322
470.479248	958.430847	17355.927734	8608.565430	46.654285
470.834015	958.282227	17329.251953	8620.601563	46.804310
471.188721	947.805481	17428.150391	8721.579102	47.169968
471.543365	947.954102	17628.023438	8856.883789	47.415447
471.898010	946.468079	17814.226563	8987.286133	47.669750
472.252625	951.743591	17988.986328	9101.265625	47.833576
472.607178	961.774414	18230.617188	9209.079102	47.758289
472.961700	967.124268	18444.091797	9291.554688	47.630867
473.316193	981.836182	18646.937500	9309.165039	47.139999
473.670654	978.789795	18671.531250	9300.100586	47.032341
474.025055	984.065247	18736.769531	9340.297852	47.070190
474.379456	963.409119	18776.818359	9401.374023	47.368610
474.733795	969.278992	18894.291016	9470.104492	47.424377
475.088104	967.718567	19076.033203	9598.722656	47.663208
475.442383	984.882568	19262.087891	9733.507813	47.866318
475.796570	974.925964	19538.791016	9892.664063	48.038155
476.150787	978.938293	19887.718750	10094.618164	48.208710
476.504944	976.857849	20234.337891	10289.812500	48.360195
476.859070	996.993896	20593.890625	10483.593750	48.408684
477.213135	998.851501	20874.607422	10599.506836	48.303349
477.567200	987.037415	21275.396484	10735.034180	48.047241
477.921173	969.353333	21551.728516	10906.821289	48.281445
478.275146	958.876709	21948.056641	11049.334961	48.074570
478.629089	967.124268	22143.326172	11205.890625	48.350346
478.983002	967.867249	22573.687500	11389.046875	48.233204
479.336823	978.789734	22978.414063	11667.831055	48.587379
479.690643	975.371765	23579.521484	12005.684570	48.797729
480.044403	984.585266	24210.572266	12431.291992	49.284050
480.398163	981.390320	25055.546875	13014.195313	49.982250
480.751862	979.309875	26200.181641	13809.829102	50.872627
481.105499	973.439941	27724.947266	14917.460938	52.124245
481.459137	972.028137	29959.974609	16546.101563	53.726028
481.812744	975.891907	32820.550781	18765.003906	55.862152
482.166290	983.470703	36470.671875	21473.708984	57.739796
482.519806	984.362488	40591.355469	24355.615234	59.007893
482.873291	993.204529	44961.097656	26967.132813	59.074760
483.226715	994.987793	48869.496094	28879.240234	58.244469
483.580139	992.015625	51266.425781	29544.025391	56.792332
483.933502	997.291077	53068.863281	29219.916016	54.199680
484.286804	1010.591309	53768.718750	27938.568359	51.040432
484.640106	1015.792480	54196.406250	26295.212891	47.535030
484.993347	1000.708984	53400.031250	24583.205078	45.005348
485.346558	979.830017	52090.292969	23271.166016	43.614037
485.699738	976.560730	50591.089844	22691.755859	43.767818
486.052887	981.241699	49086.605469	22672.212891	45.090546
486.405975	985.179871	48353.535156	23169.150391	46.832893
486.759064	996.473816	48011.667969	23737.787109	48.370132
487.112061	1000.337585	48070.441406	24045.250000	48.958702
487.464996	995.582214	48056.921875	23947.396484	48.769997
487.817963	980.870300	47910.917969	23317.755859	47.596127
488.170868	968.981750	47386.562500	22355.312500	46.073769
488.523743	972.622620	46449.011719	21211.494141	44.504128
488.876587	969.799072	45208.011719	20163.900391	43.388062
489.229401	1003.458191	43944.714844	19525.341797	43.133072
489.582153	1004.424133	42643.152344	19297.158203	43.932022
489.934845	1022.925537	41790.230469	19618.666016	45.614349
490.287537	997.662598	41489.972656	20204.023438	47.432121
490.640198	1018.021667	41829.312500	20921.119141	48.768608
490.992798	1005.241516	42149.703125	21318.490234	49.370552
491.345337	1006.133240	42408.875000	21271.087891	48.945927
491.697876	1000.263245	42130.015625	20656.529297	47.790867
492.050354	1023.891418	41636.347656	19655.892578	45.877556
492.402832	1028.498291	40499.964844	18312.500000	43.788601
492.755219	1021.365051	39015.246094	16928.908203	41.868694
493.107605	1012.300110	36976.894531	15618.877930	40.613773
493.459930	1027.680786	34896.421875	14645.661133	40.208107
493.812225	1020.696472	32828.722656	13921.582031	40.558586
494.164490	1013.563477	31118.052734	13482.452148	41.418705
494.516724	987.706055	29766.708984	13260.286133	42.644215
494.868896	990.158020	28778.257813	13221.945313	44.018078
495.221039	984.733948	28186.365234	13339.492188	45.419182
495.573120	998.479980	27768.117188	13432.965820	46.449963
495.925201	1039.866577	27690.767578	13597.250000	47.118046
496.277222	1059.482544	27713.208984	13686.117188	47.372868
496.629211	1058.367920	27783.494141	13736.567383	47.439247
496.981140	1014.752258	27721.080078	13610.476563	47.163822
497.333069	1020.845032	27588.525391	13485.573242	46.916889
497.684967	1021.736633	27465.851563	13308.286133	46.462322
498.036804	1019.136047	27273.853516	13139.321289	46.163841
498.388580	1000.337585	26966.242188	12917.081055	45.893810
498.740326	997.736877	26534.244141	12706.730469	45.851974
499.092072	999.297363	25997.037109	12451.129883	45.811470
499.443756	1000.411804	25494.078125	12197.906250	45.715878
499.795410	1007.767822	25035.037109	11976.855469	45.652660
500.147003	1019.581848	24716.947266	11832.187500	45.627880
500.498566	1024.188721	24329.828125	11692.945313	45.777576
500.850098	1015.718201	23979.343750	11580.227539	46.005409
501.201599	1001.749207	23619.052734	11469.590820	46.282452
501.553009	992.461426	23378.978516	11431.993164	46.633118
501.904449	995.953613	23219.822266	11419.139648	46.900860
502.255859	1019.359070	23149.681641	11470.557617	47.225693
502.607178	1034.071045	23171.748047	11528.661133	47.406010
502.958405	1029.835815	23160.083984	11576.215820	47.655949
503.309692	1013.489075	23142.625000	11623.472656	47.945763
503.660919	993.947510	23101.609375	11637.292969	48.143246
504.012115	1007.099060	23106.958984	11628.895508	48.062737
504.363251	1014.455078	23142.771484	11578.445313	47.739693
504.714294	1029.538452	23166.994141	11534.679688	47.454151
505.065369	1030.950317	23162.906250	11523.907227	47.410892
505.416443	1035.111206	23066.906250	11475.833008	47.389339
505.767395	1035.482788	23004.123047	11485.937500	47.569878
506.118317	1021.959656	22887.914063	11469.368164	47.779335
506.469238	1001.229187	22903.812500	11524.500000	48.045795
506.820160	986.368652	22887.166016	11577.479492	48.359478
507.170929	1007.693542	23029.312500	11697.625000	48.542896
507.521729	1028.572632	23175.093750	11839.989258	48.817677
507.872498	1034.591187	23414.869141	11962.515625	48.828369
508.223236	1016.535461	23653.007813	12096.036133	48.945351
508.573883	1000.634766	23864.625000	12203.627930	48.998417
508.924500	1013.043274	24056.623047	12318.500000	49.061199
509.275116	1018.541687	24186.650391	12387.823242	49.072979
509.625702	1026.640747	24387.416016	12488.652344	49.065201
509.976196	1018.467468	24605.421875	12557.382813	48.920750
510.326660	1027.235107	24841.181641	12678.644531	48.926830
510.677124	1037.786133	25009.775391	12808.526367	49.102062
511.027557	1057.624878	25210.468750	12961.515625	49.285667
511.377869	1048.634277	25392.287109	13032.549805	49.228092
511.728180	1046.182251	25489.771484	13027.273438	49.015266
512.078430	1036.448608	25537.474609	12993.762695	48.803322
512.428650	1033.179321	25567.416016	12958.246094	48.605820
512.778931	1037.563232	25576.187500	12911.360352	48.388191
513.129028	1039.123535	25494.007813	12848.351563	48.289856
513.479126	1035.482788	25369.177734	12756.143555	48.166386
513.829285	1027.458008	25227.187500	12660.440430	48.070709
514.179382	1019.656250	25072.337891	12567.933594	48.012432
514.529297	1028.349609	24959.992188	12559.760742	48.184788
514.879272	1024.931641	24998.037109	12658.657227	48.528236
515.229187	1021.439392	25006.580078	12766.545898	48.968262
515.579163	1009.996887	25156.599609	12963.223633	49.502724
515.928955	1004.944336	25398.380859	13175.804688	49.893993
516.278748	1007.247742	25866.115234	13548.877930	50.451332
516.628540	1027.458008	26445.822266	13977.307617	50.946827
516.978333	1033.253540	27088.099609	14431.148438	51.421890
517.327942	1035.705688	27833.947266	14855.195313	51.568642
517.677612	1013.711975	28548.070313	15176.106445	51.435356
518.027222	1005.835938	29161.662109	15422.717773	51.203903
518.376831	990.009460	29668.406250	15530.606445	50.702267
518.726379	996.176514	29929.062500	15463.807617	50.004105
519.075867	999.371582	29917.396484	15198.546875	49.101471
519.425293	1030.058594	29743.007813	14891.973633	48.277573
519.774658	1036.002808	29390.740234	14533.909180	47.603706
520.124084	1046.256714	29013.724609	14248.437500	47.205490
520.473389	1029.092773	28494.052734	13954.644531	47.061970
520.822693	1024.040161	28021.041016	13770.226563	47.213345
521.171997	1033.550781	27644.031250	13668.282227	47.480282
521.521240	1057.179077	27337.009766	13661.594727	47.962318
521.870361	1060.597046	27168.271484	13719.328125	48.486629
522.219482	1051.457886	27108.382813	13842.523438	49.088928
522.568604	1037.488892	27187.587891	13953.234375	49.390808
522.917664	1043.284546	27352.689453	14177.851563	49.923470
523.266724	1045.587891	27674.345703	14479.519531	50.448959
523.615662	1048.634277	28186.812500	14971.924805	51.305180
523.964600	1047.445313	28912.822266	15546.358398	52.032001
524.313538	1048.559937	29785.287109	16214.041992	52.773869
524.662354	1042.541382	30801.001953	16900.080078	53.287498
525.011169	1065.426636	31907.890625	17609.373047	53.640160
525.359985	1054.950073	33058.171875	18279.658203	53.821796
525.708740	1045.587891	34298.808594	18980.037109	53.932972
526.057434	1040.683960	35711.968750	19843.580078	54.231899
526.406067	1051.234985	37440.550781	21001.216797	54.823734
526.754700	1059.556763	39426.734375	22574.060547	56.075287
527.103333	1042.467163	41918.773438	24431.255859	57.218452
527.451782	1027.903809	44608.605469	26434.234375	58.297199
527.800293	1030.578735	47369.542969	28167.865234	58.562565
528.148743	1034.070923	49481.527344	29250.306641	58.240902
528.497131	1035.854126	50965.128906	29396.164063	56.800968
528.845642	1027.383789	51526.042969	28521.767578	54.445766
529.193909	1017.501465	51424.917969	26933.177734	51.412426
529.542175	1016.386902	50458.683594	24933.539063	48.373871
529.890503	1029.612793	48847.800781	22957.312500	45.856400
530.238770	1028.423950	46568.562500	21224.126953	44.347042
530.586914	1036.820190	44392.753906	20051.480469	43.857113
530.934998	1039.643677	42190.199219	19332.601563	44.453732
531.283142	1048.337158	40727.625000	19286.607422	45.964203
531.631226	1048.782959	39510.996094	19528.240234	48.045742
531.979248	1041.129761	39152.847656	20154.392578	50.150620
532.327148	1040.238159	39161.324219	20727.042969	51.642822
532.675110	1041.724243	39492.562500	21189.873047	52.399761
533.023071	1028.498169	39783.308594	21242.255859	52.158062
533.370850	1026.789307	39914.082031	20884.042969	51.063606
533.718689	1028.795532	39814.371094	20233.669922	49.515511
534.066467	1041.204102	39367.511719	19454.011719	48.042217
534.414246	1039.718018	38531.457031	18636.533203	46.935181
534.761963	1050.417603	37630.984375	18017.666016	46.383228
535.109619	1062.231689	36789.953125	17689.916016	46.540005
535.457153	1065.946899	36078.429688	17608.703125	47.248165
535.804749	1049.451660	35479.250000	17575.267578	47.998589
536.152344	1040.163696	34989.000000	17486.550781	48.444626
536.499817	1045.587769	34461.156250	17275.533203	48.570007
536.847229	1043.358765	34059.253906	16979.361328	48.267670
537.194641	1038.603394	33614.621094	16553.011719	47.625244
537.542114	1033.402222	33381.835938	16142.118164	46.706173
537.889404	1035.185425	32981.714844	15750.914063	46.063622
538.236694	1038.677734	32717.718750	15520.651367	45.714684
538.583984	1035.928589	32594.150391	15576.674805	46.075935
538.931213	1039.049316	33018.343750	15999.159180	46.780609
539.278381	1035.408569	34015.042969	16803.337891	47.811115
539.625488	1040.535278	35570.796875	17849.222656	48.678135
539.972595	1051.829346	37668.066406	19142.611328	49.406445
540.319641	1047.296875	40057.710938	20427.601563	49.679825
540.666687	1062.826172	42588.535156	21528.173828	49.283558
541.013611	1052.200806	44832.175781	22182.259766	48.264206
541.360596	1055.395752	46377.300781	22293.865234	46.861374
541.707458	1047.593994	47441.019531	21959.203125	45.074509
542.054260	1058.888062	47728.652344	21197.005859	43.150242
542.401062	1065.203857	47686.222656	20285.087891	41.225792
542.747864	1070.702271	46894.902344	19250.869141	39.673725
543.094666	1069.736206	45769.886719	18284.412109	38.511448
543.441284	1078.503906	44255.296875	17339.429688	37.661263
543.787903	1069.884888	43006.636719	16566.162109	36.951546
544.134460	1064.757935	41989.210938	15891.867188	36.230438
544.481079	1061.562988	41478.011719	15443.895508	35.585342
544.827637	1073.897217	41121.429688	15102.250977	35.029259
545.174072	1081.921997	40974.386719	14946.215820	34.754166
545.520508	1084.968262	40879.949219	14889.448242	34.688999
545.866943	1072.039673	40674.050781	14884.766602	34.878849
546.213318	1073.154175	40291.464844	14845.312500	35.116653
546.559631	1083.482300	39637.976563	14683.925781	35.275894
546.905823	1085.785767	38608.292969	14390.652344	35.458363
547.252136	1076.423584	37219.945313	13988.453125	35.724323
547.598389	1062.083130	35481.484375	13509.422852	36.163731
547.944458	1065.129517	33728.675781	12995.249023	36.524261
548.290588	1073.599976	31953.884766	12485.234375	36.954433
548.636658	1080.807373	30352.960938	12030.651367	37.407032
548.982727	1069.141846	28785.248047	11666.567383	38.235622
549.328735	1065.203735	27448.318359	11349.145508	38.979252
549.674622	1054.950073	26233.687500	11112.046875	39.942814
550.020569	1044.250366	25288.484375	10952.963867	40.870392
550.366455	1030.355835	24447.599609	10849.608398	41.931717
550.712280	1023.222839	23782.962891	10808.890625	42.995518
551.058044	1033.328003	23334.843750	10832.592773	43.939903
551.403748	1042.467163	22983.169922	10899.391602	44.925293
551.749512	1051.532104	22763.306641	11000.219727	45.821621
552.095154	1044.919067	22522.568359	11075.488281	46.702362
552.440735	1049.600220	22407.322266	11147.562500	47.280144
552.786316	1042.392822	22263.695313	11117.543945	47.476593
553.131897	1043.878906	22054.904297	10995.984375	47.366112
553.477417	1030.207275	21780.802734	10819.143555	47.174244
553.822815	1020.250732	21464.791016	10584.793945	46.782871
554.168213	1024.485962	21124.041016	10399.482422	46.642803
554.513672	1019.804871	20755.572266	10199.534180	46.513161
554.859009	1034.665405	20406.648438	10079.313477	46.689327
555.204285	1035.036987	20070.130859	9992.454102	47.057384
555.549500	1048.485718	19744.611328	9899.054688	47.339058
555.894714	1030.801636	19430.162109	9831.512695	47.831612
556.239990	1022.702637	19159.775391	9743.092773	48.080475
556.585022	1025.600464	18909.001953	9727.489258	48.659023
556.930115	1036.820190	18678.144531	9678.821289	48.987259
557.275146	1039.123657	18478.791016	9601.174805	49.095264
557.620178	1028.869751	18334.716797	9507.627930	48.993599
557.965149	1021.588196	18213.455078	9431.913086	48.920372
558.310059	1024.114380	18082.013672	9376.112305	48.962643
558.654968	1030.652954	17957.037109	9343.121094	49.109528
558.999756	1036.448608	17871.662109	9354.563477	49.409031
559.344604	1037.414673	17841.271484	9409.028320	49.819592
559.689331	1027.086548	17818.314453	9431.467773	50.052208
560.033997	1027.012207	17813.632813	9456.209961	50.213783
560.378723	1022.331116	17835.775391	9482.290039	50.316635
560.723389	1025.377563	17875.750000	9537.050781	50.513260
561.067932	1016.535583	17877.681641	9557.484375	50.654617
561.412476	1019.730530	17886.744141	9558.078125	50.621574
561.757019	1027.903809	17879.835938	9538.091797	50.499775
562.101501	1035.259644	17864.603516	9496.853516	50.278809
562.445862	1034.219482	17777.373047	9439.937500	50.203907
562.790222	1012.820313	17719.712891	9417.573242	50.307098
563.134644	1011.928772	17675.429688	9436.594727	50.557602
563.478943	1011.854553	17718.896484	9488.085938	50.734486
563.823181	1012.003113	17743.044922	9540.915039	50.976578
564.167358	1002.343750	17845.509766	9643.377930	51.302910
564.511536	999.074402	17953.544922	9774.745117	51.760216
564.855774	1004.201233	18137.666016	9955.004883	52.241646
565.199768	1018.615967	18386.132813	10141.281250	52.527168
565.543823	1014.975159	18632.966797	10315.669922	52.790886
565.887817	1017.798645	18866.576172	10463.011719	52.917984
566.231812	1018.021484	19023.429688	10481.735352	52.560394
566.575745	1017.724304	19130.349609	10433.586914	51.985077
566.919617	1017.352783	19148.703125	10303.929688	51.218346
567.263428	1008.510803	19051.365234	10134.891602	50.581692
567.607239	1011.482910	18907.144531	9979.524414	50.112930
567.950989	1023.668640	18768.050781	9845.629883	49.716923
568.294678	1032.956421	18652.287109	9844.960938	50.013279
568.638367	1036.374390	18527.531250	9835.971680	50.308838
568.981995	1013.786316	18386.578125	9802.980469	50.591724
569.325623	1012.003113	18266.357422	9813.903320	51.012634
569.669128	1019.061829	18225.343750	9870.744141	51.444485
570.012573	1021.588196	18253.132813	9973.430664	51.950321
570.356140	1023.445740	18413.179688	10086.816406	52.119087
570.699524	1011.780212	18526.044922	10205.255859	52.491356
571.042908	1022.554016	18731.568359	10418.579102	53.057869
571.386230	1004.201233	18830.537109	10517.699219	53.367657
571.729492	1017.055664	19049.732422	10620.980469	53.258457
572.072815	1015.198059	19184.072266	10600.622070	52.757389
572.416016	1023.074219	19268.181641	10553.662109	52.236404
572.759094	1022.182556	19231.103516	10458.479492	51.822380
573.102234	1014.529297	19151.673828	10344.350586	51.440411
573.445374	1014.529297	19023.949219	10262.618164	51.351398
573.788391	997.662598	18943.777344	10182.295898	51.178947
574.131409	1003.532471	18801.412109	10139.869141	51.333851
574.474365	1001.972168	18768.197266	10087.782227	51.140919
574.817261	1013.340515	18719.826172	10062.668945	51.107418
575.160156	1013.340515	18739.814453	9973.430664	50.546371
575.502930	1007.619202	18707.271484	9867.030273	50.054153
575.845703	998.554260	18668.333984	9709.582031	49.299015
576.188477	1019.581848	18636.607422	9564.989258	48.506527
576.531250	1026.566406	18520.101563	9378.861328	47.745037
576.873901	1032.659058	18349.947266	9168.881836	46.983234
577.216431	1013.712097	18137.740234	8967.075195	46.445637
577.559082	1003.904053	17975.240234	8811.114258	46.002331
577.901611	993.575989	17782.349609	8649.504883	45.601479
578.244080	986.442871	17563.380859	8498.894531	45.318695
578.586487	1003.681152	17383.195313	8374.734375	45.001659
578.928955	1156.150391	17308.671875	8432.690430	45.048943
579.271301	1163.729248	17091.408203	8345.534180	45.090092
579.613647	1156.076050	16768.785156	8221.595703	45.254925
579.955872	1017.650085	16361.680664	7987.318848	45.422676
580.298157	1018.764648	16104.296875	7902.763184	45.633118
580.640320	1015.941101	15894.317383	7870.367188	46.069721
580.982483	1000.857666	15755.965820	7841.240234	46.359421
581.324524	997.737000	15617.985352	7821.699219	46.674736
581.666626	1005.835938	15518.049805	7771.099121	46.617722
582.008728	1012.151672	15433.046875	7705.712402	46.415707
582.350647	1008.287903	15344.106445	7648.127441	46.316429
582.692566	1014.232178	15313.493164	7636.388184	46.311180
583.034424	1008.956726	15227.004883	7628.214844	46.555325
583.376343	1010.517029	15170.460938	7615.509277	46.645607
583.718201	998.108398	15132.046875	7611.645020	46.791889
584.059937	995.953674	15079.661133	7564.017090	46.635899
584.401611	986.740173	15041.247070	7548.636719	46.688911
584.743347	986.888855	14998.078125	7509.627441	46.553783
585.085022	983.470886	14968.356445	7491.720215	46.537739
585.426514	994.839172	14968.356445	7481.986816	46.424583
585.768127	989.935242	14978.834961	7481.912598	46.408066
586.109619	998.331360	15061.309570	7516.537598	46.350109
586.451172	998.108398	15149.433594	7526.717285	46.134258
586.792542	1001.006165	15231.760742	7525.825684	45.850128
587.133850	1005.018555	15232.057617	7528.277344	45.851135
587.475220	1000.114563	15239.190430	7537.268066	45.909954
587.816589	1000.931946	15206.051758	7555.323730	46.141048
588.157776	1003.904053	15207.612305	7617.217285	46.560471
588.498962	1004.498474	15139.031250	7683.050293	47.249893
588.840210	1002.492371	15065.992188	7748.882813	47.970921
589.181335	1012.523193	15041.395508	7791.681152	48.322903
589.522400	1026.863647	14990.202148	7801.191406	48.515099
589.863403	1024.411621	14952.604492	7794.652832	48.608181
590.204407	1027.606567	14816.260742	7755.941406	48.796169
590.545410	1007.767761	14780.296875	7722.876465	48.757267
590.886353	1027.458008	14729.250000	7673.315918	48.503567
591.227112	1005.390137	14735.417969	7619.595215	48.173283
591.567932	1005.464539	14707.703125	7558.815918	47.826870
591.908752	985.105469	14694.774414	7503.980469	47.549469
592.249512	992.832947	14774.575195	7493.355469	47.167641
592.590149	987.037292	14822.948242	7493.132813	47.023254
592.930786	997.959778	14892.569336	7576.871094	47.348660
593.271423	988.226135	14860.469727	7620.710449	47.811188
593.612000	996.028015	14840.854492	7705.489746	48.461872
593.952576	993.353027	14855.492188	7746.504395	48.716518
594.292969	982.430603	14874.661133	7819.916016	49.218052
594.633484	974.331543	14894.128906	7902.169434	49.769676
594.973877	964.895203	14949.929688	8016.520996	50.422657
595.314209	987.780457	15045.112305	8183.924316	51.191391
595.654480	997.439758	15204.045898	8368.046875	51.881546
595.994812	1003.532532	15363.500000	8541.618164	52.493748
596.335022	992.089905	15512.847656	8649.579102	52.734776
596.675171	998.034180	15657.441406	8675.957031	52.375397
597.015320	995.359192	15723.347656	8638.508789	51.895405
597.355408	997.737000	15706.926758	8508.331055	51.060558
597.695496	988.077576	15628.536133	8319.006836	50.073082
598.035461	986.220032	15391.511719	8057.981934	49.091415
598.375366	990.381042	15201.148438	7800.521973	47.922401
598.715271	987.780457	14943.242188	7571.893066	47.179470
599.055176	1011.260071	14724.421875	7398.544922	46.577766
599.395081	1000.337585	14423.346680	7253.877441	46.588215
599.734802	996.696716	14141.442383	7137.890625	46.719761
600.074524	973.217041	13869.198242	7074.957031	47.315052
600.414246	969.650452	13669.247070	7069.458496	48.031509
600.753906	991.124023	13498.500000	7104.380371	48.877209
601.093506	985.031250	13361.856445	7117.382813	49.547047
601.433044	997.365417	13276.855469	7197.333496	50.490437
601.772583	982.207703	13254.043945	7312.947754	51.587555
602.112122	1009.551086	13352.125000	7512.376465	52.686134
602.451538	1008.139343	13476.656250	7685.873535	53.556767
602.790894	1012.300354	13686.041992	7871.035156	54.117680
603.130310	987.706116	13922.323242	8065.783203	54.721970
603.469604	979.532776	14225.776367	8263.651367	54.990070
603.808838	966.158264	14481.898438	8448.739258	55.361977
604.148010	964.449219	14769.003906	8581.889648	55.180630
604.487305	977.675110	14967.987305	8650.545898	54.844170
604.826416	985.105469	15135.613281	8617.257813	53.935535
605.165527	987.631653	15130.487305	8467.686523	52.889282
605.504456	968.535950	15063.984375	8264.097656	51.758278
605.843445	969.576172	14860.989258	8014.811035	50.716473
606.182434	965.266602	14648.855469	7787.222168	49.855019
606.521423	985.997070	14392.659180	7569.217285	49.104095
606.860229	984.585266	14169.008789	7383.757813	48.535851
607.199036	985.476990	14023.672852	7259.599121	48.121090
607.537903	971.062256	13965.122070	7211.895996	48.028362
607.876648	978.938416	14048.563477	7285.604004	48.254372
608.215271	981.018860	14233.503906	7372.167480	48.226036
608.553955	982.059082	14646.106445	7465.491699	47.448845
608.892578	990.529602	15290.683594	7580.958496	46.086418
609.231140	988.969238	16265.980469	7671.533203	43.742611
609.569641	986.888855	17484.619141	7718.269531	40.801861
609.908081	966.158386	18991.701172	7663.285156	37.153538
610.246521	984.733948	20550.349609	7577.466309	33.695503
610.584961	991.346924	22014.781250	7462.147949	30.778992
610.923340	1001.674988	23023.664063	7301.505371	28.607002
611.261597	994.096130	23519.931641	7129.494141	27.237160
611.599854	999.445862	23596.091797	6966.177246	26.405384
611.938110	1000.263184	23344.281250	6836.592285	26.120321
612.276245	1009.328125	22893.187500	6720.086426	26.095755
612.614319	1009.551086	22113.234375	6610.712891	26.541157
612.952393	1010.219788	21157.326172	6503.643066	27.266563
613.290466	997.216797	20110.253906	6425.773438	28.402376
613.628479	996.993958	19042.896484	6341.143066	29.614197
613.966370	997.662598	18035.052734	6294.109375	31.087194
614.304260	988.523376	17030.925781	6235.707031	32.708218
614.642151	979.012695	16069.300781	6180.054688	34.466156
614.979980	965.118103	15255.833008	6120.908691	36.077904
615.317749	967.941589	14537.252930	6073.207031	37.623615
615.655396	974.257324	13985.778320	6053.962402	39.040054
615.993164	970.170654	13462.463867	6041.182129	40.593121
616.330811	983.322266	13055.731445	6053.294434	41.996357
616.668396	971.582336	12664.007813	6030.482910	43.266476
617.005859	988.151855	12335.366211	6028.031250	44.415123
617.343445	983.545105	12012.668945	6008.341309	45.559341
617.680908	985.179749	11794.590820	6013.765137	46.520439
618.018311	996.176575	11624.512695	6024.167480	47.307411
618.355652	990.083801	11502.878906	6027.808105	47.919933
618.692993	1001.229187	11343.277344	6036.873047	48.690975
619.030273	984.362488	11197.270508	6015.399902	49.261559
619.367554	984.213867	11076.454102	5994.595215	49.645878
619.704712	968.833191	11038.116211	5967.474121	49.642471
620.041870	971.062256	11019.985352	5947.783691	49.524925
620.379028	965.415222	10954.598633	5900.230469	49.401588
620.716064	972.473938	10890.327148	5876.007813	49.441483
621.053040	964.449280	10808.742188	5845.543457	49.582985
621.389954	972.028137	10779.170898	5844.578125	49.683685
621.726929	971.879578	10753.461914	5837.890625	49.746670
622.063843	972.399658	10740.903320	5838.261719	49.811745
622.400635	963.632019	10748.780273	5833.357910	49.766502
622.737427	962.814636	10765.795898	5824.144531	49.590321
623.074219	965.117981	10792.172852	5820.058594	49.403820
623.410889	969.650574	10816.692383	5849.556152	49.557072
623.747559	974.926025	10841.361328	5892.726074	49.843735
624.084167	987.706116	10872.344727	5926.459473	49.963924
624.420715	985.402649	10946.945313	5963.833496	49.976501
624.757324	983.842285	11050.151367	6026.990723	50.099281
625.093750	982.430603	11178.695313	6138.890625	50.572048
625.430176	986.368591	11285.914063	6244.846191	51.055431
625.766602	999.000061	11420.328125	6348.275879	51.330078
626.102905	986.740173	11540.773438	6400.213379	51.292934
626.439209	984.362488	11652.450195	6438.999512	51.130413
626.775452	966.158203	11724.375000	6435.656250	50.840191
627.111694	960.511230	11745.402344	6420.869629	50.629707
627.447876	954.492737	11743.471680	6400.808105	50.480362
627.783997	954.269958	11685.217773	6351.024902	50.291500
628.120056	964.152161	11661.440430	6299.162109	49.872543
628.456055	973.142822	11585.502930	6203.088379	49.281639
628.792053	964.523682	11507.559570	6085.764160	48.574623
629.128052	952.560852	11428.129883	5975.870605	47.952618
629.463928	959.099609	11421.590820	5914.125000	47.359901
629.799744	958.356506	11412.377930	5888.342285	47.158749
630.135559	958.579407	11370.991211	5839.822266	46.879078
630.471375	942.827209	11288.218750	5762.770020	46.590240
630.807068	971.136536	11199.128906	5723.538574	46.464661
631.142700	992.238525	11107.737305	5721.457520	46.752205
631.478333	1000.709045	10932.679688	5691.291016	47.227104
631.813965	979.384094	10752.717773	5660.529785	47.897121
632.149475	961.031433	10539.692383	5614.610840	48.582779
632.484924	964.895081	10388.857422	5631.552246	49.519058
632.820435	968.387390	10194.778320	5635.489746	50.584270
633.155884	975.891907	10024.625977	5638.610840	51.528961
633.491150	999.966003	9918.669922	5684.752441	52.527660
633.826477	1003.829773	9824.825195	5667.365723	52.868595
634.161804	1010.591309	9719.463867	5676.281738	53.573986
634.497009	981.539001	9571.156250	5585.112793	53.594631
634.832153	965.341003	9420.766602	5535.850098	54.054157
635.167297	954.195618	9319.864258	5456.420410	53.817867
635.502380	952.189453	9176.088867	5398.835938	54.069805
635.837463	958.653809	9090.566406	5346.006348	53.952282
636.172424	959.619629	8989.811523	5305.734375	54.122177
636.507324	959.099548	8916.624023	5263.901855	54.097256
636.842224	960.734192	8824.562500	5245.995117	54.493317
637.177124	967.867249	8732.129883	5206.317383	54.589218
637.511963	958.728027	8608.341797	5151.110352	54.805149
637.846741	953.452576	8511.526367	5082.380371	54.629364
638.181396	936.734375	8402.894531	5014.616699	54.618202
638.516113	943.050110	8370.276367	5008.969238	54.743443
638.850769	947.656921	8304.518555	4980.288574	54.814564
639.185303	945.799316	8237.793945	4967.062500	55.146271
639.519836	945.650696	8157.547363	4917.799805	55.077736
639.854370	942.232727	8089.783203	4887.113281	55.192066
640.188843	949.440186	8032.570313	4846.841309	55.023712
640.523254	955.681641	7968.298340	4834.283691	55.308914
640.857605	968.164490	7921.339355	4820.240723	55.400249
641.191895	962.071716	7868.583984	4800.698730	55.579819
641.526184	947.805481	7791.829590	4772.983887	55.890781
641.860413	935.025391	7721.613281	4742.742676	56.106506
642.194580	936.808655	7653.253906	4732.340332	56.511021
642.528748	938.666199	7628.362793	4698.458496	56.202732
642.862793	954.269775	7612.907715	4678.768066	55.934837
643.196838	962.443176	7603.248535	4651.127441	55.545738
643.530823	971.285156	7575.905762	4655.288086	55.779175
643.864746	965.563782	7550.568359	4658.334961	56.078495
644.198669	966.083984	7536.153809	4664.650391	56.294170
644.532532	967.792908	7505.020996	4652.019531	56.357628
644.866333	968.164368	7469.429688	4631.957520	56.355080
645.200073	966.232605	7431.535156	4628.613770	56.646706
645.533813	958.653625	7420.093262	4630.322754	56.824322
645.867554	950.108887	7408.129395	4646.074707	57.230629
646.201172	946.245117	7423.584473	4661.455566	57.357044
646.534729	949.068665	7430.643066	4665.467773	57.337910
646.868225	946.245178	7452.191406	4671.263184	57.255592
647.201782	937.923157	7435.250000	4658.557617	57.264084
647.535217	944.833313	7469.429688	4667.770996	57.060047
647.868591	966.381165	7478.048828	4683.226074	57.079773
648.201965	985.254089	7496.773438	4687.461426	56.856274
648.535278	965.341003	7471.436035	4679.808105	57.092110
648.868591	937.626038	7495.881348	4652.613770	56.645977
649.201782	924.400085	7503.608887	4619.325684	56.160633
649.534912	936.660095	7544.252441	4599.709961	55.436981
649.868103	934.876770	7560.450684	4572.886719	54.908604
650.201172	928.263855	7595.670410	4576.156250	54.712311
650.534180	924.028625	7588.239746	4583.288574	54.909126
650.867188	931.161621	7578.580566	4582.917480	54.934944
651.200134	941.861328	7563.125488	4604.242188	55.312412
651.533020	933.613586	7540.760254	4586.632813	55.288910
651.865845	950.331726	7522.556152	4603.722656	55.588345
652.198608	954.567078	7516.908691	4593.617188	55.453529
652.531433	958.653625	7475.447754	4576.676270	55.518444
652.864136	945.204895	7408.649902	4560.923340	55.941044
653.196777	2267.421875	8794.840820	6892.914551	70.862503
653.529358	2331.842285	8793.800781	6955.849121	71.557358
653.861938	2330.504883	8728.117188	6928.729004	71.874069
654.194519	999.000000	7178.311035	4528.007813	57.110054
654.526978	950.851868	7087.291016	4440.851074	56.873363
654.859375	944.239014	7023.835938	4407.191406	56.960232
655.191833	949.663086	6999.390625	4430.522949	57.537464
655.524170	932.499084	6946.561035	4411.055176	57.840378
655.856445	939.260742	6948.716309	4421.383301	57.944061
656.188660	1015.421082	7016.331543	4462.175293	57.437183
656.520874	1030.727417	7041.371094	4489.519043	57.544445
656.853088	1029.464233	7070.721191	4511.066895	57.630436
657.185181	948.028503	7029.111816	4497.320801	58.366116
657.517212	941.043945	7082.312500	4565.084961	59.011276
657.849243	946.170898	7152.380371	4656.700195	59.787369
658.181274	958.579346	7278.396973	4782.494629	60.506737
658.513123	945.576416	7372.315918	4868.611816	61.042393
658.844971	938.740540	7505.020996	4968.697754	61.373520
659.176819	930.790222	7607.335449	5025.167480	61.324787
659.508667	931.904785	7706.826660	5072.870117	61.121964
659.840393	933.390808	7727.779785	5051.396484	60.608921
660.172058	935.694153	7721.315918	5003.768555	59.951389
660.503662	953.229553	7669.675293	4916.982910	59.015640
660.835266	961.997253	7624.127441	4834.952637	58.133888
661.166931	959.842529	7517.279785	4709.603516	57.183327
661.498413	958.505066	7435.845215	4628.093750	56.652706
661.829773	957.316223	7318.743652	4535.289551	56.244820
662.161194	963.780579	7207.958496	4480.156738	56.314480
662.492615	951.446350	7069.161621	4388.690430	56.185093
662.823975	969.353333	6960.605469	4337.198730	56.212715
663.155212	970.616455	6846.476074	4258.809082	55.961052
663.486450	974.034363	6728.186035	4202.934082	56.114258
663.817627	959.694031	6612.719238	4147.132324	56.384644
664.148743	953.229675	6528.831543	4122.240723	56.837109
664.479858	960.139709	6453.488281	4094.079834	57.049725
664.810913	944.313232	6362.616699	4084.123047	57.948208
665.141907	941.786926	6291.210938	4075.058594	58.572136
665.472778	934.876770	6239.199219	4075.429932	59.207436
665.803711	971.953796	6257.032715	4093.485596	59.063103
666.134583	969.724792	6229.316895	4087.615967	59.280090
666.465454	984.808289	6219.063965	4102.253418	59.558514
666.796143	954.046936	6134.582031	4054.699951	59.851986
667.126831	970.913635	6144.314941	4048.458008	59.487835
667.457458	966.455566	6136.810547	4036.420898	59.376297
667.788147	966.678406	6142.085938	4032.333984	59.235054
668.118774	964.226379	6121.207031	4045.857422	59.756500
668.449219	966.455505	6126.259277	4044.520264	59.654686
668.779663	977.675110	6145.949219	4065.770508	59.751003
669.110107	956.498840	6124.996094	4053.064697	59.912308
669.440552	947.136780	6115.262207	4055.516846	60.145214
669.770874	928.858215	6068.972656	4013.684326	60.014740
670.101135	939.112000	6052.477051	4000.086914	59.862236
670.431396	940.300964	5980.402832	3963.381592	59.980541
670.761597	944.238953	5950.830566	3955.059570	60.137127
671.091797	937.254456	5910.707031	3927.047607	60.115044
671.421875	920.387756	5879.945801	3895.766357	59.992817
671.751892	921.279480	5857.060547	3896.434814	60.277290
672.081909	928.858398	5828.007813	3882.168701	60.282104
672.411865	951.520691	5800.516113	3895.097412	60.704872
672.741821	944.461914	5761.433594	3861.140625	60.550049
673.071716	937.105896	5732.826660	3843.605469	60.606106
673.401550	929.601257	5712.318848	3812.843994	60.284607
673.731262	935.174011	5694.486328	3794.640381	60.081501
674.060974	929.155518	5640.988281	3769.971436	60.291100
674.390625	932.127625	5624.716309	3759.791992	60.258087
674.720276	933.019287	5597.966797	3761.649414	60.635845
675.049927	938.443359	5589.199219	3759.717773	60.662708
675.379395	930.567322	5556.951660	3764.770264	61.261726
675.708923	931.236023	5507.466309	3751.767334	61.634380
676.038330	935.099792	5474.401855	3757.191406	62.170162
676.367737	939.186340	5459.020996	3729.253662	61.729416
676.697083	957.167664	5480.568848	3750.578125	61.754642
677.026428	960.288391	5491.193848	3752.733154	61.631058
677.355652	952.412292	5484.581543	3770.045654	62.169636
677.684875	948.697083	5494.240234	3767.667969	62.016155
678.013977	935.694153	5507.392090	3763.581299	61.856392
678.343079	939.334961	5531.168457	3780.819580	61.881264
678.672180	914.815125	5536.146973	3793.896729	62.299820
679.001221	916.747009	5585.484375	3831.048096	62.421612
679.330139	926.109070	5653.768066	3900.892578	62.922966
679.659058	937.551758	5723.539063	3951.790039	62.980492
679.987976	933.762268	5775.921875	4015.690430	63.647804
680.316772	931.458984	5807.277832	4030.031250	63.549782
680.645630	925.737610	5828.380371	4036.124023	63.443062
680.974304	941.192627	5847.400879	4029.510986	62.947155
681.302979	931.384583	5857.134766	4012.495361	62.551102
681.631653	931.013123	5837.296387	3977.499023	62.093559
681.960266	936.214294	5820.949707	3938.118408	61.454796
682.288757	946.022217	5782.460938	3898.218018	61.040699
682.617249	955.458679	5758.535156	3865.970459	60.596821
682.945679	954.046875	5700.802246	3819.234131	60.360962
683.274109	962.443115	5661.569824	3788.770264	60.145794
683.602478	960.808594	5580.505859	3744.262695	60.251873
683.930725	949.217285	5495.800781	3692.399414	60.335022
684.259033	929.601379	5391.034180	3628.350586	60.490643
684.587280	922.096741	5304.471191	3587.707031	60.825710
684.915344	924.400146	5239.084473	3559.471924	61.072178
685.243469	938.443359	5205.425781	3555.756592	61.338741
685.571533	939.855042	5207.431641	3553.527588	61.244888
685.899536	943.421631	5191.457031	3553.601807	61.444412
686.227539	923.880066	5173.178223	3517.267822	61.030964
686.555420	925.811951	5170.577637	3512.958252	60.949097
686.883301	919.273254	5172.583984	3514.221436	61.010082
687.211121	919.570496	5185.512207	3527.892822	61.142941
687.538940	923.657166	5215.308105	3533.911377	60.821678
687.866638	922.988464	5221.995117	3525.960938	60.548225
688.194336	928.858337	5200.076172	3526.332764	60.813438
688.521973	915.855286	5144.497559	3509.688721	61.339630
688.849609	912.883118	5111.209961	3497.652100	61.566650
689.177063	922.988342	5087.284668	3470.977295	61.186543
689.504578	929.378418	5032.672363	3434.345947	61.047722
689.832031	928.263855	4951.830566	3380.105225	60.937012
690.159485	920.684998	4881.465820	3341.690674	61.124454
690.486816	923.137024	4807.980469	3314.272705	61.550373
690.814087	961.848694	4806.865723	3318.731201	61.297062
691.141296	978.121094	4748.983887	3301.046875	61.601971
691.468506	974.257324	4685.678223	3256.688232	61.497498
691.795715	939.186340	4591.759277	3195.834229	61.782417
692.122803	928.858215	4548.292480	3176.664063	62.103790
692.449829	929.006836	4553.642578	3182.682861	62.176620
692.776855	926.109070	4533.729004	3169.234131	62.177422
693.103821	911.917297	4504.528320	3131.042236	61.769142
693.430664	899.285828	4460.244141	3095.451172	61.673435
693.757568	899.062927	4437.878418	3090.621826	61.929165
694.084351	899.583008	4406.597168	3085.865967	62.340294
694.411133	910.877014	4394.039551	3083.117188	62.364021
694.737854	917.118469	4372.120605	3090.027344	62.891682
695.064575	915.632507	4369.297363	3101.246826	63.283913
695.391174	927.669434	4357.631348	3127.178467	64.126343
695.717773	916.003906	4356.071289	3139.364258	64.631302
696.044250	916.598328	4351.464355	3141.964844	64.787575
696.370789	898.171326	4368.479980	3170.571289	65.481209
696.697205	900.251770	4400.281738	3200.664063	65.725502
697.023621	901.812195	4461.952637	3265.530273	66.393959
697.349915	914.666504	4555.648438	3328.167236	66.287086
697.676208	917.935791	4666.507813	3423.349365	66.836479
698.002380	923.805664	4794.011719	3541.342041	67.632996
698.328674	923.731445	4919.062988	3650.938721	68.259850
698.654724	925.366150	5024.349609	3752.287842	68.966408
698.980896	924.028625	5147.098145	3820.869141	68.595619
699.306946	935.322693	5205.797363	3849.326904	68.236069
699.632935	942.158508	5236.930176	3809.054688	66.753174
699.958862	942.307129	5169.834473	3702.578857	65.292816
700.284729	923.434143	5089.290527	3577.229736	63.703484
700.610596	926.629150	5002.430664	3473.577393	62.489506
700.936340	931.013000	4900.041504	3396.600342	62.120678
701.262146	926.777832	4777.367676	3308.625732	61.856701
701.587830	930.270081	4633.814941	3228.527344	62.055607
701.913513	933.019287	4486.323730	3141.742188	62.159687
702.239075	950.777649	4369.743164	3070.782959	62.007217
702.564697	941.266846	4252.567871	3002.647217	62.252884
702.890137	930.195801	4177.893555	2960.889404	62.527172
703.215698	912.288818	4095.863281	2920.691406	63.086403
703.541016	904.561340	4041.622314	2878.264648	62.915684
703.866455	907.087585	3996.520508	2835.689209	62.425747
704.191711	913.254700	3975.938477	2818.376709	62.204334
704.517029	916.895569	3953.721924	2802.401611	62.088043
704.842163	919.644714	3951.196045	2806.488281	62.240196
705.167419	922.691162	3931.059570	2799.132080	62.374039
705.492493	923.211243	3949.189453	2788.060791	61.627991
705.817566	918.455994	3942.576416	2761.014893	60.928753
706.142578	918.084473	3964.124756	2758.785889	60.429321
706.467590	924.920349	3984.186279	2777.287109	60.549385
706.792480	928.115295	4014.353271	2795.342529	60.501728
707.117371	925.886230	4028.916748	2791.850342	60.133606
707.442200	939.483582	4064.284424	2802.178467	59.610035
707.766907	944.090332	4082.488525	2795.416992	58.989540
708.091675	950.703308	4108.197266	2802.401611	58.644554
708.416321	933.836609	4096.086426	2781.076904	58.415382
708.741028	935.545593	4108.271973	2793.708008	58.566738
709.065552	935.025391	4126.995605	2805.522217	58.600071
709.390137	934.950989	4111.466309	2823.206299	59.444237
709.714600	937.328796	4110.872559	2842.970703	60.047760
710.039063	943.867371	4096.457520	2856.419678	60.666061
710.363403	960.808411	4129.819824	2894.908203	61.031647
710.687744	959.173767	4125.138184	2907.688477	61.545692
711.012085	948.474304	4151.738770	2921.880127	61.606083
711.336304	944.684814	4171.131348	2938.747070	61.803665
711.660461	942.827332	4205.236328	2945.731445	61.393410
711.984619	957.762146	4223.143066	2965.644531	61.489990
712.308716	950.406189	4214.747070	2931.019531	60.674217
712.632751	945.427917	4186.586426	2907.168701	60.525913
712.956726	952.115051	4146.908691	2874.697998	60.178627
713.280701	949.514465	4100.172852	2853.744385	60.439114
713.604553	962.145935	4063.913330	2846.388672	60.747391
713.928467	952.635193	4000.756104	2829.967773	61.589832
714.252258	952.338074	3941.313721	2818.748047	62.443130
714.575989	944.907715	3879.270752	2793.930908	63.012760
714.899719	931.161682	3816.559326	2765.621826	63.577377
715.223267	929.304138	3763.507080	2760.940430	64.626152
715.546936	937.625977	3726.504639	2772.977539	65.809662
715.870422	941.043945	3702.058594	2779.516357	66.586838
716.193970	938.294739	3689.650391	2776.543945	66.812492
716.517395	934.579590	3684.597900	2767.330811	66.645058
716.840820	935.842773	3655.545654	2748.977783	66.666656
717.164124	932.796326	3610.815186	2721.708496	66.799835
717.487488	933.687988	3551.447021	2685.300049	66.912651
717.810730	926.406250	3513.701172	2661.746338	67.071602
718.133972	927.149353	3462.655273	2634.179932	67.325050
718.457092	913.923523	3405.145264	2596.954346	67.558449
718.780212	910.654114	3359.300537	2552.447266	67.049011
719.103210	908.945129	3319.622803	2504.224854	66.175575
719.426208	906.418762	3285.146240	2473.983398	65.899292
719.749207	936.437195	3274.223877	2473.166016	65.734344
720.072083	937.105957	3243.833984	2459.197021	65.984848
720.394958	938.220520	3219.908447	2440.621582	65.846039
720.717773	910.654114	3158.608643	2399.680664	66.239174
721.040527	903.818359	3126.064453	2388.312256	66.801506
721.363281	918.604553	3102.435791	2384.968750	67.146408
721.685913	936.585876	3088.318359	2384.522949	67.291687
722.008545	949.811707	3068.256592	2370.702637	67.072357
722.331055	939.855042	3043.067627	2344.845459	66.802109
722.653503	925.811829	3019.365234	2330.282227	67.085480
722.976013	924.325867	3010.895264	2326.938477	67.220993
723.298401	933.242188	3006.065186	2331.396729	67.451706
723.620789	932.424866	2987.861084	2318.467773	67.433029
723.943115	933.242188	2996.628906	2313.637939	66.899521
724.265381	931.830383	2986.077881	2301.006592	66.650986
724.587585	936.214294	3004.430420	2312.672119	66.552902
724.909790	935.025391	2993.953857	2311.186035	66.838684
725.231873	924.028625	2994.325439	2320.473877	67.451454
725.553894	937.923340	3003.910400	2344.845459	68.099274
725.875916	1415.169800	3514.964111	2840.667236	67.887474
726.197937	1440.135376	3531.162109	2866.227295	68.200554
726.519775	1416.432983	3517.044678	2839.775635	67.758484
726.841675	932.573486	3025.458008	2352.126953	67.827606
727.163513	907.756348	3028.355713	2346.182861	67.831131
727.485291	911.991638	3052.801514	2372.262939	68.211159
727.806946	928.635437	3084.305908	2422.640137	69.305801
728.128662	931.236023	3102.807373	2435.643066	69.277344
728.450256	940.449524	3120.714111	2444.262207	68.973862
728.771790	932.796326	3105.556641	2421.822754	68.531555
729.093323	936.511414	3100.949951	2421.302734	68.599373
729.414795	932.424805	3088.169922	2420.708252	69.038010
729.736145	920.536377	3074.349365	2409.637451	69.137901
730.057495	911.322815	3073.234619	2395.148193	68.634872
730.378845	912.734558	3082.820068	2393.513672	68.235977
730.700134	927.149231	3107.191406	2411.420654	68.084526
731.021301	931.681824	3129.110352	2428.733154	68.127419
731.342468	928.189636	3130.745361	2443.445068	68.795326
731.663574	927.520813	3131.116455	2446.937256	68.951691
731.984680	938.517639	3122.869141	2451.543945	69.266617
732.305664	923.062683	3125.172607	2439.581299	68.866615
732.626648	922.988342	3125.023682	2443.445068	69.047791
732.947571	912.437317	3130.447998	2452.510010	69.434868
733.268433	931.830383	3124.280518	2450.949463	69.288651
733.589233	931.533203	3126.955811	2431.779297	68.335182
733.909973	953.303955	3133.642822	2424.423584	67.472061
734.230713	969.724854	3136.094971	2423.829102	67.121689
734.551331	961.700134	3080.590820	2399.457764	67.854263
734.871948	936.214355	3025.532471	2342.095947	67.289017
735.192505	924.697327	2965.644531	2296.474365	67.212769
735.513062	933.093567	2944.839844	2280.201904	66.962143
735.833435	941.935547	2900.035156	2272.102783	67.931541
736.153931	933.985168	2862.958008	2249.811768	68.213852
736.474304	924.846008	2834.277344	2232.350830	68.476135
736.794617	924.920227	2823.949219	2228.858643	68.663429
737.114807	927.669434	2833.757080	2233.093994	68.487122
737.434998	927.669495	2819.416748	2227.595459	68.715630
737.755188	936.288574	2814.215576	2228.487305	68.809853
738.075256	932.870667	2803.961670	2225.886475	69.104912
738.395325	937.031555	2824.766602	2236.734619	68.849869
738.715271	932.573425	2845.051514	2260.659912	69.443222
739.035278	930.121399	2846.240234	2277.898193	70.338898
739.355164	930.344299	2834.203125	2277.378174	70.752823
739.675049	925.068848	2821.794189	2260.660156	70.415642
739.994873	938.591980	2832.122314	2260.808838	69.828133
740.314636	936.734375	2820.457031	2253.155518	69.884018
740.634277	937.848877	2801.138428	2223.211670	68.983521
740.953979	927.075012	2762.798096	2188.809326	68.732277
741.273499	936.882996	2742.885010	2170.307861	68.295876
741.593140	946.839600	2719.479736	2171.645752	69.095024
741.912598	950.406067	2699.492188	2157.453857	69.010201
742.232117	945.947937	2680.396240	2135.831787	68.603012
742.551453	933.910889	2653.052979	2104.178955	68.072792
742.870850	940.226563	2636.334961	2097.863037	68.252502
743.190063	933.910889	2619.914063	2091.621582	68.665985
743.509338	933.613708	2603.418701	2086.866211	69.065102
743.828552	927.966614	2588.335205	2079.658936	69.363655
744.147705	927.372314	2570.874023	2069.925049	69.519409
744.466797	928.041016	2544.347900	2059.076904	69.976555
744.785828	946.393799	2533.648193	2045.182617	69.225754
745.104858	959.768250	2518.044922	2032.551147	68.844193
745.423706	968.535950	2522.948975	2022.371582	67.796371
745.742615	953.601074	2498.651855	2016.873047	68.817932
746.061401	961.254211	2506.453857	2028.761719	69.085411
746.380249	957.093262	2492.261963	2020.216797	69.251251
746.698975	951.520569	2476.583984	2007.734009	69.257011
747.017639	932.573425	2454.144531	1989.306641	69.450134
747.336304	926.777832	2448.274658	1986.260376	69.634224
747.654907	928.041016	2461.574951	1997.405762	69.732056
747.973389	936.660156	2462.466553	2001.492310	69.788155
748.291931	937.477478	2464.918457	2008.030884	70.088043
748.610352	929.304199	2460.534424	1984.254028	68.895569
748.928711	928.115295	2462.020508	1984.105469	68.843246
749.247070	933.316589	2470.937012	1983.213867	68.280655
749.565308	942.678711	2469.450928	1988.340698	68.488411
749.883545	938.740662	2470.045410	1979.498657	67.965446
750.201782	938.517761	2447.828857	1980.390503	69.029694
750.519836	930.567322	2432.819580	1984.922974	70.184998
750.837952	928.932617	2414.838623	1976.749634	70.517044
751.155884	925.217529	2419.370850	1964.415161	69.550934
751.473877	927.595215	2413.649658	1953.121460	69.010002
751.791809	924.400208	2409.042725	1944.353638	68.700272
752.109619	922.542664	2396.559814	1945.319702	69.387054
752.427490	930.121521	2395.296631	1947.102905	69.410233
752.745300	951.074890	2398.268799	1969.319336	70.359924
753.062988	948.771484	2402.726807	1958.916992	69.475693
753.380615	939.112122	2392.398682	1939.152344	68.812317
753.698303	932.424866	2406.144775	1920.948242	67.076744
754.015808	940.152344	2400.646484	1934.248413	68.065735
754.333374	934.653992	2400.795166	1940.861328	68.629639
754.650757	919.793457	2367.656250	1932.093750	69.916862
754.968262	916.672668	2368.176270	1928.304321	69.695427
755.285583	932.053406	2370.553955	1940.712769	70.118805
755.602905	939.483643	2368.399170	1945.022095	70.370743
755.920105	939.855164	2351.680908	1935.288696	70.506828
756.237305	928.412415	2343.507568	1922.062866	70.217918
756.554443	923.582825	2340.089844	1921.245483	70.431183
756.871582	917.861511	2344.399414	1919.833618	70.238029
757.188599	914.592224	2353.984619	1925.703613	70.245712
757.505615	920.685059	2373.451904	1936.625977	69.931450
757.822510	928.783997	2384.597412	1953.121216	70.361839
758.139465	940.523865	2399.160645	1972.588379	70.755417
758.456238	929.229797	2405.104736	1993.244629	72.093834
758.773010	922.988281	2416.027344	2013.752319	73.056633
759.089783	924.028564	2419.148193	2031.807983	74.093025
759.406433	927.149353	2420.039795	2025.938110	73.601440
759.723145	917.935791	2421.451416	2024.749023	73.615013
760.039673	915.335205	2429.847656	2024.526245	73.237495
760.356201	917.787170	2423.383301	2032.625122	74.046272
760.672668	926.554871	2429.327393	2035.522949	73.794807
760.989136	916.598328	2424.200684	2032.030762	73.987175
761.305481	913.626282	2431.779541	2037.157715	74.006454
761.621826	923.062683	2435.197510	2042.061890	74.001289
761.938049	958.653625	2464.992920	2092.736084	75.287323
762.254333	960.957031	2496.348633	2123.497314	75.716209
762.570496	952.115051	2536.620850	2160.797607	76.281357
762.886597	917.415710	2581.870850	2182.271240	75.992165
763.202637	914.963684	2684.260254	2281.242188	77.221565
763.518677	919.793457	2829.447510	2406.293701	77.841339
763.834656	925.589050	2986.746338	2527.852783	77.736122
764.150574	922.839844	3085.123047	2585.660400	76.901146
764.466370	919.273254	3133.123047	2601.338135	75.979179
764.782288	912.511719	3113.952881	2550.366455	74.399208
765.097961	920.982178	3079.178955	2490.552979	72.726028
765.413696	918.307312	2985.780518	2383.482666	70.867928
765.729309	920.164856	2885.174805	2289.861328	69.704300
766.044861	915.929688	2777.287109	2200.623779	69.019203
766.360474	913.923401	2681.882568	2140.587158	69.383041
766.675903	917.341370	2589.895752	2087.237549	69.946678
766.991394	910.208313	2508.980225	2032.030762	70.167763
767.306763	919.050354	2467.444580	2005.430298	70.161705
767.622131	920.164856	2431.853760	1990.495483	70.803627
767.937378	934.059509	2392.250244	1966.124390	70.777092
768.252625	936.288574	2349.971924	1951.783813	71.833290
768.567810	928.115234	2309.699951	1920.874023	71.856529
768.882996	927.075134	2294.913818	1916.935913	72.366783
769.197998	915.632507	2250.629150	1884.911499	72.605354
769.513062	926.406311	2233.911377	1875.177734	72.563492
769.828064	922.096741	2196.760010	1854.818726	73.173988
770.142944	925.217468	2190.146973	1832.899414	71.757515
770.457825	920.164856	2170.159668	1814.621094	71.556793
770.772705	915.038025	2145.862793	1797.234375	71.675224
771.087402	915.706787	2125.652344	1801.915405	73.243675
771.402100	927.966736	2106.482178	1799.017456	73.910851
771.716736	937.254578	2101.058105	1799.166138	74.059891
772.031372	937.105957	2097.417236	1787.872070	73.322227
772.345947	919.421814	2081.219238	1773.754517	73.535431
772.660461	921.205139	2073.194580	1769.147827	73.606804
772.974854	930.121399	2054.173096	1771.673950	74.867775
773.289246	950.257507	2039.089478	1781.853516	76.375053
773.603638	942.381409	2016.130249	1767.513184	76.845886
773.917908	935.471191	2004.538940	1742.175903	75.458710
774.232178	918.604492	2002.606934	1727.538452	74.624733
774.546265	916.078308	2002.903931	1713.792358	73.398529
774.860474	908.127869	1995.993774	1718.101929	74.455315
775.174561	920.164856	1991.015625	1712.454712	73.986946
775.488586	937.625977	1988.860962	1715.872681	74.031662
775.802551	942.901550	1972.885742	1715.872681	75.046898
776.116516	931.013123	1951.560913	1708.442383	76.177643
776.430359	914.815125	1938.929565	1702.869751	76.949852
776.744202	929.452820	1947.400024	1707.253784	76.408775
777.057922	929.155518	1953.641602	1693.210449	74.579338
777.371704	934.802551	1945.616821	1687.117554	74.426628
777.685303	922.988464	1925.183594	1669.730835	74.510674
777.998962	930.121399	1922.805786	1671.142456	74.648201
778.312500	919.793396	1912.329102	1664.306641	75.011230
778.626038	915.632385	1909.505493	1657.916504	74.686005
778.939453	920.387756	1916.935913	1684.293945	76.655220
779.252869	948.251282	1944.576538	1708.219604	76.277130
779.566223	952.263672	1940.712769	1710.077148	76.666924
779.879578	940.523865	1921.691284	1694.399414	76.834549
780.192749	933.539368	1891.895874	1685.631470	78.477280
780.505920	928.932617	1895.239380	1686.300293	78.377563
780.819031	921.056458	1880.007446	1672.851440	78.397644
781.132141	970.765076	1950.520874	1725.383423	77.021065
781.445190	978.195313	1952.378296	1715.055298	75.638763
781.758118	997.885498	1970.285278	1719.810669	74.241600
782.071045	933.985168	1890.632813	1659.551270	75.844658
782.383911	927.892334	1865.295532	1644.096313	76.402977
782.696838	917.415710	1840.404175	1629.458618	77.145378
783.009583	924.623047	1835.054199	1613.334961	75.646790
783.322266	918.976074	1840.626953	1613.780762	75.386971
783.634888	912.734558	1831.636353	1599.663452	74.755417
783.947510	903.892578	1819.227905	1585.322876	74.445976
784.260132	911.025574	1810.980347	1578.189819	74.133087
784.572571	913.254700	1807.636719	1580.716187	74.628235
784.885010	921.205078	1804.070190	1588.517944	75.584915
785.197449	928.338196	1795.822632	1597.062622	77.087769
785.509766	948.325623	1784.305664	1592.530273	77.059814
785.822083	944.684814	1783.116699	1578.189819	75.558311
786.134277	942.678528	1779.624390	1577.743774	75.878891
786.446533	933.242188	1782.447876	1581.533325	76.340881
786.758606	945.799316	1797.828613	1599.588989	76.733238
787.070740	945.947937	1802.955566	1601.520874	76.495575
787.382690	939.929382	1803.921509	1603.526978	76.805977
787.694641	918.084412	1788.095093	1605.161743	78.973434
788.006653	918.827454	1791.735840	1615.043945	79.758255
788.318481	923.062683	1832.379395	1649.000366	79.833313
788.630310	925.068848	1865.592773	1668.616211	79.056717
788.942017	907.979248	1885.134399	1683.253906	79.339973
789.253784	910.059753	1894.496460	1692.541626	79.485237
789.565430	911.471497	1897.171387	1688.678101	78.848198
789.877014	922.765564	1884.168457	1674.114624	78.151321
790.188538	926.406311	1864.181030	1656.207642	77.822670
790.500061	926.554932	1832.082153	1634.808472	78.214493
790.811462	917.638611	1814.918335	1611.477417	77.326927
791.122925	918.901672	1796.788452	1590.969849	76.555222
791.434204	913.923401	1780.887695	1573.062866	76.028442
791.745483	920.462097	1775.760742	1572.022583	76.179298
792.056702	908.127869	1745.668091	1550.028931	76.641220
792.367920	922.988464	1739.278320	1553.669922	77.261948
792.678955	918.678894	1713.569336	1536.357422	77.706123
792.990112	926.183411	1717.136108	1543.564819	78.055412
793.301086	908.127930	1697.891602	1528.035522	78.492798
793.612122	917.044189	1713.346313	1541.707153	78.445473
793.922974	911.248535	1694.696411	1525.211914	78.366844
794.233826	920.982178	1699.154663	1537.397583	79.213211
794.544556	919.570496	1681.693481	1522.685547	79.136185
794.855286	918.604492	1680.876343	1522.982910	79.286469
795.166016	924.920227	1692.467407	1524.840454	78.160698
795.476624	921.205078	1701.755249	1539.255249	79.181351
795.787292	921.873840	1713.643555	1552.332397	79.626503
796.097778	910.059753	1725.160522	1557.087769	79.380127
796.408264	907.681946	1745.816772	1562.660522	78.147163
796.718689	912.957520	1754.956055	1570.165039	78.053284
797.029053	916.152527	1744.553711	1577.818359	79.872635
797.339355	917.341370	1732.367798	1582.127930	81.566261
797.649658	914.963684	1731.327637	1584.579956	82.024231
797.959839	923.359863	1729.916016	1563.255005	79.336716
798.270020	929.972839	1728.801392	1551.663696	77.825317
798.580078	943.124451	1738.980835	1557.682251	77.219688
798.890137	933.985168	1723.377319	1552.926880	78.407379
799.200195	925.143250	1702.572632	1542.004395	79.346260
799.510071	910.951355	1668.764771	1511.688843	79.272476
799.820007	914.443604	1662.671875	1508.047852	79.334648
800.129883	912.140137	1652.789673	1508.196655	80.477539
800.439575	907.681946	1661.483276	1508.270996	79.674713
800.749329	908.870911	1668.393188	1502.252319	78.125610
801.058960	908.276428	1667.130249	1494.376343	77.234894
801.368591	912.511719	1648.703125	1494.599243	79.067413
801.678162	908.796570	1628.418335	1495.565063	81.538460
801.987671	915.112305	1625.669312	1498.017212	82.034927
802.297119	917.415710	1631.762085	1499.131714	81.433327
802.606506	911.025635	1628.864258	1488.729370	80.478218
802.915894	906.418945	1631.390625	1472.977173	78.149017
803.225159	899.657410	1607.613647	1450.017578	77.739296
803.534424	907.830627	1607.242188	1451.206421	77.690422
803.843628	907.979187	1590.969849	1460.197144	80.852928
804.152771	918.827454	1600.703613	1474.017456	81.420944
804.461792	929.229797	1607.167969	1489.844116	82.694016
804.770874	933.613770	1618.164673	1488.283691	81.026833
805.079773	925.440430	1614.969604	1489.843872	81.853455
805.388733	909.688232	1609.248413	1481.373413	81.720657
805.697571	911.768738	1607.019165	1488.952148	83.018059
806.006470	911.620117	1615.861328	1488.952148	81.979301
806.315125	908.573730	1623.514526	1489.100708	81.199310
806.623901	904.709961	1620.468140	1493.335938	82.238106
806.932495	901.514954	1616.009766	1485.311401	81.707581
807.241150	908.053528	1609.248413	1483.602417	82.081161
807.549622	915.335266	1603.304077	1470.971069	80.764679
807.858154	919.273254	1590.078125	1462.500366	80.981392
808.166565	919.050354	1582.202148	1447.342773	79.663872
808.474915	914.815125	1583.242310	1446.673950	79.568703
808.783264	922.691223	1590.003906	1458.636719	80.313995
809.091492	916.895569	1579.898804	1453.212524	80.892059
809.399719	912.214539	1571.205444	1433.150879	79.050613
809.707825	909.316711	1565.855469	1419.404907	77.693542
810.015930	914.889404	1557.682251	1420.370728	78.638290
810.323975	924.474426	1550.623413	1429.510132	80.657433
810.632080	912.734619	1538.214844	1422.228516	81.456436
810.939880	904.115540	1531.230469	1418.438965	82.014221
811.247864	899.657410	1534.128418	1414.723755	81.180435
811.555664	900.177490	1520.308105	1412.643188	82.638351
811.863464	899.434509	1511.317383	1403.355469	82.355789
812.171143	882.716309	1489.472290	1386.414429	83.014938
812.478882	883.830811	1493.633301	1385.002563	82.185913
812.786438	902.109192	1507.973633	1403.949829	82.830513
813.094055	920.759277	1513.695190	1415.169556	83.383423
813.401489	912.660339	1496.011108	1407.293579	84.791733
813.708984	909.985413	1478.847168	1383.516602	83.241875
814.016357	921.130859	1498.537476	1400.234863	82.975151
814.323730	939.929382	1525.583496	1406.624878	79.687904
814.630981	927.075012	1522.611328	1399.640503	79.351250
814.938232	915.037903	1509.756958	1381.733398	78.473274
815.245361	903.000977	1493.707642	1381.361816	80.981117
815.552490	908.796570	1499.874634	1381.733398	80.012581
815.859619	905.304382	1491.701538	1375.937866	80.258484
816.166565	917.564270	1485.757202	1381.733398	81.692169
816.473572	922.691223	1478.624023	1390.798462	84.202126
816.780457	922.616882	1478.104004	1401.349243	86.182442
817.087341	917.564270	1487.094604	1398.971680	84.527092
817.394043	907.979187	1495.936646	1402.983887	84.190567
817.700806	909.019348	1498.165649	1397.039673	82.835167
818.007507	910.431213	1502.549683	1400.011719	82.682861
818.314209	914.889343	1509.014038	1409.225464	83.204102
818.620667	913.774841	1521.273926	1419.182007	83.194717
818.927246	910.579834	1540.221069	1437.832031	83.738510
819.233704	912.140198	1562.883423	1455.813110	83.546455
819.540161	911.471497	1572.988647	1480.778931	86.060875
819.846497	912.437439	1607.910767	1515.626831	86.730774
820.152832	909.539551	1646.622681	1556.493286	87.772156
820.458984	905.229980	1716.838745	1609.322632	86.752716
820.765259	905.675781	1774.274780	1658.585327	86.680916
821.071350	911.174316	1853.184082	1731.476440	87.080002
821.377502	913.477722	1952.972656	1838.249390	88.963562
821.683472	914.517883	2160.946045	2037.900757	90.128159
821.989441	902.852356	2553.041260	2414.838379	91.625031
822.295349	905.155762	3164.776123	3013.198242	93.291885
822.601196	896.313721	3951.344482	3762.912842	93.832085
822.907043	906.641846	4674.830078	4452.664551	94.104179
823.212769	905.081543	5176.150879	4830.642578	91.910500
823.518494	913.997742	5288.941895	4817.937012	89.234032
823.824097	910.134033	5051.173340	4449.098145	85.460777
824.129700	917.118469	4596.515137	3929.128174	81.861511
824.435242	912.214539	4081.596924	3381.962891	77.925224
824.740723	911.620117	3637.563721	2923.217773	73.794540
825.046082	899.880188	3256.836914	2566.118652	70.694489
825.351501	898.096985	2957.322998	2310.145752	68.571823
825.656799	898.617126	2715.170166	2137.243408	68.185524
825.962036	896.239441	2524.212158	2030.990601	69.703331
826.267212	906.567566	2379.544678	1985.071411	73.219330
826.572449	917.564270	2305.985107	1996.662720	77.721275
826.877502	920.982239	2336.746338	2080.030273	81.867317
827.182495	932.350586	2483.197021	2244.759521	84.625328
827.487488	917.935852	2657.139648	2425.835205	86.700554
827.792419	921.873840	2808.345703	2574.218018	87.589127
828.097290	894.456116	2836.134766	2588.186768	87.230225
828.402100	903.446777	2805.447998	2527.481445	85.385574
828.706848	906.716064	2688.272461	2385.563232	83.008720
829.011597	911.991638	2511.283447	2203.224365	80.737778
829.316223	898.840027	2304.201416	1995.845337	78.058601
829.620789	908.499329	2131.447998	1821.531128	74.658226
829.925354	927.149353	2007.956665	1705.247437	71.992302
830.229797	936.511475	1909.877075	1618.759155	70.091614
830.534302	951.966492	1824.503296	1578.338501	71.787460
830.838562	936.734375	1725.012085	1520.010742	73.993767
831.142944	937.031555	1652.195313	1488.432129	77.101303
831.447144	902.926697	1577.521118	1423.342896	77.145050
831.751404	901.514954	1551.292358	1406.699219	77.747284
832.055542	908.499329	1536.283203	1409.597046	79.820099
832.359619	907.979248	1530.338867	1410.637085	80.766464
832.663635	919.644714	1537.917603	1427.949707	82.213699
832.967651	907.533386	1559.465454	1450.909180	83.348526
833.271545	914.963684	1615.638306	1510.500000	84.994705
833.575439	900.771973	1696.479858	1607.836548	88.859818
833.879211	899.434509	1824.206055	1731.996460	90.028931
834.183044	900.994812	1968.130493	1872.279785	91.017937
834.486694	899.657288	2088.203369	1966.644531	89.772476
834.790344	923.285583	2161.540283	2027.795532	89.198936
835.093933	914.517883	2145.639648	1992.427368	87.555061
835.397522	912.957520	2078.395752	1899.028931	84.609497
835.700928	888.289063	1953.121460	1769.444946	82.750664
836.004395	914.369324	1873.988892	1672.034180	78.954712
836.307739	923.657043	1784.231079	1584.208374	76.757057
836.611023	930.418640	1716.318481	1498.388672	72.270027
836.914307	903.966858	1616.084351	1421.336548	72.652290
837.217529	914.740784	1576.035034	1397.039673	72.932571
837.520691	913.403320	1519.193359	1358.476685	73.469902
837.823730	910.877014	1478.475464	1328.384033	73.556755
838.126831	896.090820	1420.370728	1292.644409	75.637764
838.429749	903.075256	1393.993286	1294.056030	79.642784
838.732727	906.270325	1375.491821	1291.455444	82.090256
839.035522	904.932800	1361.077271	1274.068726	80.925224
839.338379	895.942200	1351.269165	1255.715942	79.014374
839.641113	897.205322	1345.547974	1263.815063	81.769989
839.943848	904.115540	1369.027710	1295.096436	84.097801
840.246460	907.013367	1390.203979	1324.297363	86.360123
840.549072	903.075256	1426.017700	1343.987549	84.313736
840.851563	899.211487	1443.850464	1357.436401	84.133698
841.154053	899.731628	1445.113647	1366.501343	85.585831
841.456482	900.028809	1434.711304	1356.470581	85.366882
841.758850	904.487000	1415.095337	1334.105347	84.138527
842.061157	900.697571	1396.371094	1294.502075	79.448364
842.363403	908.053528	1365.832642	1262.626221	77.454971
842.665588	891.186829	1320.953735	1213.809204	75.069153
842.967712	905.007141	1299.108765	1201.697876	75.282799
843.269775	904.189758	1284.173950	1189.883789	75.185768
843.571777	907.459167	1271.245239	1179.109985	74.673233
843.873840	899.211609	1258.019409	1170.119263	75.502167
844.175659	905.824524	1243.753296	1173.685791	79.265602
844.477600	935.694153	1259.208252	1198.279907	81.166710
844.779297	938.963562	1254.452881	1199.617554	82.618958
845.081116	930.418701	1244.347656	1180.373047	79.621307
845.382751	911.397217	1228.149780	1164.249268	79.826363
845.684387	899.657410	1211.728638	1146.565308	79.119087
845.985962	896.833801	1198.131348	1133.859497	78.668312
846.287537	891.929871	1179.630005	1125.537720	81.198380
846.588989	905.081482	1172.274048	1125.983521	82.675217
846.890381	909.019531	1171.456665	1134.008179	85.730492
847.191711	919.421875	1170.713745	1125.240356	81.904152
847.493042	911.471436	1176.732300	1123.680054	79.999969
847.794250	923.657166	1182.973633	1125.983398	78.022903
848.095459	918.901794	1181.413208	1136.460083	82.875748
848.396606	915.483887	1175.394775	1129.104126	82.189796
848.697693	902.406555	1169.450562	1120.484985	81.663857
848.998657	901.366394	1160.162720	1104.286987	78.409378
849.299622	917.861572	1164.174927	1106.293335	76.500832
849.600464	907.459167	1160.979980	1097.599976	75.000076
849.901367	899.954590	1158.305054	1090.615356	73.799271
850.202087	885.762695	1144.707642	1089.575073	78.708771
850.502808	904.635559	1143.741821	1089.426392	77.283981
850.803467	907.682068	1147.902710	1092.844360	77.080093
851.104065	924.697449	1163.803589	1102.503784	74.362930
851.404663	921.205139	1163.134888	1111.865845	78.808296
851.705139	918.901794	1162.540405	1110.974365	78.835030
852.005615	907.533386	1156.298950	1100.274658	77.479080
852.306030	894.604797	1151.097778	1086.603027	74.855156
852.606384	900.771912	1151.989380	1095.445068	77.491890
852.906616	902.703796	1147.902710	1094.256226	78.121239
853.206909	908.499329	1141.884155	1095.370728	80.070068
853.506958	899.508789	1134.825439	1087.568970	79.917923
853.807129	888.214661	1127.172241	1084.076660	81.965172
854.107178	896.982422	1130.070190	1082.664917	79.662048
854.407166	912.437439	1131.184692	1087.717529	80.129044
854.707092	917.267090	1126.949341	1086.751587	80.829208
855.007019	909.539551	1129.029785	1087.271729	80.974983
855.306763	905.378601	1123.531372	1081.327515	80.653992
855.606567	903.000977	1115.283813	1068.547485	77.983932
855.906250	901.291992	1107.407837	1070.776489	82.227783
856.205933	901.737793	1109.934082	1071.668091	81.620232
856.505493	903.075195	1111.420044	1073.228516	81.669083
856.805054	915.335205	1120.485107	1078.355347	79.463913
857.104492	910.728516	1122.639771	1080.287231	80.014023
857.403931	913.106140	1131.481812	1090.615356	81.286171
857.703308	901.663513	1116.398438	1079.395630	82.768143
858.002563	895.645020	1107.407715	1067.878662	81.333328
858.301819	896.759583	1109.636841	1062.603149	77.905724
858.601013	904.189880	1125.686157	1072.931274	76.182495
858.900208	909.242432	1122.193970	1081.476074	80.879265
859.199219	910.877136	1122.639771	1082.813477	81.192955
859.498291	915.929688	1116.992798	1078.726929	80.968231
859.797302	931.310364	1126.503540	1077.909668	75.104729
860.096191	950.926270	1141.438477	1088.312012	72.113876
860.395020	937.848938	1135.642944	1080.584473	72.163734
860.693787	919.198975	1126.503540	1070.330688	72.903229
860.992554	892.672852	1095.742188	1050.789063	77.863167
861.291260	905.824402	1101.760742	1059.408203	78.384544
861.589844	909.242371	1104.732910	1060.522583	77.384926
861.888428	920.387756	1106.590454	1071.147949	80.965630
862.186890	918.307312	1105.253052	1071.073730	81.716980
862.485413	922.171082	1098.714355	1073.451416	85.690231
862.783813	908.796570	1098.342896	1066.987061	83.457428
863.082153	901.514832	1086.677246	1066.095459	88.884468
863.380371	900.920410	1100.200439	1070.925171	85.309479
863.678589	903.075256	1098.788696	1074.788940	87.737297
863.976746	904.635559	1105.624512	1059.482422	77.042473
864.274902	902.778076	1093.735962	1051.903687	78.093452
864.572937	906.195984	1091.804199	1043.656128	74.059303
864.870911	917.638611	1101.835083	1060.448608	77.531342
865.168884	913.477600	1099.828979	1057.104858	77.073357
865.466736	910.133972	1110.528442	1053.166748	71.375610
865.764587	894.233215	1093.290161	1041.426880	73.945503
866.062317	899.657288	1102.057983	1050.937744	74.743050
866.360107	903.446777	1097.376953	1058.070801	79.731804
866.657715	906.939026	1099.754517	1059.556763	79.152214
866.955322	896.908203	1088.757690	1053.538208	81.642128
867.252808	887.397400	1091.209839	1050.640503	80.094772
867.550293	886.654297	1090.838379	1053.612671	81.768555
867.847717	892.747131	1097.822754	1052.349487	77.826096
868.145081	902.183594	1088.609253	1046.851074	77.600624
868.442383	904.189758	1094.479126	1045.290771	74.150757
868.739624	914.740784	1093.438843	1056.436035	79.293114
869.036804	917.267090	1109.339722	1069.662109	79.342392
869.333984	909.391052	1101.983765	1062.083130	79.282379
869.631042	895.347839	1093.810425	1039.717896	72.744217
869.928101	884.202454	1082.219116	1024.337280	70.769211
870.224976	893.415955	1079.024048	1026.343384	71.617256
870.521851	934.133789	1127.098022	1080.138550	75.664154
870.818726	933.613586	1125.537598	1077.909546	75.183899
871.115479	936.882996	1140.695435	1085.042603	72.694092
871.412231	911.248535	1105.698853	1052.572388	72.678642
871.708862	905.675842	1097.748413	1054.949951	77.717560
872.005493	898.691406	1087.568848	1042.392944	76.081894
872.302063	883.162170	1090.020874	1036.968750	74.353447
872.598572	895.422119	1104.286987	1048.039917	73.070114
872.895020	894.976257	1110.602783	1057.847778	75.534081
873.191406	901.069092	1109.562500	1063.271851	77.797546
873.487671	898.765808	1102.206543	1055.767334	77.173103
873.783997	909.242432	1111.048462	1063.866333	76.620056
874.080200	905.898743	1107.036255	1056.361816	74.806076
874.376343	905.230042	1105.847412	1053.612549	73.962944
874.672424	908.350769	1106.367554	1053.761230	73.433403
874.968445	909.762512	1113.203247	1054.950073	71.366020
875.264465	910.134033	1113.574829	1065.723999	76.479233
875.560364	905.750183	1105.698853	1062.677612	78.483856
875.856201	900.028809	1094.479004	1050.714844	77.493385
876.152039	899.434387	1099.977417	1045.142090	72.656578
876.447754	891.484070	1097.748413	1037.637573	70.857376
876.743469	910.951355	1111.643066	1062.306030	75.416504
877.039063	904.264160	1110.305542	1062.380249	76.739967
877.334595	905.007141	1105.847412	1060.894165	77.617416
877.630127	889.180664	1093.958984	1048.337036	77.721298
877.925537	899.211487	1096.708130	1051.755005	77.238541
878.221008	893.713074	1100.200317	1044.027588	72.796028
878.516296	887.917480	1106.739014	1037.934692	68.556877
878.811646	882.790588	1109.562500	1031.990479	65.792931
879.106812	894.901917	1134.230957	1062.305908	69.947212
879.401978	890.666748	1138.837769	1076.572144	74.910194
879.697083	897.279724	1159.122437	1102.429565	78.348503
879.992126	893.713135	1174.428833	1118.033081	79.910011
880.287109	908.053528	1213.586426	1148.274292	78.623535
880.582031	907.384766	1258.167969	1186.317261	79.517059
880.876892	899.954590	1323.628662	1247.319824	81.988785
881.171753	897.056824	1461.980347	1380.990356	85.663551
881.466492	900.771912	1698.634399	1616.232788	89.672203
881.761230	902.555115	2013.232056	1922.583008	91.838394
882.055786	900.325989	2353.315674	2220.908203	90.887238
882.350403	892.078430	2589.672607	2397.302979	88.668106
882.644958	885.465515	2686.191895	2421.822754	85.318748
882.939453	887.397461	2608.768311	2310.071533	82.647736
883.233826	894.679138	2474.132080	2126.618164	77.997833
883.528137	901.217712	2292.461914	1910.917358	72.575302
883.822449	900.920471	2136.797607	1723.228638	66.536400
884.116577	896.833801	1977.864136	1568.381836	62.121113
884.410828	895.050537	1858.682617	1451.949585	57.791668
884.704956	906.047363	1741.507202	1366.872681	55.158283
884.999023	903.372498	1638.672241	1296.731079	53.496357
885.292969	902.852356	1521.125366	1259.208130	57.637283
885.586914	885.837097	1422.822754	1204.967163	59.429905
885.880798	898.914368	1356.916260	1183.716675	62.183655
886.174622	911.471497	1328.904175	1157.190552	58.864357
886.468384	912.586121	1294.724976	1149.017212	61.870468
886.762085	900.994812	1266.415649	1136.534546	64.457115
887.055664	889.106384	1230.750366	1128.138184	69.965172
887.349304	891.112549	1207.196289	1114.689453	70.733444
887.642822	890.592468	1172.199707	1095.073364	72.612091
887.936340	893.490234	1157.339233	1080.658813	70.937767
888.229736	890.369446	1145.153442	1073.228516	71.770233
888.523071	887.768860	1142.032715	1070.107788	71.712486
888.816284	911.248535	1157.116333	1086.825928	71.411301
889.109619	937.031677	1161.128662	1086.454468	66.677734
889.402710	947.656921	1156.893433	1081.550415	63.991459
889.695862	924.103027	1114.838013	1051.680664	66.887383
889.988892	899.285889	1097.376831	1035.036987	68.529686
890.281921	883.162231	1087.568970	1017.575806	65.757896
>>>>>End Processed Spectral Data<<<<<
