Jaz Data File
++++++++++++++++++++++++++++++++++++
Date: Fri Jun 04 13:45:37 2021
User: jaz
Dark Spectrum Present: Yes
Reference Spectrum Present: Yes
Processed Spectrum Present: Yes
Spectrometers: JAZA3586
Integration Time (usec): 386000 (JAZA3586)
Spectra Averaged: 10 (JAZA3586)
Boxcar Smoothing: 1 (JAZA3586)
Correct for Electrical Dark: No (JAZA3586)
Strobe/Lamp Enabled: Yes (JAZA3586)
Correct for Detector Non-linearity: No (JAZA3586)
Correct for Stray Light: No (JAZA3586)
Number of Pixels in Processed Spectrum: 2048
>>>>>Begin Processed Spectral Data<<<<<
W	D	R	S	P
191.335022	0.000000	0.000000	0.000000	0.000000
191.713211	286.065460	285.248138	285.545380	63.632290
192.091385	572.502502	577.257874	579.486938	146.874680
192.469528	854.406982	861.837219	864.215027	132.001770
192.847641	859.682556	865.923828	871.868164	195.242386
193.225739	885.911377	882.047607	886.357178	-11.537975
193.603790	921.205139	908.276550	905.824463	118.966393
193.981842	931.979004	931.904785	919.421875	16919.078125
194.359863	932.573425	939.037842	931.830383	-11.494340
194.737854	946.170898	946.913879	947.211121	140.006577
195.115829	950.108887	942.530029	948.994324	14.706214
195.493774	946.170837	931.384583	935.991394	68.843956
195.871704	932.499207	924.103027	928.041016	53.097855
196.249603	954.121277	933.465088	939.037842	73.021385
196.627457	952.337952	942.604309	937.626038	151.145004
197.005310	948.399902	940.300964	937.328796	136.698242
197.383133	928.486816	932.424988	931.979004	88.675354
197.760910	946.839539	940.375305	950.331848	-54.025116
198.138687	946.839600	944.536194	958.430847	-503.222137
198.516449	949.663086	944.164612	952.783875	-56.757359
198.894180	927.966614	930.715820	932.945007	181.084747
199.271866	925.291748	933.687988	920.164856	-61.061760
199.649536	922.765442	935.174011	923.211243	3.592685
200.027191	932.870667	943.793030	939.112122	57.143814
200.404816	924.325867	940.300842	934.133789	61.395538
200.782410	923.880066	954.046875	950.331848	87.685051
201.159988	922.616882	964.077820	943.570251	50.537617
201.537537	931.756165	977.377991	952.115051	44.625320
201.915070	928.561218	968.610352	936.660095	20.222353
202.292557	920.685059	963.780579	942.827209	51.379242
202.670029	919.719177	959.396729	952.709473	83.145996
203.047485	921.502441	963.483398	952.263672	73.274246
203.424911	920.016357	963.929199	949.217285	66.497467
203.802292	913.997803	969.353333	947.210999	59.999779
204.179688	909.465332	967.867249	956.276062	80.152733
204.557037	912.363098	964.597961	955.087158	81.792229
204.934357	925.737610	956.350342	958.802246	108.009430
205.311661	936.288574	955.161438	948.325684	63.779984
205.688934	933.242188	959.396729	944.759094	44.034061
206.066177	919.570496	957.019043	934.654053	40.278084
206.443390	908.796631	960.436951	941.192627	62.733917
206.820587	908.870911	949.365906	939.780823	76.330200
207.197769	923.508545	966.678406	950.257507	61.962124
207.574921	926.332031	963.706299	945.576477	51.491165
207.952042	931.533203	973.514221	948.845764	41.239021
208.329147	931.236023	965.489563	943.718933	36.442688
208.706223	1056.881958	1091.878540	1063.717773	19.532808
209.083267	1059.556763	1097.971313	1072.485474	33.655766
209.460297	1049.600220	1098.119995	1069.216187	40.428806
209.837280	920.759277	970.393555	948.845703	56.586754
210.214264	906.344543	961.179993	938.369080	58.401157
210.591217	898.617126	952.189392	937.477478	72.538193
210.968124	907.384827	968.387390	945.799316	62.971928
211.345016	922.245422	974.183044	952.635193	58.512054
211.721893	922.839844	977.526611	946.988220	44.157623
212.098724	917.638672	957.390625	942.381531	62.243126
212.475555	922.542664	960.214111	940.895325	48.717697
212.852356	933.390686	959.248230	948.771484	59.482826
213.229126	940.003723	970.170593	950.480408	34.729107
213.605865	923.880066	955.904480	936.288574	38.747028
213.982590	911.768738	956.053040	934.951172	52.349102
214.359283	899.805969	953.155273	929.155518	55.013927
214.735931	895.942200	960.511230	939.260742	67.088730
215.112579	900.400391	967.644287	947.136780	69.502800
215.489197	901.440613	968.610352	945.204895	65.154762
215.865799	909.168152	980.275879	941.787048	45.872505
216.242355	903.818298	971.359558	937.180237	49.394901
216.618896	918.307312	983.768066	946.022278	42.338291
216.995407	915.409424	969.873352	944.907654	54.161041
217.371902	914.889343	968.387390	935.545593	38.611221
217.748367	902.183594	955.978821	932.870605	57.044117
218.124802	902.852356	961.551514	931.904724	49.493671
218.501236	903.595398	957.539124	934.282410	56.887081
218.877609	908.499329	960.288391	927.149353	36.011513
219.253983	904.858582	960.065430	931.979004	49.125107
219.630295	903.669617	983.247864	934.579590	38.842239
220.006592	900.846191	991.644043	944.981934	48.608795
220.382889	907.533386	998.554199	947.433899	43.836693
220.759140	914.146301	988.746277	945.947937	42.629551
221.135391	910.877014	994.244690	950.480408	47.504494
221.511581	903.669739	994.913391	942.827209	42.915283
221.887772	899.508789	1005.092957	947.136780	45.109028
222.263931	911.248535	1011.780212	947.062500	35.624557
222.640060	924.994568	1017.947266	965.861084	43.964851
223.016159	926.852112	1022.999817	962.963196	37.557926
223.392212	914.220703	1022.033875	954.046936	36.940044
223.768265	899.434387	1027.532349	943.347351	34.280766
224.144302	892.672913	1027.532349	941.861328	36.473839
224.520294	893.787415	1023.668640	934.951172	31.693386
224.896286	909.242432	1033.179321	940.821045	25.479591
225.272217	919.124695	1041.947144	948.622864	24.016920
225.648148	927.595215	1066.392578	972.399719	32.280514
226.024048	909.019470	1065.798218	963.037537	34.454967
226.399902	903.743958	1077.612305	956.796143	30.512848
226.775772	894.307556	1072.708374	945.056335	28.446495
227.151581	910.431152	1098.194214	959.694031	26.236725
227.527374	903.669617	1127.469360	972.251160	30.644156
227.903137	910.579773	1175.394897	983.247864	27.441065
228.278870	908.127869	1238.329224	994.021790	26.012589
228.654572	914.369324	1308.396729	998.182800	21.270977
229.030273	909.688171	1396.891235	1007.470642	20.070168
229.405930	901.589172	1473.497192	1006.801941	18.396799
229.781555	906.121765	1537.992065	1014.157898	17.097834
230.157181	908.276550	1551.960938	1007.173401	15.364183
230.532761	904.338379	1529.001343	999.668884	15.261110
230.908325	895.570618	1470.748047	990.232422	16.457844
231.283859	892.598572	1427.578125	1000.634766	20.194452
231.659332	899.434387	1381.139038	995.879395	20.021606
232.034821	902.778015	1356.321899	993.501709	20.003288
232.410263	903.298157	1334.996948	977.452332	17.177296
232.785690	899.508728	1312.037476	981.167480	19.794682
233.161087	903.075195	1299.851685	982.653503	20.056206
233.536469	904.264099	1280.235840	982.059021	20.691694
233.911804	907.161865	1289.449463	989.415039	21.516047
234.287140	909.688171	1298.291382	991.867004	21.147234
234.662430	912.363098	1324.446045	1000.040344	21.276602
235.037704	912.734619	1341.981445	1001.600769	20.702808
235.412933	901.514954	1348.000000	1001.823547	22.466284
235.788162	893.044434	1346.365356	995.953674	22.701189
236.163345	900.549011	1348.371460	1003.755371	23.046268
236.538513	908.053650	1364.792358	1008.436523	21.978184
236.913635	908.722351	1371.108032	1018.021484	23.638088
237.288742	901.217773	1377.423828	1016.015381	24.106709
237.663834	898.171326	1372.668457	1022.925537	26.291880
238.038879	899.880188	1375.937866	1017.427185	24.691755
238.413910	898.394226	1389.683716	1014.752258	23.684210
238.788910	899.285828	1402.538208	1002.492371	20.507910
239.163879	903.595398	1417.770142	1007.842102	20.274567
239.538834	908.573669	1425.051880	1021.216614	21.809816
239.913757	914.294983	1469.336304	1053.018188	24.993311
240.288651	916.375488	1509.756836	1069.141968	25.745075
240.663528	908.127869	1562.214478	1071.593872	24.991491
241.038361	897.725403	1609.619751	1073.674438	24.715611
241.413177	897.948425	1708.219604	1099.754517	24.905994
241.787979	899.508789	1819.970825	1120.262085	23.982880
242.162735	903.818359	1958.619629	1143.073120	22.682449
242.537476	896.833801	2076.760986	1146.119507	21.127211
242.912170	919.050293	2205.007568	1167.295776	19.304333
243.286865	924.920227	2262.815186	1176.509277	18.804842
243.661514	924.697327	2259.768799	1169.970581	18.371544
244.036148	912.883118	2186.951904	1159.865356	19.385313
244.410751	914.740784	2082.259521	1147.679810	19.951630
244.785339	916.747009	1999.040405	1145.525024	21.138262
245.159882	913.626221	1949.777710	1151.766479	22.983150
245.534378	916.003906	1986.854858	1170.936646	23.806557
245.908890	913.477600	2072.005859	1198.874390	24.634424
246.283356	907.236145	2235.694580	1243.530273	25.314613
246.657791	888.214661	2451.172607	1288.186279	25.590683
247.032196	896.833801	2719.405029	1336.854614	24.142859
247.406586	900.994690	2953.755859	1355.950317	22.163105
247.780960	911.694336	3110.163086	1360.854370	20.430586
248.155289	900.325989	3134.237305	1352.235229	20.229506
248.529602	897.725403	3042.547852	1319.319214	19.656349
248.903870	901.143372	2861.620850	1288.260620	19.746069
249.278122	904.784180	2650.155273	1246.056641	19.553003
249.652344	897.725525	2462.020752	1220.570801	20.638386
250.026550	896.908203	2311.557861	1197.239746	21.230101
250.400711	916.226868	2211.323242	1195.382202	21.554790
250.774857	924.103027	2137.243408	1201.029175	22.827213
251.148987	927.298035	2105.442139	1201.772095	23.297157
251.523071	907.904968	2105.293701	1209.351074	25.175293
251.897125	926.629211	2160.351807	1221.908325	23.933994
252.271164	916.003906	2223.211914	1229.710083	23.998184
252.645187	912.808899	2283.694092	1232.087769	23.289978
253.019165	892.524231	2297.291748	1215.072510	22.960972
253.393112	920.610657	2290.455566	1219.159180	21.794329
253.767044	925.663269	2211.546143	1204.075562	21.651451
254.140930	928.858337	2130.110352	1204.670044	22.960354
254.514801	910.356934	2040.947266	1198.354370	25.473190
254.888657	911.099915	1997.777344	1190.701172	25.729921
255.262466	914.815125	1962.334961	1182.750610	25.578083
255.636276	923.285645	1973.926147	1195.753784	25.933527
256.010010	924.845947	1996.365601	1229.412842	28.423828
256.383759	921.948181	2038.272339	1248.954468	29.293129
256.757446	910.059753	2080.996338	1266.564087	30.446085
257.131134	906.493225	2157.973877	1279.715698	29.822472
257.504791	902.629456	2259.025391	1316.792847	30.534105
257.878418	903.521057	2365.352783	1344.656372	30.176886
258.252014	911.471436	2515.964600	1396.445313	30.225986
258.625580	915.558105	2692.581787	1461.311523	30.711657
258.999115	906.195984	2939.787109	1530.784668	30.713583
259.372650	900.103210	3214.038330	1600.183472	30.254967
259.746124	892.004150	3535.992188	1656.579102	28.917490
260.119598	899.211426	3831.642578	1705.173218	27.484423
260.493042	898.096924	4030.105225	1723.451538	26.352249
260.866425	903.669617	4079.516602	1700.714966	25.097095
261.239838	902.926575	3933.289063	1631.762085	24.051100
261.613159	903.669678	3662.158203	1556.047485	23.649828
261.986511	904.264160	3344.142578	1495.565063	24.234852
262.359802	912.734619	3084.677490	1457.967896	25.103481
262.733063	908.425049	2920.096924	1433.596680	26.106228
263.106293	913.626221	2820.679688	1424.754517	26.801991
263.479523	911.174255	2762.203857	1430.624634	28.062782
263.852692	923.508545	2723.714600	1427.206665	27.980026
264.225861	917.712952	2684.185791	1412.791992	28.026417
264.598969	921.205139	2666.427490	1415.020996	28.295296
264.972076	919.198975	2672.297607	1427.801147	29.011612
265.345154	926.777832	2719.108154	1463.243530	29.931185
265.718201	915.112305	2767.107422	1487.763306	30.920761
266.091217	927.075012	2861.174561	1532.716431	31.313869
266.464203	927.223633	2945.731201	1566.301392	31.660904
266.837158	928.858215	3059.340088	1592.381714	31.144291
267.210114	906.716125	3136.391846	1596.468262	30.935087
267.583038	899.583069	3201.406982	1594.239258	30.178511
267.955902	908.350769	3235.289063	1597.880005	29.632469
268.328766	910.356934	3226.372803	1603.675781	29.935843
268.701569	906.790344	3227.635986	1611.254517	30.353769
269.074371	891.855652	3230.310791	1611.031616	30.754320
269.447144	898.171326	3265.084229	1627.824097	30.827192
269.819885	903.223877	3318.359375	1652.121094	31.008497
270.192596	916.003906	3419.634033	1719.736450	32.102688
270.565277	926.109070	3577.081299	1808.751099	33.295033
270.937927	917.787170	3756.819580	1883.425293	34.012928
271.310577	914.146301	3973.041016	1938.260742	33.479885
271.683136	899.657410	4175.367188	1957.431030	32.291435
272.055725	901.440674	4344.777344	1969.690918	31.023695
272.428284	899.211609	4382.151855	1946.657104	30.073601
272.800812	897.874023	4332.071777	1916.787231	29.669613
273.173279	907.087585	4185.843750	1883.202515	29.770891
273.545776	906.493164	4063.467529	1863.512085	30.314434
273.918152	916.152527	3939.678955	1849.171753	30.858644
274.290558	911.620117	3880.682861	1839.289429	31.244516
274.662964	917.861511	3820.794678	1831.413452	31.469961
275.035278	904.264099	3775.395752	1832.305054	32.323177
275.407593	909.391052	3769.525391	1859.276855	33.211231
275.779907	911.843018	3831.568359	1893.530396	33.622593
276.152161	917.341370	3925.932861	1907.425171	32.908546
276.524384	915.632385	4015.319092	1924.514771	32.547882
276.896606	914.889404	4067.628174	1938.112183	32.455044
277.268799	916.672668	4114.661621	1956.762085	32.523232
277.640930	909.465271	4123.949219	1945.616821	32.233841
278.013031	907.533447	4136.432617	1945.468140	32.145157
278.385162	907.310547	4116.073730	1944.427856	32.321404
278.757233	907.904968	4103.516602	1966.718750	33.133366
279.129272	901.737793	4085.535156	1981.133423	33.902775
279.501282	893.416016	4097.200684	1999.932129	34.537781
279.873230	895.199219	4162.141113	2025.492188	34.597889
280.245178	897.948425	4276.790039	2061.529053	34.437263
280.617126	901.589172	4452.070313	2136.574951	34.783619
280.988983	896.388000	4626.607422	2197.057129	34.868435
281.360870	908.647949	4806.791504	2282.802490	35.251511
281.732697	906.567444	4952.499512	2317.724854	34.878426
282.104492	914.889465	5077.179199	2340.461426	34.249706
282.476288	904.487122	5152.967773	2328.424561	33.516396
282.848053	912.363098	5184.026855	2313.563965	32.802231
283.219757	905.898743	5212.261230	2319.210938	32.819168
283.591461	912.288757	5168.868652	2314.901367	32.951630
283.963135	910.951355	5133.129395	2320.697021	33.389061
284.334747	920.239258	5094.343262	2343.210693	34.090466
284.706360	913.849121	5159.729492	2392.324951	34.821419
285.077942	921.799561	5298.007324	2463.878174	35.237782
285.449524	926.406311	5453.820313	2506.750977	34.906124
285.821014	924.846008	5558.214844	2503.407227	34.069408
286.192535	913.180420	5681.260254	2508.980225	33.468395
286.563995	900.325989	5760.169922	2510.763428	33.137638
286.935425	893.936035	5813.890625	2511.803467	32.883789
287.306824	898.171326	5744.343750	2468.261963	32.398571
287.678223	898.691406	5625.458984	2425.463623	32.300556
288.049561	913.106140	5498.550293	2410.454590	32.654381
288.420898	906.716125	5361.535645	2414.392578	33.843719
288.792145	913.106140	5330.551758	2429.921631	34.336933
289.163452	907.533447	5360.940918	2464.546875	34.962296
289.534668	914.666504	5490.302246	2522.428711	35.137459
289.905914	908.499329	5628.951172	2579.418945	35.397453
290.277039	915.186584	5819.240234	2648.148926	35.337345
290.648193	923.434265	6011.089844	2696.445801	34.849281
291.019318	919.198914	6128.860840	2695.108154	34.088760
291.390381	909.911133	6132.649902	2643.170654	33.186794
291.761475	900.177490	6028.031250	2591.678711	32.986534
292.132507	903.075195	5926.533203	2578.155518	33.345165
292.503510	901.217712	5821.395020	2583.431396	34.190102
292.874481	930.492981	5818.274902	2623.554932	34.638657
293.245422	937.551758	5825.036621	2666.130371	35.367447
293.616364	944.833313	5943.846191	2733.522705	35.780853
293.987213	922.245300	6109.838379	2782.265625	35.855167
294.358093	922.393982	6327.248535	2842.376221	35.523293
294.728943	906.864746	6551.939453	2910.140625	35.487144
295.099731	897.799805	6726.550781	2960.814697	35.393772
295.470490	896.908203	6901.607910	3020.925781	35.372585
295.841248	914.963684	7013.359375	3059.340088	35.162960
296.211975	909.688171	7130.980957	3123.537842	35.585041
296.582642	902.852356	7278.992188	3191.376221	35.891998
296.953308	896.685242	7435.175781	3227.115967	35.641720
297.323883	903.149597	7541.280762	3220.428711	34.908604
297.694519	910.579895	7536.673340	3154.967773	33.871964
298.065063	921.576660	7448.327637	3104.293701	33.442627
298.435608	922.468323	7245.555176	3020.554443	33.181358
298.806122	921.353821	6955.626465	2926.858643	33.235241
299.176575	913.700623	6618.812500	2817.633545	33.372402
299.547028	918.158691	6387.433594	2746.080078	33.421638
299.917450	912.883240	6240.314453	2713.312500	33.795448
300.287872	902.629456	6169.206543	2699.566650	34.119640
300.658234	894.158936	6097.058594	2694.959961	34.611492
301.028564	902.109375	6028.848145	2687.826660	34.831448
301.398865	910.431335	5983.671875	2668.582275	34.655380
301.769135	913.997864	5929.134277	2645.177002	34.519085
302.139374	909.539551	5905.580078	2629.870361	34.433884
302.509583	899.731628	5867.686035	2609.511475	34.416172
302.879791	899.657410	5801.259277	2582.316650	34.328758
303.249939	898.319885	5683.415527	2542.416260	34.358696
303.620087	902.257874	5572.778809	2523.840576	34.719524
303.990173	894.976257	5505.236816	2516.038818	35.162056
304.360260	899.657410	5487.181641	2527.481201	35.483707
304.730286	901.812195	5474.772949	2523.394775	35.460232
305.100281	906.493164	5451.813477	2518.713867	35.469902
305.470276	903.595398	5439.182129	2512.323486	35.469017
305.840179	902.257996	5457.758301	2519.531006	35.501541
306.210144	900.846191	5479.751465	2531.939453	35.621906
306.579987	906.641785	5514.971191	2561.957764	35.920086
306.949890	906.641846	5544.915527	2594.502197	36.389843
307.319702	919.124695	5629.471191	2641.684326	36.569698
307.689484	918.307373	5705.854980	2670.959717	36.608559
308.059265	923.582825	5815.153809	2721.188721	36.749054
308.429016	915.335266	5939.759277	2760.197510	36.717888
308.798737	906.270325	6100.921875	2803.293213	36.518772
309.168396	897.725525	6236.003906	2832.791260	36.248871
309.538055	894.902039	6307.854980	2832.865479	35.802330
309.907684	891.335449	6332.226563	2827.144287	35.578892
310.277313	894.084656	6350.207520	2826.698486	35.421009
310.646851	899.285828	6375.990723	2845.274414	35.532104
311.016388	916.747009	6373.018066	2854.487549	35.514008
311.385895	940.003723	6321.006348	2829.819092	35.120136
311.755371	935.099792	6255.025879	2800.172119	35.058235
312.124817	923.657043	6190.605469	2767.850342	35.014458
312.494232	912.288757	6134.655762	2746.822998	35.128403
312.863617	912.660339	6056.043457	2738.278076	35.494492
313.232971	918.084412	6013.765137	2742.513428	35.803440
313.602295	909.836731	5988.725098	2760.940430	36.447029
313.971619	916.226807	6035.164063	2796.160156	36.725071
314.340820	909.465332	6053.368652	2820.085205	37.143387
314.710083	917.787292	6120.761230	2828.258789	36.718834
315.079285	925.217468	6143.571777	2795.788330	35.845989
315.448486	932.424805	6164.153809	2768.147705	35.088264
315.817596	930.418640	6057.678223	2716.433350	34.833706
316.186707	919.421875	5878.831543	2664.124023	35.179634
316.555786	913.626221	5678.957031	2596.285889	35.310448
316.924866	906.270264	5527.825684	2548.806152	35.540756
317.293884	904.487000	5444.680176	2524.434814	35.680149
317.662872	910.208313	5422.463867	2537.512207	36.064091
318.031830	905.750183	5412.953125	2550.663818	36.495216
318.400757	910.059753	5470.240723	2580.236328	36.625221
318.769684	905.378662	5513.707520	2586.775146	36.486034
319.138550	902.555176	5573.075684	2582.836914	35.976326
319.507416	904.635559	5574.041504	2564.855713	35.555279
319.876190	900.920471	5539.862793	2540.335938	35.340286
320.244995	926.926453	5502.859375	2549.400635	35.456684
320.613770	923.954407	5431.603027	2529.710693	35.622929
320.982483	927.446594	5394.525879	2524.063721	35.741859
321.351166	909.316711	5323.938477	2519.679688	36.477940
321.719818	904.115540	5313.387207	2554.750732	37.435555
322.088440	898.914307	5345.188965	2618.130615	38.666447
322.457062	897.205383	5483.169434	2704.173340	39.402142
322.825623	907.681946	5640.690918	2788.135498	39.730618
323.194183	900.846191	5805.791504	2847.131592	39.680061
323.562653	902.629456	5951.201660	2869.125244	38.951523
323.931183	897.799805	6072.390137	2877.669922	38.261387
324.299591	901.069153	6156.277344	2858.202393	37.241787
324.668060	894.530518	6184.586426	2847.131592	36.910786
325.036407	887.100281	6180.945801	2812.729492	36.374863
325.404755	893.564514	6122.023438	2789.992920	36.271271
325.773102	898.542786	6038.285156	2726.240967	35.560116
326.141388	912.288879	5954.248535	2686.340576	35.185760
326.509674	913.997803	5867.537598	2639.009766	34.823822
326.877899	916.598389	5798.287109	2625.560791	35.007610
327.246124	912.660339	5736.541504	2591.678955	34.806381
327.614288	919.570374	5696.715332	2573.623291	34.624298
327.982422	921.799500	5648.121094	2556.756836	34.592594
328.350525	926.629211	5593.360840	2576.669922	35.357525
328.718628	919.273254	5554.128418	2597.623047	36.211487
329.086700	925.960510	5576.642090	2625.635254	36.546787
329.454712	913.626282	5621.520996	2646.365723	36.804977
329.822693	919.867676	5664.765137	2664.644043	36.771633
330.190674	916.672668	5688.021973	2694.959473	37.270107
330.558563	921.205078	5712.542480	2714.129639	37.420128
330.926483	919.421875	5753.705566	2754.996338	37.969936
331.294312	902.778015	5820.652344	2782.488281	38.222004
331.662231	901.143372	5932.106934	2837.843750	38.495617
332.029999	898.171204	6068.600098	2870.536865	38.147045
332.397766	907.830566	6171.509766	2910.809326	38.052826
332.765503	908.945129	6266.319824	2933.768555	37.795071
333.133240	897.948425	6337.427734	2956.654053	37.847473
333.500916	888.883484	6410.170410	2960.963623	37.528931
333.868561	885.911316	6418.121094	2949.372070	37.299030
334.236176	890.220886	6403.631348	2921.360107	36.839977
334.603790	894.679016	6371.830078	2902.858643	36.664677
334.971344	890.815247	6325.019531	2874.549561	36.504597
335.338867	886.431458	6280.883301	2857.459717	36.538067
335.706360	882.047607	6240.611816	2843.862305	36.610825
336.073853	885.093933	6235.187500	2851.366943	36.752121
336.441284	892.301331	6254.506348	2883.911377	37.141624
336.808655	905.304382	6271.149902	2912.889648	37.414143
337.176086	903.298157	6282.740234	2944.022461	37.935616
337.543396	912.660339	6262.307129	2956.282227	38.201061
337.910706	903.223938	6227.310547	2962.300781	38.674747
338.277954	912.585999	6200.413574	2963.266846	38.781158
338.645264	899.285828	6163.484863	2950.783936	38.970753
339.012421	904.189880	6154.643066	2916.678955	38.329815
339.379669	900.697571	6143.794922	2864.964111	37.463860
339.746796	917.638672	6156.872559	2826.104248	36.426426
340.113953	922.096741	6155.014160	2791.255859	35.719257
340.481018	922.245361	6161.998535	2769.634033	35.257172
340.848114	913.923523	6187.484863	2763.541016	35.073402
341.215118	905.378723	6235.113281	2789.918701	35.358986
341.582153	904.041260	6336.610840	2868.010498	36.151756
341.949066	907.756348	6446.355469	2958.659912	37.029282
342.316010	905.675964	6579.431152	3064.021240	38.040859
342.682922	908.202148	6680.408691	3171.685791	39.213490
343.049835	899.360168	6832.432129	3318.359375	40.771446
343.416656	920.462097	7059.576172	3489.849854	41.852741
343.783478	918.827454	7329.814941	3620.400146	42.139729
344.150269	929.527039	7623.458984	3695.817383	41.325340
344.516998	915.781006	7835.593262	3705.476563	40.314613
344.883728	918.455872	7989.771484	3672.412109	38.945461
345.250427	911.099915	8009.907715	3612.524170	38.054623
345.617065	904.041199	7931.518066	3527.447266	37.330696
345.983704	898.765686	7788.337402	3444.897217	36.956310
346.350281	893.936035	7631.335938	3362.272705	36.636337
346.716827	894.158936	7477.008301	3297.926514	36.515610
347.083405	893.713074	7321.269531	3254.681885	36.731979
347.449860	943.570129	7217.171875	3262.335205	36.960670
347.816376	955.087097	7105.197266	3258.174561	37.447903
348.182770	957.613342	7019.080566	3257.505615	37.942833
348.549194	915.929626	6950.871094	3239.895752	38.508511
348.915558	909.316711	6985.718750	3274.520752	38.924419
349.281921	901.663574	7014.994629	3305.282227	39.317657
349.648193	900.623291	7067.823730	3329.653564	39.386272
350.014526	897.056702	7104.900391	3349.269531	39.501846
350.380737	904.338440	7205.803223	3367.324951	39.085938
350.746948	911.025696	7281.443848	3396.302734	39.012779
351.113159	908.945251	7347.796875	3413.689697	38.900482
351.479309	903.743958	7375.511230	3438.284180	39.163033
351.845428	894.233215	7443.795410	3472.834717	39.370594
352.211517	896.833801	7541.503418	3527.521484	39.590950
352.577576	893.415955	7650.728516	3611.334961	40.221893
352.943604	897.948425	7763.891113	3684.597656	40.586548
353.309601	911.174255	7892.583984	3763.209717	40.851856
353.675537	916.746887	8095.875488	3837.958252	40.690334
354.041473	911.099915	8287.130859	3915.010498	40.725300
354.407379	894.233215	8473.705078	3969.177002	40.569370
354.773254	901.143372	8631.969727	4030.179688	40.474800
355.139038	908.276367	8808.736328	4111.020996	40.538712
355.504913	924.994446	9056.907227	4246.474609	40.845005
355.870636	914.072083	9305.003906	4376.950195	41.269295
356.236389	902.332214	9583.267578	4516.416504	41.632427
356.602081	889.552185	9840.429688	4633.443848	41.827087
356.967804	886.580078	10105.615234	4725.950684	41.646122
357.333405	891.706970	10356.981445	4772.687012	41.002296
357.699036	889.626465	10550.912109	4756.711914	40.026615
358.064606	896.982422	10705.981445	4736.278320	39.140549
358.430176	899.360168	10762.600586	4704.030762	38.574245
358.795654	894.901917	10783.851563	4740.587891	38.888721
359.161163	902.926697	10790.686523	4835.175293	39.768852
359.526581	905.304382	10874.723633	5016.177246	41.234833
359.892029	927.298035	11124.973633	5281.437500	42.697372
360.257416	916.375488	11525.762695	5571.812500	43.880360
360.622772	912.140198	12030.129883	5812.775879	44.078434
360.988098	891.632629	12542.893555	5946.224121	43.382355
361.353394	895.199219	12967.756836	5991.697266	42.215561
361.718658	900.697571	13274.625977	5919.994629	40.563488
362.083893	897.651184	13320.026367	5730.077637	38.900986
362.449097	903.446777	13148.460938	5422.464355	36.904961
362.814209	900.251770	12707.918945	5096.125977	35.535164
363.179382	912.214539	12084.222656	4781.008301	34.629349
363.544434	910.208313	11382.285156	4560.923828	34.861427
363.909546	907.161926	10700.186523	4412.318359	35.792381
364.274536	903.966858	10209.268555	4333.037109	36.850716
364.639587	897.725525	9859.079102	4278.350098	37.724487
365.004517	896.610901	9645.606445	4248.703613	38.314034
365.369507	894.604797	9484.221680	4222.846191	38.747261
365.734344	901.291992	9389.486328	4209.991699	38.980019
366.099274	903.149597	9327.889648	4215.192871	39.313297
366.464081	910.579834	9267.109375	4208.877441	39.469707
366.828918	910.208313	9208.633789	4185.472168	39.468498
367.193665	908.350769	9142.057617	4139.181641	39.239079
367.558411	913.700500	9066.121094	4094.599854	39.017853
367.923126	909.019531	8962.393555	4049.498779	38.995819
368.287781	919.124695	8876.500977	4026.464844	39.049805
368.652435	911.694336	8802.717773	3998.303955	39.115452
369.017059	919.198975	8770.098633	4004.248047	39.295486
369.381653	929.452698	8744.613281	4026.464844	39.628262
369.746185	927.000732	8746.916016	4081.448486	40.338646
370.110687	921.279358	8757.318359	4122.463379	40.852070
370.475220	900.474670	8813.714844	4149.509766	41.058216
370.839661	902.852356	8892.773438	4169.571777	40.885506
371.204041	902.480896	8983.347656	4203.974121	40.855682
371.568451	904.932861	9020.127930	4208.877930	40.713070
371.932770	900.251770	9051.855469	4211.404297	40.619648
372.297150	906.716064	9039.669922	4178.859863	40.233150
372.661377	906.418884	9034.542969	4170.686035	40.160152
373.025696	905.601563	9033.798828	4173.286621	40.201843
373.389862	897.131104	9046.282227	4196.246094	40.484154
373.754059	906.270325	9084.845703	4254.871094	40.943573
374.118225	911.322937	9139.235352	4316.245117	41.382576
374.482361	911.322815	9262.651367	4399.389648	41.766613
374.846436	895.942200	9437.411133	4490.559082	42.084297
375.210510	891.781250	9663.440430	4630.173828	42.618992
375.574524	904.561340	9939.698242	4805.082520	43.170582
375.938538	919.273254	10226.877930	4949.824219	43.303848
376.302460	925.663269	10520.967773	5071.309082	43.204945
376.666412	922.022461	10798.414063	5146.280762	42.771271
377.030304	916.449768	10997.397461	5172.286621	42.216637
377.394196	907.830750	11117.618164	5104.522949	41.104603
377.757996	909.762512	11102.238281	4981.700684	39.950436
378.121796	902.778076	11007.426758	4828.265137	38.848328
378.485565	907.161926	10803.837891	4681.071289	38.133102
378.849304	893.936096	10527.877930	4565.085449	38.106411
379.212982	896.090820	10239.731445	4504.602051	38.619968
379.576630	901.069092	9967.487305	4501.853027	39.715618
379.940277	911.322754	9808.999023	4502.670410	40.362762
380.303864	915.112305	9687.069336	4486.249512	40.710838
380.667450	905.675842	9664.851563	4480.082520	40.807568
381.030945	900.549011	9615.664063	4467.971191	40.933735
381.394501	903.223877	9632.159180	4496.057129	41.160038
381.757935	920.684998	9651.253906	4521.023438	41.238300
382.121399	917.341370	9678.300781	4561.518555	41.595642
382.484741	918.232971	9814.943359	4635.747070	41.785267
382.848145	907.013367	9911.686523	4694.668945	42.063221
383.211487	910.059753	10057.169922	4761.020996	42.100304
383.574768	901.514954	10163.645508	4799.063965	42.080479
383.938019	893.490234	10257.415039	4827.596191	42.013428
384.301270	900.549011	10363.668945	4855.385254	41.792095
384.664459	903.223816	10404.387695	4858.803711	41.632580
385.027649	908.573730	10450.602539	4868.388672	41.498669
385.390778	905.081482	10534.491211	4917.800293	41.671490
385.753876	913.997803	10579.815430	4968.697266	41.948853
386.116943	912.065918	10660.731445	5033.191895	42.273743
386.479980	913.403320	10702.934570	5068.560059	42.444901
386.842987	915.706726	10786.600586	5080.968750	42.197418
387.205994	926.257629	10848.866211	5086.467285	41.926571
387.568909	920.759277	10897.832031	5038.616211	41.273201
387.931793	911.322937	10903.924805	5004.957031	40.966648
388.294678	897.502625	10875.540039	4972.412109	40.838787
388.657471	904.858459	10818.475586	4992.770996	41.235329
389.020294	913.180481	10790.389648	5049.910156	41.881561
389.383057	925.514709	10870.338867	5141.748535	42.396263
389.745819	924.251648	10971.465820	5225.858887	42.813934
390.108521	924.697327	11129.061523	5352.025391	43.386616
390.471191	915.706726	11325.963867	5478.414063	43.828960
390.833801	913.031799	11560.760742	5604.208496	44.058006
391.196442	909.093750	11813.612305	5664.839355	43.612614
391.558960	914.666504	11999.071289	5693.743652	43.115326
391.921509	914.517883	12152.878906	5683.192871	42.432117
392.284027	914.815125	12240.407227	5672.715332	42.010170
392.646484	908.796570	12233.348633	5657.632324	41.933987
393.008911	900.846191	12128.210938	5647.378418	42.276459
393.371307	900.623291	12053.164063	5668.851563	42.754639
393.733673	904.561279	11995.133789	5679.031250	43.049805
394.096008	902.778015	11972.174805	5685.644043	43.208012
394.458344	903.521057	11916.745117	5636.901855	42.979069
394.820587	899.211487	11816.510742	5534.364746	42.456963
395.182831	907.161926	11694.950195	5441.411621	42.031319
395.545013	894.976257	11463.645508	5331.814941	41.981056
395.907196	902.629395	11216.070313	5280.322754	42.446484
396.269287	901.589172	10985.136719	5243.915039	43.063469
396.631409	903.669739	10841.732422	5244.063477	43.674442
396.993469	902.109375	10705.461914	5250.304688	44.354168
397.355530	906.047363	10617.933594	5277.944824	45.015945
397.717499	916.152588	10563.469727	5326.613281	45.716969
398.079468	914.294983	10576.769531	5387.244629	46.291969
398.441376	915.483887	10591.333008	5419.269043	46.546665
398.803284	901.217773	10591.926758	5429.076660	46.723713
399.165131	899.954590	10618.602539	5443.268555	46.748413
399.526978	894.307556	10591.778320	5464.222656	47.124813
399.888763	900.920471	10574.614258	5506.723145	47.611626
400.250519	903.000977	10546.900391	5555.093750	48.238712
400.612244	926.109131	10580.485352	5641.879395	48.845940
400.973938	931.236084	10573.425781	5740.703125	49.879406
401.335602	930.864502	10628.484375	5831.054688	50.529823
401.697205	920.907959	10748.408203	5954.322754	51.217655
402.058807	909.019531	10938.698242	6087.027832	51.626862
402.420349	905.601563	11183.377930	6284.375488	52.334023
402.781860	892.970032	11431.770508	6466.714844	52.887844
403.143341	897.279602	11783.296875	6668.074707	53.011074
403.504822	904.189880	12102.948242	6854.871582	53.136974
403.866241	910.951355	12466.065430	7021.681152	52.883335
404.227631	915.929688	12724.489258	7147.401855	52.770805
404.588959	916.301086	12957.502930	7232.553223	52.455326
404.950287	909.911133	13037.898438	7241.097656	52.203110
405.311554	898.988586	12990.790039	7216.429688	52.245655
405.672821	902.109314	12796.192383	7166.497559	52.668106
406.034027	902.034973	12520.901367	7137.296875	53.664974
406.395203	912.214539	12162.464844	7063.365723	54.675686
406.756348	906.047363	11898.614258	7023.093262	55.647114
407.117493	899.880310	11731.507813	7028.963379	56.585060
407.478516	894.976318	11712.411133	7132.541016	57.662140
407.839600	896.239502	11718.132813	7232.181152	58.547440
408.200592	914.072083	11769.104492	7364.142578	59.420094
408.561554	927.000793	11837.612305	7483.324219	60.091255
408.922485	925.737610	11906.120117	7617.886230	60.946404
409.283417	918.455994	11904.113281	7723.247559	61.942509
409.644257	911.174316	12015.269531	7843.246094	62.428062
410.005096	917.712891	12136.382813	7954.254395	62.721710
410.365906	917.564270	12239.589844	8009.164063	62.635433
410.726715	911.843018	12299.776367	8007.901855	62.312084
411.087433	908.796570	12285.211914	7981.227051	62.167480
411.448120	911.025635	12303.266602	7946.378906	61.755657
411.808807	918.158691	12223.762695	7955.443848	62.245995
412.169434	913.180420	12124.495117	7946.453125	62.733700
412.530029	919.124695	12070.031250	8038.662598	63.847172
412.890564	918.678772	12074.118164	8110.587891	64.469978
413.251099	930.864563	12149.981445	8247.825195	65.218681
413.611572	925.589050	12250.809570	8379.563477	65.817474
413.972076	928.561218	12352.828125	8534.856445	66.580162
414.332489	918.307312	12456.851563	8648.539063	66.994865
414.692871	919.124695	12644.762695	8805.094727	67.254082
415.053223	913.403320	12816.327148	8967.892578	67.668159
415.413574	918.753113	13098.159180	9213.538086	68.105003
415.773834	910.877136	13317.203125	9426.786133	68.641670
416.134094	914.815125	13573.250000	9655.415039	69.049606
416.494263	912.437439	13785.606445	9867.475586	69.563583
416.854462	913.329102	14104.809570	10141.652344	69.956688
417.214630	912.734619	14507.382813	10487.680664	70.431732
417.574738	911.991638	14923.924805	10834.971680	70.818069
417.934784	920.759277	15379.325195	11209.308594	71.158844
418.294861	925.737610	15869.128906	11609.278320	71.493416
418.654846	926.034851	16473.359375	12099.975586	71.870506
419.014832	921.650940	17082.789063	12598.620117	72.253380
419.374756	911.471497	17770.089844	13136.200195	72.513222
419.734680	925.663330	18478.269531	13694.585938	72.746597
420.094543	922.616882	19158.361328	14134.012695	72.447800
420.454376	932.499207	19696.091797	14409.898438	71.827393
420.814148	918.901794	20134.328125	14532.200195	70.845680
421.173920	916.375488	20535.265625	14687.418945	70.192772
421.533691	912.734558	20895.486328	14814.996094	69.571304
421.893341	906.641785	21112.525391	14878.600586	69.147980
422.253021	906.493164	21196.041016	14831.937500	68.633591
422.612640	903.669739	21102.566406	14760.012695	68.599503
422.972260	914.072083	21003.595703	14762.464844	68.933403
423.331757	916.969910	20997.281250	14836.247070	69.318039
423.691315	935.174011	21132.212891	15058.858398	69.929482
424.050781	936.362976	21289.662109	15108.492188	69.630623
424.410248	935.619873	21259.197266	15003.131836	69.217690
424.769653	925.663330	21172.783203	14686.453125	67.964188
425.128998	923.062683	21007.757813	14399.942383	67.100243
425.488373	918.753174	20691.599609	14059.190430	66.456985
425.847656	911.991638	20280.035156	13755.738281	66.314117
426.206940	912.585999	19863.568359	13429.102539	66.046799
426.566193	918.455872	19422.580078	13136.053711	66.026344
426.925385	917.044128	18952.617188	12799.833008	65.885292
427.284576	916.672668	18363.396484	12446.151367	66.083916
427.643677	915.558105	17918.099609	12164.840820	66.162361
428.002777	918.455994	17568.876953	11984.731445	66.462433
428.361847	928.561096	17198.330078	11843.184570	67.085297
428.720856	927.892395	16834.619141	11690.864258	67.663017
429.079865	926.406311	16554.423828	11562.916992	68.060524
429.438812	915.558105	16395.861328	11524.203125	68.529953
429.797760	925.960510	16313.161133	11512.984375	68.804092
430.156616	933.390808	16142.637695	11422.260742	68.963768
430.515503	933.613770	16039.729492	11335.473633	68.858597
430.874268	920.833679	15964.385742	11317.641602	69.111389
431.233093	906.939148	15989.425781	11405.467773	69.607414
431.591827	897.354004	16063.726563	11549.391602	70.234573
431.950562	907.013367	16177.932617	11693.464844	70.633934
432.309204	908.722229	16261.225586	11819.110352	71.065857
432.667877	917.044128	16456.789063	11947.282227	70.980820
433.026459	920.833679	16724.724609	12036.372070	70.334190
433.385010	920.982239	17052.029297	12105.696289	69.336563
433.743561	923.434265	17491.306641	12142.030273	67.712952
434.102051	920.313477	17951.759766	12191.292969	66.177467
434.460510	926.852112	18523.593750	12290.414063	64.577644
434.818939	921.428040	18933.375000	12340.270508	63.395939
435.177338	922.468262	19300.652344	12365.088867	62.261982
435.535675	926.109131	19484.476563	12318.648438	61.387615
435.894012	937.477539	19509.144531	12305.793945	61.213223
436.252289	932.424805	19423.697266	12397.038086	62.000130
436.610535	932.424805	19115.712891	12447.860352	63.329773
436.968719	937.700256	18830.388672	12620.317383	65.292694
437.326935	940.969666	18443.197266	12754.878906	67.499458
437.685028	936.214294	18181.576172	12975.632813	69.812508
438.043152	918.010193	17999.906250	13140.584961	71.552803
438.401215	914.666504	18058.607422	13363.864258	72.615723
438.759277	912.808899	18277.207031	13620.282227	73.181190
439.117249	928.932617	18728.076172	14014.534180	73.518150
439.475250	934.208069	19119.205078	14379.434570	73.935822
439.833130	940.672424	19600.091797	14734.304688	73.923157
440.191071	939.855042	19848.410156	14862.997070	73.634087
440.548889	944.164551	20131.429688	14925.262695	72.866547
440.906708	935.694092	20268.740234	14819.231445	71.812462
441.264496	923.508484	20354.785156	14678.875000	70.789818
441.622223	919.421875	20278.029297	14424.090820	69.760536
441.979950	921.279480	20108.619141	14230.976563	69.367081
442.337616	931.384583	19917.958984	14042.471680	69.054520
442.695251	931.756165	19658.419922	13911.847656	69.313423
443.052887	933.316467	19421.542969	13798.684570	69.586815
443.410461	920.313477	19274.201172	13844.528320	70.416771
443.768005	907.830627	19273.458984	14006.211914	71.320076
444.125458	916.375427	19360.169922	14241.156250	72.245331
444.482941	920.982239	19600.539063	14548.325195	72.953247
444.840393	928.412537	19919.443359	14951.640625	73.841324
445.197754	924.771667	20307.302734	15340.465820	74.374672
445.555084	928.189514	20631.634766	15600.452148	74.465469
445.912415	926.926453	21012.955078	15742.295898	73.759575
446.269714	921.205139	21316.931641	15810.801758	73.003510
446.626953	913.774902	21479.283203	15839.112305	72.574615
446.984161	906.864746	21586.501953	15740.882813	71.732483
447.341309	920.536438	21584.865234	15583.807617	70.959343
447.698456	931.384583	21607.751953	15384.750000	69.902824
448.055542	937.700378	21475.119141	15212.887695	69.508186
448.412598	935.619934	21205.328125	14993.546875	69.354362
448.769653	926.109192	20851.126953	14688.458008	69.070694
449.126617	931.979065	20390.451172	14352.239258	68.968719
449.483582	952.263733	20076.224609	14064.613281	68.565033
449.840515	962.888977	19642.445313	13857.679688	69.031570
450.197388	955.533020	19372.576172	13708.109375	69.243340
450.554230	937.254578	19133.023438	13589.893555	69.536156
450.911041	922.245422	19010.796875	13518.338867	69.635727
451.267822	923.582825	18944.220703	13555.639648	70.097717
451.624573	910.802795	18865.015625	13591.081055	70.625641
451.981262	914.889465	18808.619141	13574.289063	70.747681
452.337921	916.672668	18630.070313	13435.937500	70.676811
452.694580	916.078308	18387.841797	13185.018555	70.221535
453.051147	912.437500	18271.634766	13013.007813	69.706970
453.407715	918.901794	18037.654297	12714.532227	68.904739
453.764221	939.037781	17989.876953	12661.703125	68.751244
454.120728	948.474182	17609.000000	12387.601563	68.660065
454.477142	939.260681	17453.931641	12366.276367	69.193115
454.833557	928.932617	17202.195313	12243.156250	69.526459
455.189911	930.864502	17128.562500	12266.190430	69.981094
455.546265	937.105957	17054.853516	12288.333008	70.426880
455.902557	932.127625	17027.210938	12354.536133	70.968307
456.258820	923.731384	17120.166016	12555.895508	71.819290
456.615051	916.969910	17267.505859	12777.541992	72.539345
456.971252	931.236023	17363.951172	13027.346680	73.609932
457.327393	933.613708	17668.443359	13430.143555	74.673782
457.683502	943.718811	18111.882813	13936.441406	75.679161
458.039612	940.598145	18802.972656	14686.231445	76.952995
458.395630	957.019043	19571.412109	15403.920898	77.611465
458.751648	944.610413	20230.400391	15972.484375	77.922005
459.107605	936.585693	21055.904297	16499.365234	77.352417
459.463562	923.805664	21612.580078	16698.125000	76.245796
459.819458	927.075012	22010.544922	16699.611328	74.809959
460.175323	925.068848	22079.648438	16247.777344	72.432114
460.531158	931.533264	22060.404297	15700.536133	69.899628
460.886932	940.077942	21800.791016	15130.188477	68.023132
461.242676	944.684753	21358.392578	14599.668945	66.891251
461.598419	934.653870	20749.259766	14188.551758	66.889534
461.954102	927.669495	20090.341797	13726.387695	66.789841
462.309723	936.511536	19421.318359	13381.918945	67.327766
462.665344	938.666260	18817.164063	13103.359375	68.040916
463.020905	942.827148	18419.349609	12984.327148	68.901001
463.376373	936.660095	18171.771484	12957.502930	69.746246
463.731873	946.393799	17965.134766	12921.020508	70.361420
464.087341	948.251404	17821.654297	12917.305664	70.934448
464.442749	952.263672	17798.103516	12989.527344	71.455406
464.798126	943.718933	17787.849609	13066.801758	71.972153
465.153503	933.093567	17908.814453	13235.171875	72.468666
465.508820	914.146301	17917.283203	13352.718750	73.154572
465.864105	905.601563	18077.035156	13478.959961	73.222534
466.219330	909.985352	18322.826172	13641.905273	73.117996
466.574524	915.112305	18462.666016	13677.050781	72.727730
466.929657	920.907898	18509.328125	13584.989258	72.002380
467.284790	931.458923	18480.720703	13456.891602	71.372986
467.639893	938.071838	18459.023438	13286.070313	70.475616
467.994934	944.981995	18381.082031	13170.901367	70.118431
468.349945	941.192566	18193.617188	12967.756836	69.709419
468.704926	933.762268	18012.093750	12869.379883	69.887489
469.059875	939.632141	17796.542969	12776.204102	70.217926
469.414764	928.635437	17622.375000	12743.139648	70.772057
469.769653	939.706482	17494.279297	12713.715820	71.122406
470.124451	932.424805	17454.154297	12758.148438	71.576782
470.479248	938.591858	17398.947266	12774.420898	71.905067
470.834015	930.641541	17405.337891	12808.526367	72.097740
471.188721	930.344299	17521.025391	12945.539063	72.421341
471.543365	930.790222	17689.322266	13145.859375	72.888664
471.898010	919.496155	17851.080078	13318.687500	73.231140
472.252625	916.449768	18062.396484	13503.106445	73.408928
472.607178	917.787170	18304.474609	13692.504883	73.474129
472.961700	932.424866	18495.656250	13786.274414	73.186134
473.316193	937.774597	18664.695313	13831.598633	72.735840
473.670654	945.204895	18717.671875	13798.609375	72.322006
474.025055	952.932373	18822.439453	13869.643555	72.283531
474.379456	945.947937	18893.177734	13919.278320	72.285973
474.733795	943.644531	19005.595703	14033.109375	72.469826
475.088104	937.477356	19165.494141	14257.948242	73.076904
475.442383	953.080994	19306.001953	14506.639648	73.849594
475.796570	954.492859	19553.431641	14771.825195	74.290970
476.150787	962.814697	19910.529297	15089.842773	74.557953
476.504944	956.276062	20288.134766	15367.363281	74.545792
476.859070	962.071716	20602.880859	15628.909180	74.675323
477.213135	956.276062	20867.917969	15810.875000	74.602577
477.567200	943.347351	21241.365234	16033.262695	74.341820
477.921173	929.155518	21594.599609	16242.425781	74.100853
478.275146	924.251465	21942.859375	16434.500000	73.792938
478.629089	936.437195	22164.056641	16629.470703	73.927429
478.983002	942.307068	22569.599609	16946.371094	73.999390
479.336823	945.130615	23020.468750	17376.062500	74.431168
479.690643	942.158508	23555.521484	17940.466797	75.169304
480.044403	942.158508	24193.781250	18623.009766	76.041367
480.398163	940.672424	25081.404297	19516.650391	76.948692
480.751862	934.430969	26292.240234	20770.880859	78.226196
481.105499	938.889221	27875.408203	22461.193359	79.900093
481.459137	934.802551	30041.259766	24951.595703	82.513626
481.812744	936.660095	32919.519531	28250.341797	85.401001
482.166290	934.728210	36527.144531	32342.263672	88.242210
482.519806	941.118225	40667.738281	36587.328125	89.728775
482.873291	944.907715	45000.406250	40453.222656	89.678513
483.226715	934.802551	48905.531250	43199.453125	88.105087
483.580139	930.864441	51453.144531	44071.324219	85.388977
483.933502	934.282410	53310.496094	43599.722656	81.459572
484.286804	952.858093	54024.324219	41750.253906	76.872559
484.640106	956.201660	54379.937500	39464.628906	72.081116
484.993347	958.133545	53589.050781	36905.863281	68.301544
485.346558	943.644531	52336.312500	34993.312500	66.253944
485.699738	944.981934	50766.964844	34140.019531	66.627289
486.052887	939.334961	49286.707031	34180.886719	68.755653
486.405975	942.901550	48492.636719	34925.996094	71.468521
486.759064	944.907654	48174.917969	35745.253906	73.682701
487.112061	948.622803	48216.750000	36188.175781	74.552467
487.464996	950.257507	48168.000000	35973.140625	74.173141
487.817963	944.387634	48047.558594	35047.332031	72.400528
488.170868	938.443359	47545.343750	33582.007813	70.040199
488.523743	931.681824	46623.027344	31877.576172	67.728134
488.876587	931.458923	45321.609375	30329.255859	66.225945
489.229401	952.932312	43990.261719	29382.341797	66.057564
489.582153	959.099426	42744.347656	29088.177734	67.318199
489.934845	972.994141	41888.234375	29540.458984	69.821083
490.287537	954.195557	41594.363281	30439.076172	72.551079
490.640198	962.443176	41851.378906	31475.447266	74.624107
490.992798	949.291565	42161.812500	31988.880859	75.315926
491.345337	952.337952	42380.785156	31846.367188	74.572021
491.697876	954.641357	42166.574219	30858.810547	72.561920
492.050354	972.474060	41733.238281	29400.468750	69.743523
492.402832	967.792969	40638.910156	27401.953125	66.633263
492.755219	967.718689	39173.285156	25295.765625	63.676708
493.107605	950.108887	37126.542969	23301.333984	61.783936
493.459930	955.161438	35041.906250	21801.236328	61.155952
493.812225	946.468018	32845.218750	20748.216797	62.076878
494.164490	952.635193	31081.349609	20130.611328	63.653484
494.516724	948.474304	29680.742188	19779.162109	65.538467
494.868896	953.824036	28785.244141	19684.203125	67.299400
495.221039	951.446350	28234.068359	19781.615234	69.018913
495.573120	967.272766	27804.968750	19957.189453	70.758369
495.925201	999.668762	27686.679688	20173.708984	71.847839
496.277222	1006.876221	27663.421875	20338.960938	72.522842
496.629211	988.151855	27767.150391	20366.302734	72.363235
496.981140	949.365906	27679.250000	20244.818359	72.186821
497.333069	951.520569	27582.656250	20028.076172	71.632530
497.684967	955.235657	27456.562500	19725.884766	70.829094
498.036804	952.783752	27271.552734	19380.822266	70.018616
498.388580	944.016052	26968.767578	18993.259766	69.354141
498.740326	944.238953	26498.876953	18625.982422	69.191917
499.092072	946.393738	25990.203125	18268.365234	69.166679
499.443756	947.879700	25484.197266	17899.080078	69.086166
499.795410	957.093323	25080.734375	17658.115234	69.230934
500.147003	957.316223	24755.587891	17503.714844	69.527733
500.498566	957.018982	24384.445313	17336.162109	69.914398
500.850098	946.170898	23998.367188	17162.369141	70.345573
501.201599	945.947998	23667.794922	16966.654297	70.507935
501.553009	945.130615	23399.337891	16886.779297	70.996269
501.904449	947.062500	23249.767578	16830.234375	71.216347
502.255859	958.728027	23166.916016	16889.974609	71.735916
502.607178	960.882813	23161.640625	16960.785156	72.069176
502.958405	961.031433	23139.427734	17074.689453	72.654747
503.309692	951.520691	23141.656250	17137.775391	72.943474
503.660919	942.009827	23137.498047	17160.064453	73.069153
504.012115	951.743591	23196.716797	17124.919922	72.704865
504.363251	955.161438	23194.263672	17086.208984	72.534622
504.714294	960.585632	23204.740234	17047.794922	72.321060
505.065369	962.443115	23154.062500	17040.140625	72.449409
505.416443	963.854797	23085.111328	16941.912109	72.229431
505.767395	968.535950	23030.052734	16917.093750	72.291298
506.118317	966.083984	22954.935547	16814.705078	72.075714
506.469238	956.201721	22934.500000	16893.541016	72.513977
506.820160	947.879822	22911.541016	17002.617188	73.096817
507.170929	956.053040	23005.087891	17243.357422	73.868561
507.521729	960.511230	23168.333984	17437.732422	74.195572
507.872498	967.867249	23380.912109	17653.507813	74.446114
508.223236	970.022156	23626.630859	17811.775391	74.334839
508.573883	973.068542	23815.509766	17975.908203	74.435303
508.924500	968.313049	24066.875000	18116.787109	74.240440
509.275116	958.653748	24209.388672	18295.337891	74.564026
509.625702	963.186218	24443.218750	18458.283203	74.510529
509.976196	974.257324	24619.093750	18601.984375	74.552124
510.326660	974.628723	24876.328125	18716.259766	74.227486
510.677124	969.130371	25103.916016	18856.248047	74.113434
511.027557	975.074707	25269.759766	19013.623047	74.248947
511.377869	970.170715	25407.962891	19143.207031	74.364479
511.728180	972.845520	25446.304688	19181.695313	74.402435
512.078430	962.368835	25527.814453	19114.673828	73.893654
512.428650	956.573242	25577.744141	19042.154297	73.455406
512.778931	954.418457	25599.367188	18924.234375	72.914803
513.129028	954.344177	25545.500000	18820.728516	72.653702
513.479126	951.520691	25422.228516	18683.640625	72.462639
513.829285	945.576416	25286.775391	18594.181641	72.505081
514.179382	936.660095	25112.388672	18513.042969	72.702599
514.529297	944.684875	25025.677734	18492.759766	72.871063
514.879272	945.353516	25049.974609	18573.154297	73.130379
515.229187	957.093323	25076.351563	18690.552734	73.524063
515.579163	948.102722	25239.669922	19012.433594	74.364616
515.928955	953.155273	25460.646484	19443.462891	75.447578
516.278748	942.827209	25904.009766	20024.880859	76.446915
516.628540	966.158264	26458.009766	20651.697266	77.222870
516.978333	975.297607	27112.912109	21330.156250	77.875732
517.327942	978.492615	27846.802734	22007.351563	78.266403
517.677612	965.712463	28534.843750	22584.236328	78.415688
518.027222	951.446289	29116.562500	22922.537109	78.008163
518.376831	943.793152	29659.044922	23024.037109	76.893784
518.726379	941.192566	29974.013672	22817.177734	75.349152
519.075867	936.660095	30041.259766	22365.492188	73.626961
519.425293	962.071594	29887.007813	21873.158203	72.294319
519.774658	961.551514	29546.474609	21311.357422	71.190697
520.124084	968.907471	29154.380859	20886.048828	70.664558
520.473389	944.238953	28607.212891	20459.921875	70.548027
520.822693	948.102722	28086.947266	20228.767578	71.044533
521.171997	959.991211	27696.859375	20097.843750	71.578514
521.521240	978.418213	27387.759766	20066.341797	72.277168
521.870361	984.659668	27232.914063	20109.806641	72.862549
522.219482	974.108582	27102.068359	20229.806641	73.697670
522.568604	958.356445	27168.343750	20476.195313	74.467186
522.917664	955.087158	27291.091797	20802.533203	75.362404
523.266724	959.991150	27653.390625	21303.556641	76.211967
523.615662	972.845520	28185.029297	21971.759766	77.167328
523.964600	976.412048	28963.943359	22870.822266	78.229156
524.313538	979.161316	29852.677734	23860.312500	79.246155
524.662354	972.102478	30878.130859	24915.931641	80.063553
525.011169	991.941345	31984.570313	25935.958984	80.483711
525.359985	979.458435	33157.957031	26929.982422	80.645538
525.708740	972.919739	34438.199219	27949.710938	80.611275
526.057434	946.616638	35792.218750	29186.109375	81.041771
526.406067	963.483398	37453.179688	30820.099609	81.822052
526.754700	972.845520	39428.371094	33051.187500	83.416725
527.103333	974.703125	41966.175781	35778.097656	84.903984
527.451782	953.675476	44739.750000	38767.441406	86.360252
527.800293	960.362610	47476.167969	41287.273438	86.695068
528.148743	955.235657	49683.781250	42809.437500	85.892570
528.497131	959.991150	51176.519531	42889.093750	83.496620
528.845642	948.622864	51759.644531	41627.578125	80.059311
529.193909	955.310120	51615.941406	39383.265625	75.853683
529.542175	955.830261	50655.656250	36531.824219	71.581726
529.890503	967.124207	49058.371094	33636.542969	67.932152
530.238770	960.585510	46798.011719	31032.904297	65.606476
530.586914	962.591797	44515.281250	29314.953125	65.098991
530.934998	968.238770	42309.675781	28327.914063	66.179787
531.283142	971.805359	40789.746094	28278.947266	68.579994
531.631226	978.566895	39625.937500	28667.179688	71.644234
531.979248	971.285156	39238.449219	29604.656250	74.824913
532.327148	974.851746	39268.839844	30559.818359	77.257469
532.675110	976.040527	39597.925781	31297.867188	78.509438
533.023071	957.984924	39875.222656	31436.740234	78.316849
533.370850	959.471008	39943.136719	30928.955078	76.877029
533.718689	954.418457	39863.035156	29957.296875	74.541016
534.066467	973.588562	39399.460938	28722.681641	72.214615
534.414246	964.077820	38582.578125	27469.791016	70.459251
534.761963	960.288391	37667.316406	26543.830078	69.696579
535.109619	957.762146	36813.730469	26024.007813	69.908157
535.457153	962.517517	36083.781250	25874.880859	70.932419
535.804749	965.118103	35461.863281	25815.587891	72.037148
536.152344	961.328613	35003.863281	25728.505859	72.753624
536.499817	961.031433	34493.183594	25389.166016	72.849884
536.847229	965.043701	34023.808594	24871.720703	72.315697
537.194641	963.186096	33563.433594	24213.546875	71.319588
537.542114	971.953857	33276.843750	23627.078125	70.129089
537.889404	965.712463	32902.359375	23150.349609	69.464516
538.236694	978.641113	32583.228516	22870.376953	69.267593
538.583984	975.223145	32425.853516	22987.923828	69.991287
538.931213	980.127136	32736.884766	23604.859375	71.243835
539.278381	970.616394	33644.714844	24814.134766	72.973763
539.625488	975.594727	35052.378906	26429.255859	74.695015
539.972595	982.207703	37010.707031	28412.021484	76.133659
540.319641	982.579285	39254.050781	30362.392578	76.766869
540.666687	982.579285	41694.972656	31961.759766	76.092751
541.013611	973.885742	43913.425781	32907.859375	74.369621
541.360596	974.257324	45408.324219	33065.828125	72.222900
541.707458	968.090149	46430.503906	32569.039063	69.510056
542.054260	968.610291	46668.644531	31469.507813	66.741524
542.401062	971.433777	46618.121094	30159.251953	63.942905
542.747864	971.136536	45844.855469	28698.533203	61.789833
543.094666	978.418152	44739.824219	27304.466797	60.158142
543.441284	980.795898	43209.636719	25927.562500	59.075188
543.787903	985.179749	41876.941406	24759.595703	58.139866
544.134460	976.412109	40771.316406	23796.634766	57.344582
544.481079	969.724854	40174.515625	23169.000000	56.623886
544.827637	967.792969	39738.285156	22797.265625	56.304348
545.174072	969.204773	39432.828125	22647.990234	56.361782
545.520508	981.390381	39183.316406	22629.117188	56.666584
545.866943	977.823792	38866.488281	22556.451172	56.952724
546.213318	985.031189	38499.136719	22414.755859	57.124447
546.559631	982.950684	37876.253906	22076.228516	57.173729
546.905823	981.464661	36955.496094	21596.533203	57.305416
547.252136	980.052917	35696.289063	20861.529297	57.268528
547.598389	974.777405	34135.636719	20054.974609	57.538307
547.944458	972.028137	32553.359375	19239.500000	57.842628
548.290588	974.851746	30931.851563	18443.646484	58.312897
548.636658	976.412048	29446.835938	17704.408203	58.755699
548.982727	984.659668	27990.205078	17042.740234	59.462158
549.328735	984.511047	26702.468750	16601.085938	60.722458
549.674622	986.294434	25564.298828	16232.915039	62.033604
550.020569	977.749512	24678.164063	16002.799805	63.395733
550.366455	971.656677	23909.353516	15802.627930	64.657631
550.712280	966.529846	23300.294922	15694.368164	65.944267
551.058044	973.142761	22864.728516	15705.440430	67.296623
551.403748	975.891907	22560.609375	15796.609375	68.663017
551.749512	976.114807	22372.328125	15961.414063	70.037155
552.095154	973.142761	22168.587891	16037.871094	71.075310
552.440735	978.418213	22095.328125	16080.891602	71.518387
552.786316	970.244934	21977.037109	16007.704102	71.583794
553.131897	967.644348	21824.121094	15848.176758	71.347298
553.477417	955.458679	21590.437500	15605.206055	70.994728
553.822815	957.687805	21311.283203	15294.323242	70.437851
554.168213	957.910645	21010.357422	15002.165039	70.037605
554.513672	963.186096	20655.859375	14727.245117	69.894310
554.859009	958.430847	20289.619141	14575.221680	70.439499
555.204285	966.975586	19919.000000	14415.840820	70.962685
555.549500	962.294617	19583.820313	14265.156250	71.438087
555.894714	966.529785	19295.154297	14100.426758	71.657837
556.239990	965.712402	19065.335938	13999.674805	72.012344
556.585022	985.774170	18843.095703	13930.127930	72.487648
556.930115	988.523438	18612.681641	13839.848633	72.918800
557.275146	983.842468	18407.904297	13730.846680	73.157471
557.620178	964.820984	18257.960938	13655.875000	73.387787
557.965149	963.483398	18166.794922	13601.114258	73.460449
558.310059	962.740417	18053.111328	13555.565430	73.683746
558.654968	966.752747	17898.634766	13484.903320	73.932419
558.999756	962.963318	17784.431641	13469.151367	74.346588
559.344604	958.876648	17743.490234	13508.382813	74.767921
559.689331	954.195557	17766.525391	13561.065430	74.985863
560.033997	957.613464	17781.906250	13581.793945	75.035431
560.378723	957.910645	17793.125000	13636.183594	75.308060
560.723389	965.043762	17817.125000	13672.666992	75.406845
561.067932	960.139832	17837.705078	13703.577148	75.505196
561.412476	958.356506	17798.398438	13679.875000	75.543274
561.757019	962.071594	17798.400391	13647.922852	75.348091
562.101501	965.563782	17782.796875	13621.471680	75.255592
562.445862	971.359436	17754.560547	13560.840820	75.012398
562.790222	956.647522	17688.283203	13509.497070	75.024643
563.134644	964.672180	17643.552734	13495.157227	75.127853
563.478943	964.969421	17657.224609	13534.612305	75.302238
563.823181	968.015869	17694.525391	13659.143555	75.874336
564.167358	963.186218	17778.113281	13798.981445	76.335716
564.511536	961.477234	17952.427734	14047.671875	77.018608
564.855774	958.133606	18145.244141	14288.190430	77.558449
565.199768	957.390625	18369.787109	14590.007813	78.292595
565.543823	951.743591	18576.794922	14776.062500	78.435631
565.887817	955.087158	18831.060547	14953.644531	78.309349
566.231812	959.545227	18995.863281	14982.102539	77.746231
566.575745	960.957092	19105.533203	14905.942383	76.854843
566.919617	961.179993	19092.380859	14754.737305	76.076355
567.263428	943.644592	18990.068359	14510.132813	75.175491
567.607239	938.591980	18865.982422	14359.075195	74.860214
567.950989	941.415527	18701.771484	14152.959961	74.387840
568.294678	948.697083	18602.353516	14062.086914	74.281441
568.638367	951.817871	18446.095703	13952.937500	74.316414
568.981995	944.833435	18302.839844	13965.715820	75.013702
569.325623	954.269836	18217.837891	14022.260742	75.696930
569.669128	970.244934	18208.548828	14141.887695	76.409149
570.012573	974.851746	18245.701172	14237.886719	76.794342
570.356140	978.269714	18381.228516	14422.825195	77.254425
570.699524	960.734192	18492.312500	14599.666992	77.796379
571.042908	955.532959	18726.142578	14907.132813	78.509407
571.386230	937.254578	18875.564453	15083.081055	78.858185
571.729492	961.031433	19082.720703	15224.182617	78.707626
572.072815	964.969421	19185.482422	15185.247070	78.045425
572.416016	978.641113	19228.798828	15125.879883	77.518440
572.759094	961.848694	19203.017578	14982.773438	76.864182
573.102234	959.693909	19113.779297	14818.934570	76.342262
573.445374	953.452454	19030.708984	14632.881836	75.672050
573.788391	948.548523	18910.710938	14497.278320	75.429283
574.131409	945.056335	18843.466797	14446.454102	75.433502
574.474365	938.146179	18780.162109	14385.601563	75.369598
574.817261	946.170715	18742.935547	14334.852539	75.230980
575.160156	954.715576	18672.423828	14191.002930	74.706535
575.502930	953.675354	18604.806641	14051.386719	74.203239
575.845703	945.427795	18544.175781	13866.299805	73.419266
576.188477	960.957031	18482.429688	13661.520508	72.485710
576.531250	967.570007	18309.455078	13405.622070	71.722603
576.873901	973.365723	18117.751953	13109.303711	70.786652
577.216431	946.170898	17918.771484	12834.828125	70.046173
577.559082	935.248352	17736.355469	12555.971680	69.166412
577.901611	925.811829	17516.642578	12356.170898	68.895645
578.244080	932.350586	17267.580078	12124.198242	68.513565
578.586487	947.656921	17082.716797	11985.325195	68.407974
578.928955	1058.962402	16975.275391	12248.208008	70.300491
579.271301	1067.432983	16760.763672	12130.067383	70.492584
579.613647	1060.448364	16448.617188	11953.227539	70.786713
579.955872	958.133606	16115.370117	11383.101563	68.778816
580.298157	954.344177	15878.194336	11264.218750	69.083206
580.640320	964.152100	15726.914063	11188.800781	69.259727
580.982483	962.740295	15528.301758	11151.575195	69.951546
581.324524	967.049988	15403.176758	11117.024414	70.309540
581.666626	962.888977	15302.644531	11075.192383	70.519356
582.008728	958.133606	15216.157227	11005.125000	70.465523
582.350647	944.016113	15121.198242	10933.200195	70.459587
582.692566	961.179993	15029.210938	10906.153320	70.692009
583.034424	963.334778	14948.816406	10858.822266	70.755432
583.376343	963.186096	14885.213867	10814.018555	70.757164
583.718201	944.016052	14855.120117	10795.961914	70.820732
584.059937	935.322571	14815.368164	10755.319336	70.749023
584.401611	935.842773	14793.300781	10709.399414	70.529221
584.743347	941.043945	14723.456055	10667.196289	70.569305
585.085022	939.112061	14684.594727	10640.967773	70.582138
585.426514	949.291504	14649.152344	10649.734375	70.806870
585.768127	938.220459	14686.824219	10653.969727	70.667168
586.109619	949.737366	14760.309570	10692.012695	70.542152
586.451172	945.427795	14795.825195	10695.282227	70.394043
586.792542	947.211121	14856.307617	10709.920898	70.189392
587.133850	945.056335	14891.898438	10719.950195	70.086792
587.475220	942.381348	14947.551758	10747.293945	70.009232
587.816589	946.319397	14925.856445	10787.640625	70.398048
588.157776	952.783752	14924.371094	10893.596680	71.150200
588.498962	951.520691	14897.398438	11008.989258	72.117859
588.840210	944.239014	14843.975586	11065.086914	72.813232
589.181335	951.520691	14829.114258	11073.632813	72.938522
589.522400	953.452576	14765.511719	11074.226563	73.274910
589.863403	966.083984	14727.320313	11050.375000	73.280411
590.204407	968.907471	14626.862305	10980.530273	73.302505
590.545410	965.712402	14626.268555	10910.090820	72.796295
590.886353	967.644348	14605.612305	10852.655273	72.481552
591.227112	949.811707	14583.543945	10793.213867	72.198883
591.567932	946.690918	14548.250000	10713.858398	71.809181
591.908752	941.638428	14528.635742	10646.688477	71.428955
592.249512	945.204895	14581.538086	10650.774414	71.174332
592.590149	948.102722	14600.187500	10662.217773	71.154808
592.930786	953.749756	14633.028320	10714.674805	71.355553
593.271423	954.567078	14622.774414	10751.157227	71.674286
593.612000	957.762024	14596.101563	10839.577148	72.456146
593.952576	946.393738	14647.073242	10954.895508	73.051132
594.292969	931.756042	14668.471680	11082.549805	73.895348
594.633484	916.375427	14728.210938	11227.067383	74.651138
594.973877	915.037903	14760.309570	11355.239258	75.406258
595.314209	940.598145	14870.946289	11545.156250	76.125587
595.654480	958.802246	15055.588867	11774.008789	76.721077
595.994812	959.322449	15249.370117	12044.620117	77.573555
596.335022	943.495911	15441.815430	12253.039063	78.005890
596.675171	946.468079	15561.515625	12316.864258	77.799240
597.015320	942.530029	15602.308594	12276.444336	77.312996
597.355408	949.068665	15548.809570	12061.559570	76.114304
597.695496	934.133789	15451.844727	11779.953125	74.707504
598.035461	943.793152	15270.100586	11373.963867	72.804321
598.375366	938.146179	15046.375000	11010.846680	71.395927
598.715271	942.381409	14787.208008	10700.780273	70.484077
599.055176	949.960266	14528.114258	10464.349609	70.071304
599.395081	944.239014	14259.659180	10289.886719	70.186653
599.734802	942.604309	14013.866211	10132.661133	70.307343
600.074524	932.053406	13775.948242	10043.202148	70.937584
600.414246	933.539368	13573.843750	9986.731445	71.621628
600.753906	946.765320	13398.191406	10018.161133	72.854271
601.093506	939.855164	13262.218750	10034.433594	73.805473
601.433044	949.365906	13178.403320	10166.098633	75.367607
601.772583	940.969666	13131.890625	10280.003906	76.606468
602.112122	963.706299	13226.106445	10520.374023	77.934723
602.451538	962.071594	13383.628906	10775.602539	79.004028
602.790894	964.672302	13608.096680	11089.829102	80.082397
603.130310	948.399963	13846.980469	11401.008789	81.036888
603.469604	945.204895	14100.872070	11686.109375	81.644699
603.808838	938.740540	14359.149414	11964.893555	82.159592
604.148010	932.499084	14612.299805	12170.859375	82.152954
604.487305	939.855042	14829.932617	12265.596680	81.538361
604.826416	947.805481	14955.949219	12169.670898	80.109581
605.165527	953.972656	14945.620117	11939.481445	78.514763
605.504456	942.975891	14861.956055	11612.995117	76.658051
605.843445	935.248352	14705.624023	11266.002930	75.021591
606.182434	931.013184	14549.737305	10922.351563	73.364708
606.521423	936.065735	14318.952148	10614.887695	72.322380
606.860229	938.146179	14085.417969	10364.487305	71.698074
607.199036	943.644531	13865.110352	10203.622070	71.663521
607.537903	938.591980	13769.186523	10169.071289	71.941170
607.876648	952.486572	13807.674805	10280.004883	72.558395
608.215271	956.944824	13982.805664	10469.477539	73.028053
608.553955	954.121277	14314.269531	10694.688477	72.907631
608.892578	957.910706	14861.360352	10902.140625	71.523468
609.231140	953.378235	15708.635742	11087.674805	68.682617
609.569641	956.721863	16787.435547	11200.168945	64.706161
609.908081	940.077942	18065.740234	11239.104492	60.137974
610.246521	945.353516	19368.863281	11211.090820	55.720856
610.584961	948.251282	20556.146484	11122.596680	51.889027
610.923340	945.056335	21424.744141	10975.922852	48.979588
611.261597	942.158508	21820.552734	10760.222656	47.024998
611.599854	947.434021	21872.119141	10533.004883	45.809872
611.938110	952.783691	21638.587891	10313.291992	45.250877
612.276245	957.613464	21229.402344	10083.176758	45.016075
612.614319	944.387512	20518.919922	9862.795898	45.561283
612.952393	940.598145	19631.746094	9617.670898	46.423431
613.290466	931.013123	18686.689453	9429.981445	47.866207
613.628479	939.483582	17781.234375	9224.459961	49.193085
613.966370	945.873596	16905.875000	9123.854492	51.240479
614.304260	937.105957	16036.754883	8983.198242	53.286621
614.642151	929.081238	15205.829102	8886.233398	55.735046
614.979980	920.387756	14491.854492	8740.674805	57.623005
615.317749	924.771667	13866.077148	8690.372070	60.006313
615.655396	933.242188	13398.191406	8615.250977	61.628883
615.993164	934.579590	12947.323242	8590.806641	63.734207
616.330811	951.446289	12592.824219	8536.714844	65.157822
616.668396	944.759094	12242.041992	8499.116211	66.868790
617.005859	960.362610	11984.583008	8437.816406	67.827499
617.343445	957.985046	11755.582031	8407.352539	68.990982
617.680908	965.117981	11555.708008	8385.285156	70.063774
618.018311	969.724792	11413.343750	8407.055664	71.214119
618.355652	971.136536	11263.325195	8386.473633	72.048203
618.692993	974.554504	11147.710938	8381.941406	72.813065
619.030273	957.836426	11009.136719	8331.340820	73.358711
619.367554	943.198730	10911.725586	8292.183594	73.721870
619.704712	933.465149	10851.690430	8258.969727	73.859024
620.041870	939.557922	10811.789063	8256.666992	74.118088
620.379028	928.635315	10749.002930	8214.686523	74.193268
620.716064	927.446533	10709.473633	8171.070313	74.050339
621.053040	922.096680	10652.929688	8132.952637	74.103172
621.389954	935.842712	10648.397461	8150.934082	74.286240
621.726929	935.545593	10603.667969	8141.869141	74.536957
622.063843	932.276184	10590.070313	8111.776855	74.338928
622.400635	927.372253	10560.125977	8082.649902	74.280708
622.737427	930.195801	10581.673828	8076.854004	74.047287
623.074219	939.037781	10596.682617	8074.104980	73.879997
623.410889	949.365906	10627.666992	8094.537598	73.826721
623.747559	953.601074	10668.012695	8155.912598	74.140480
624.084167	954.418396	10698.997070	8239.577148	74.761147
624.420715	951.520569	10775.157227	8329.409180	75.103439
624.757324	958.950867	10872.716797	8428.751953	75.347771
625.093750	962.888916	10984.616211	8528.615234	75.493240
625.430176	963.260498	11092.652344	8640.664063	75.793335
625.766602	965.489563	11184.416992	8780.129883	76.472214
626.102905	954.121277	11331.164063	8926.060547	76.822845
626.439209	955.978821	11450.420898	9062.034180	77.241409
626.775452	941.861328	11548.648438	9126.157227	77.160934
627.111694	934.356750	11593.304688	9110.627930	76.708046
627.447876	925.811829	11600.809570	9010.764648	75.737274
627.783997	930.641541	11553.182617	8886.605469	74.896996
628.120056	932.127625	11478.656250	8794.990234	74.554039
628.456055	940.969666	11371.139648	8684.129883	74.238098
628.792053	933.019226	11291.859375	8545.258789	73.485443
629.128052	932.424805	11230.113281	8398.510742	72.502541
629.463928	931.979004	11191.476563	8305.334961	71.868584
629.799744	933.465088	11142.510742	8236.903320	71.538895
630.135559	931.458984	11084.480469	8169.732910	71.291824
630.471375	923.880066	11030.758789	8124.259277	71.242363
630.807068	940.078064	10951.625977	8077.077637	71.287674
631.142700	948.177002	10862.909180	8049.287598	71.621803
631.478333	952.783875	10709.102539	7959.679688	71.819061
631.813965	938.963562	10560.200195	7886.564941	72.211113
632.149475	938.814880	10366.122070	7794.876465	72.725555
632.484924	940.969666	10228.809570	7778.528809	73.618401
632.820435	938.963440	10065.493164	7769.761230	74.845512
633.155884	941.935547	9923.351563	7793.761230	76.288925
633.491150	961.254333	9832.254883	7792.720703	77.008965
633.826477	967.570129	9732.319336	7768.423828	77.593246
634.161804	966.975586	9655.787109	7719.310059	77.712982
634.497009	945.873596	9515.652344	7634.604004	78.050217
634.832153	940.449524	9384.879883	7565.354004	78.452942
635.167297	926.183411	9245.264648	7503.236816	79.059853
635.502380	918.530273	9121.030273	7450.779785	79.637299
635.837463	928.783997	9033.055664	7385.021973	79.664627
636.172424	939.409241	8937.725586	7309.529785	79.643265
636.507324	951.074890	8858.295898	7232.849609	79.443520
636.842224	945.799316	8775.967773	7163.228027	79.403511
637.177124	946.616699	8675.362305	7104.899902	79.680244
637.511963	932.722107	8594.000977	7034.312500	79.641930
637.846741	922.394043	8501.940430	6976.133301	79.869415
638.181396	917.564270	8423.104492	6882.066406	79.467995
638.516113	927.966614	8335.500977	6840.234375	79.814247
638.850769	927.075012	8253.026367	6790.377441	80.034691
639.185303	930.121399	8204.432617	6754.266113	80.064552
639.519836	925.886230	8098.625000	6708.272949	80.616165
639.854370	925.291748	8025.660156	6645.412598	80.560905
640.188843	929.824219	7967.109375	6624.533203	80.921959
640.523254	933.019226	7954.031738	6596.001465	80.657631
640.857605	945.056335	7907.963379	6577.574219	80.893196
641.191895	930.567200	7827.791504	6505.946777	80.835121
641.526184	922.839783	7743.829590	6433.724609	80.793037
641.860413	916.821289	7695.234863	6395.458496	80.824768
642.194580	924.771667	7660.685059	6384.685059	81.056763
642.528748	919.570496	7625.763184	6361.873535	81.153397
642.862793	931.681824	7598.642090	6335.792969	81.058098
643.196838	929.972900	7554.208984	6304.957031	81.141190
643.530823	939.037781	7524.859375	6314.021973	81.614479
643.864746	929.155518	7489.343262	6313.947754	82.082901
644.198669	931.904724	7484.810059	6313.501953	82.125359
644.532532	937.848938	7472.921875	6288.090332	81.869652
644.866333	937.180176	7453.825684	6272.709473	81.875397
645.200073	943.495911	7416.303223	6275.161621	82.370224
645.533813	932.722107	7402.705566	6280.289063	82.651939
645.867554	923.880066	7409.541504	6282.071777	82.615967
646.201172	923.805725	7449.738770	6299.755859	82.378258
646.534729	930.790100	7452.116699	6320.115234	82.641548
646.868225	935.471191	7450.259277	6339.880371	82.956024
647.201782	923.285645	7416.748535	6328.882813	83.246758
647.535217	917.118469	7428.562988	6326.431152	83.073929
647.868591	923.954346	7437.925781	6309.638184	82.678955
648.201965	933.167786	7439.113770	6302.282715	82.526276
648.535278	933.316406	7444.463379	6279.471191	82.107727
648.868591	921.502258	7448.921875	6268.549316	81.916702
649.201782	921.205078	7474.779785	6261.044922	81.479805
649.534912	922.616882	7496.550781	6277.466309	81.455788
649.868103	918.232910	7482.952637	6266.766113	81.473900
650.201172	919.867676	7503.607910	6282.740723	81.456329
650.534180	929.304138	7498.259277	6270.183594	81.304855
650.867188	942.752930	7525.304688	6280.289063	81.086128
651.200134	937.254456	7520.178223	6269.143066	80.995750
651.533020	926.406250	7493.355469	6248.635254	81.045685
651.865845	941.786926	7475.671387	6239.719238	81.083961
652.198608	958.133545	7443.052246	6224.487793	81.209259
652.531433	957.687805	7401.219238	6200.785156	81.369934
652.864136	942.009949	7329.740723	6164.600098	81.759712
653.196777	2715.392822	9191.618164	8031.826660	82.091545
653.529358	2799.652344	9184.485352	8062.067871	82.420563
653.861938	2795.491211	9131.359375	8024.322266	82.527458
654.194519	1000.411804	7151.785645	6063.474121	82.307831
654.526978	927.372314	7081.495605	5976.687988	82.047684
654.859375	922.171143	7023.984863	5930.248535	82.075226
655.191833	934.430969	6995.378418	5913.827637	82.155418
655.524170	920.759277	6938.239746	5898.967285	82.729111
655.856445	934.802490	6920.927246	5910.558594	83.121483
656.188660	984.436707	6961.421875	5999.424316	83.904968
656.520874	996.845215	6957.037598	6027.288574	84.400688
656.853088	990.826721	6998.572754	6096.984375	84.992905
657.185181	932.796387	6961.644531	6105.528809	85.799683
657.517212	924.697327	7048.207031	6203.534668	86.206078
657.849243	931.904785	7117.309082	6333.415527	87.326721
658.181274	943.793152	7242.063965	6504.088379	88.282883
658.513123	940.523743	7336.873535	6667.257324	89.531273
658.844971	936.660095	7454.644043	6813.261719	90.159805
659.176819	930.121399	7543.806641	6901.385254	90.286484
659.508667	930.047180	7615.880371	6949.384766	90.031227
659.840393	930.270020	7656.970215	6910.747559	88.906555
660.172058	932.276184	7670.789551	6832.357910	87.557617
660.503662	941.638367	7651.396973	6704.260254	85.884193
660.835266	942.455750	7607.781250	6557.810059	84.247261
661.166931	938.591980	7500.933594	6384.386719	82.985542
661.498413	935.025452	7393.937500	6245.292480	82.216125
661.829773	938.740540	7264.725098	6108.724121	81.726151
662.161194	951.817871	7169.915527	5999.722168	81.180847
662.492615	944.090332	7048.281250	5879.351563	80.850372
662.823975	948.622803	6941.285156	5803.265625	81.009781
663.155212	933.687988	6811.775879	5719.005859	81.409431
663.486450	934.505310	6694.525879	5643.291504	81.749466
663.817627	931.979004	6578.763184	5569.583496	82.128242
664.148743	936.288574	6482.392090	5502.488281	82.331673
664.479858	939.706543	6409.798340	5467.119629	82.766678
664.810913	932.573425	6342.628906	5433.832031	83.201706
665.141907	930.418640	6280.585938	5428.408203	84.071945
665.472778	932.722107	6243.509277	5423.355469	84.556831
665.803711	957.985046	6224.636719	5432.866211	84.966339
666.134583	957.613464	6197.070313	5415.925781	85.091118
666.465454	973.365540	6154.346191	5400.099121	85.442001
666.796143	943.495911	6109.986816	5394.600586	86.153343
667.126831	953.972656	6112.438965	5407.678223	86.337784
667.457458	944.387634	6104.935059	5420.012207	86.727707
667.788147	948.474304	6101.441895	5406.043457	86.504898
668.118774	948.771423	6089.479980	5405.522949	86.695274
668.449219	950.183105	6094.234863	5398.909668	86.482925
668.779663	955.978821	6094.532715	5413.695801	86.750420
669.110107	935.248352	6083.164063	5408.123535	86.887108
669.440552	934.356689	6072.314941	5420.309082	87.310020
669.770874	919.570496	6058.123535	5368.668457	86.582703
670.101135	926.926453	6030.408691	5331.591309	86.307045
670.431396	917.044250	5989.244629	5255.951660	85.542900
670.761597	915.409607	5926.682129	5223.184082	85.961685
671.091797	913.031921	5902.682129	5189.079590	85.698349
671.421875	906.790466	5866.274902	5144.349121	85.443535
671.751892	914.220703	5856.466309	5121.612305	85.131172
672.081909	923.434265	5809.209473	5105.265137	85.591965
672.411865	931.161682	5782.535156	5105.191406	86.038101
672.741821	920.536438	5738.473145	5074.801270	86.224976
673.071716	911.768555	5729.037109	5079.854004	86.523834
673.401550	908.276367	5700.133301	5069.377441	86.836922
673.731262	912.511719	5682.300781	5067.222656	87.104713
674.060974	909.985413	5623.453125	5005.031250	86.879684
674.390625	920.387756	5607.552246	4986.381348	86.747406
674.720276	923.211243	5567.726074	4953.167969	86.768089
675.049927	933.985168	5552.345215	4942.988281	86.805779
675.379395	928.412415	5531.169434	4933.254883	87.009651
675.708923	935.768494	5501.894043	4935.855469	87.603523
676.038330	931.087402	5486.587402	4950.121582	88.223778
676.367737	930.047119	5453.299805	4953.241699	88.944717
676.697083	944.684875	5459.615234	4969.439941	89.143242
677.026428	946.245178	5445.795410	4955.545410	89.104469
677.355652	939.929504	5452.333984	4951.310059	88.896744
677.684875	934.653992	5477.671387	4988.387207	89.229965
678.013977	924.920227	5487.033203	5013.947754	89.630127
678.343079	933.687927	5512.444824	5078.070801	90.513275
678.672180	921.725281	5519.131348	5095.680176	90.789345
679.001221	923.805664	5576.865234	5170.354980	91.263596
679.330139	921.056458	5634.523926	5229.945801	91.416550
679.659058	914.220703	5695.080566	5318.812012	92.129692
679.987976	920.164856	5747.538574	5386.501465	92.521042
680.316772	921.502380	5779.710938	5409.906738	92.388054
680.645630	921.056458	5805.643066	5415.479980	92.012360
680.974304	909.688171	5817.011719	5378.104980	91.056091
681.302979	902.257996	5815.822754	5349.795410	90.515495
681.631653	907.013367	5804.751953	5278.687988	89.259041
681.960266	925.514709	5807.427246	5265.462402	88.898514
682.288757	936.883057	5788.404785	5215.457031	88.190361
682.617249	933.390808	5762.027344	5181.203125	87.971260
682.945679	930.790222	5693.520996	5112.993652	87.811043
683.274109	933.242188	5627.836426	5061.204590	87.930122
683.602478	942.604309	5533.100098	4981.551758	87.985001
683.930725	936.511536	5437.918457	4892.165039	87.875938
684.259033	925.068848	5349.572754	4804.265137	87.675285
684.587280	917.935852	5289.164551	4743.040039	87.506386
684.915344	924.325867	5241.091309	4694.074707	87.328087
685.243469	934.430969	5213.524902	4679.733887	87.525612
685.571533	940.078064	5184.249512	4659.151855	87.627792
685.899536	939.334961	5172.286621	4646.297852	87.573952
686.227539	919.867676	5123.023926	4617.468262	87.972000
686.555420	913.031921	5112.026855	4627.722168	88.466171
686.883301	911.397156	5106.454590	4650.607422	89.133705
687.211121	920.387878	5151.036133	4669.851563	88.626213
687.538940	928.783997	5186.701660	4684.266113	88.199974
687.866638	922.245422	5204.979980	4675.201660	87.629913
688.194336	917.712891	5183.729004	4674.606934	88.065628
688.521973	909.836853	5149.327637	4647.561035	88.164459
688.849609	913.700500	5107.643066	4638.718750	88.819016
689.177063	919.273254	5093.971191	4590.793457	87.946976
689.504578	924.028625	5036.684082	4542.050781	87.972900
689.832031	920.462097	4960.672363	4468.417480	87.816109
690.159485	921.353699	4872.549316	4403.625000	88.132088
690.486816	918.158691	4817.714355	4351.910156	88.054939
690.814087	942.827332	4792.451172	4326.870605	87.905815
691.141296	951.297852	4733.528809	4304.653809	88.660789
691.468506	948.548523	4682.854004	4259.105957	88.652557
691.795715	921.873779	4618.285645	4199.738281	88.676926
692.122803	911.025635	4576.304688	4156.122559	88.536148
692.449829	905.898743	4540.787598	4146.834473	89.161896
692.776855	907.013367	4500.738281	4137.620605	89.895782
693.103821	900.103210	4477.185059	4108.939941	89.705429
693.430664	901.812073	4440.924805	4067.330811	89.443855
693.757568	901.886414	4422.051758	4030.550781	88.878334
694.084351	907.087585	4401.767578	4039.615967	89.637062
694.411133	918.530273	4380.219238	4030.402344	89.894615
694.737854	922.839844	4364.393066	4029.436768	90.267296
695.064575	919.496277	4353.693359	4037.758545	90.800331
695.391174	914.740784	4346.263184	4059.009033	91.628960
695.717773	909.242432	4340.393066	4079.070557	92.383820
696.044250	914.146423	4341.953613	4085.757813	92.525955
696.370789	910.282654	4366.102051	4128.630371	93.128357
696.697205	917.787170	4419.302734	4195.948730	93.621216
697.023621	916.524109	4470.052246	4271.588867	94.415031
697.349915	935.619873	4550.298340	4371.377441	95.050156
697.676208	925.291809	4630.545410	4495.091309	96.344269
698.002380	927.075012	4766.965332	4671.486328	97.513496
698.328674	906.418762	4903.459473	4846.692383	98.579773
698.654724	910.876953	5045.005859	4985.787109	98.567566
698.980896	911.025635	5151.185059	5064.548340	97.956757
699.306946	929.155518	5207.357422	5075.173340	96.910278
699.632935	935.248291	5210.478027	5021.303711	95.575111
699.958862	939.112061	5177.339355	4910.443848	93.702660
700.284729	920.610657	5096.200684	4756.340332	91.860786
700.610596	919.644775	5018.479980	4601.864746	89.835770
700.936340	918.678772	4886.815430	4445.903809	88.888702
701.262146	919.421875	4754.779785	4309.260254	88.383888
701.587830	917.192810	4618.954590	4192.604980	88.482521
701.913513	911.917297	4491.376465	4092.593750	88.859138
702.239075	914.146301	4385.197754	3990.130127	88.618217
702.564697	914.294922	4277.013184	3891.010498	88.521111
702.890137	913.626221	4187.850098	3817.748047	88.696495
703.215698	910.579834	4122.018066	3778.887695	89.315369
703.541016	903.000977	4043.702393	3747.235107	90.560478
703.866455	906.864685	3992.062256	3707.631592	90.780792
704.191711	920.759277	3955.133789	3674.046875	90.736580
704.517029	922.468262	3928.905029	3627.756104	89.983192
704.842163	927.298035	3919.988525	3601.750000	89.366142
705.167419	922.542542	3908.620361	3582.431641	89.076347
705.492493	930.641541	3916.125000	3592.090820	89.146339
705.817566	923.359863	3922.143799	3578.047607	88.525475
706.142578	920.164978	3931.431396	3577.676025	88.252274
706.467590	923.582825	3958.403320	3575.669922	87.388596
706.792480	932.424805	3971.108643	3599.892578	87.783653
707.117371	935.545593	3996.000000	3603.013428	87.159210
707.442200	947.136719	4030.625244	3626.715820	86.900894
707.766907	940.821106	4055.071045	3621.068604	86.063980
708.091675	946.245178	4075.578369	3620.920166	85.471085
708.416321	930.047180	4063.392822	3611.632080	85.582161
708.741028	936.437195	4077.807617	3634.666748	85.893387
709.065552	928.932617	4084.271729	3657.774414	86.483315
709.390137	929.229919	4072.903564	3665.650635	87.045319
709.714600	932.053284	4057.820068	3680.956787	87.943336
710.039063	938.146179	4042.587891	3690.764648	88.667099
710.363403	950.777588	4075.058350	3738.095459	89.214706
710.687744	943.718933	4107.900391	3763.581299	89.118225
711.012085	937.477356	4140.816406	3795.011719	89.204865
711.336304	933.836609	4171.354980	3818.119873	89.089325
711.660461	930.864441	4175.738281	3821.983398	89.098038
711.984619	933.316467	4183.391602	3822.875000	88.907440
712.308716	916.598450	4165.410645	3796.868896	88.656105
712.632751	914.369324	4150.772949	3759.569092	87.912392
712.956726	921.056458	4121.720703	3723.309326	87.552231
713.280701	930.195801	4060.420898	3678.950439	87.813324
713.604553	949.068665	4008.854492	3659.557617	88.584274
713.928467	947.879883	3938.341064	3637.935547	89.954544
714.252258	947.136780	3871.320313	3614.604736	91.220947
714.575989	940.003723	3812.621094	3600.487061	92.615303
714.899719	931.904785	3766.999268	3585.180908	93.586868
715.223267	929.675720	3746.491455	3585.329346	94.278572
715.546936	931.533203	3728.584717	3579.162109	94.657852
715.870422	924.400146	3716.102295	3576.487549	94.998940
716.193970	921.502380	3687.867188	3559.249023	95.350647
716.517395	917.267090	3659.260498	3542.010986	95.723930
716.840820	918.678772	3604.127686	3513.626953	96.629959
717.164124	922.616882	3579.012939	3470.977539	95.933006
717.487488	922.616882	3545.948486	3427.881592	95.499352
717.810730	923.359863	3528.190186	3383.077148	94.429077
718.133972	919.198914	3478.110352	3336.935303	94.483002
718.457092	912.214539	3428.550537	3285.072021	94.298119
718.780212	908.945129	3380.847900	3246.954346	94.583382
719.103210	907.756348	3332.105469	3202.075928	94.636520
719.426208	905.155762	3281.133789	3165.147217	95.118362
719.749207	928.412598	3250.372314	3128.590576	94.755219
720.072083	934.356689	3219.982666	3102.287109	94.850624
720.394958	937.105957	3195.165771	3082.374023	95.004929
720.717773	915.260925	3144.194092	3048.863281	95.723030
721.040527	907.682068	3127.327148	3031.625244	95.688416
721.363281	909.242371	3106.076416	3012.975342	95.762032
721.685913	924.623047	3108.751221	3003.167236	95.165855
722.008545	938.517639	3069.891357	2991.724854	96.332573
722.331055	935.248352	3041.507568	2969.731201	96.592232
722.653503	917.861511	3011.860596	2943.947998	96.756798
722.976013	916.078308	3017.730713	2937.929443	96.202927
723.298401	925.811951	3025.012451	2924.554932	95.214485
723.620789	926.257751	3004.430420	2925.000977	96.177917
723.943115	918.381653	2990.461670	2919.874268	96.593407
724.265381	905.898743	2977.904297	2925.744141	97.482628
724.587585	907.533508	2990.981689	2924.703857	96.818840
724.909790	905.007141	2991.279053	2919.651123	96.566704
725.231873	913.403381	2981.619385	2913.038086	96.684036
725.553894	937.180237	2979.687500	2934.065674	97.766380
725.875916	1515.403931	3505.379639	3345.034424	91.942352
726.197937	1547.651367	3538.592773	3381.962646	92.132858
726.519775	1529.967407	3541.713623	3375.201172	91.722992
726.841675	949.514465	3028.133545	3000.269531	98.659492
727.163513	921.130859	3007.031250	3019.885498	100.616241
727.485291	916.969910	3018.250977	3060.009033	101.987267
727.806946	932.796387	3060.603516	3081.928467	101.002205
728.128662	930.418701	3083.265625	3093.073486	100.455574
728.450256	933.242188	3106.968506	3098.200439	99.596634
728.771790	931.087402	3089.507080	3075.835205	99.366577
729.093323	917.787170	3091.216064	3050.498291	98.126564
729.414795	924.028564	3089.061279	3031.922607	97.360840
729.736145	911.025696	3089.507080	3025.309814	97.053116
730.057495	914.369324	3075.538330	3019.142578	97.390495
730.378845	908.945251	3069.965576	3015.353271	97.472847
730.700134	911.545837	3076.132813	3026.721436	97.717285
731.021301	915.558167	3097.606201	3053.693115	97.987526
731.342468	918.307373	3111.575195	3072.268799	98.207863
731.663574	925.217529	3121.011475	3099.538086	99.022064
731.984680	926.183411	3144.862549	3111.872314	98.513069
732.305664	916.152527	3150.361084	3104.962158	97.968010
732.626648	910.877014	3156.305420	3098.423584	97.422234
732.947571	904.264160	3142.261963	3092.850830	97.792175
733.268433	906.790466	3131.488281	3098.572021	98.520416
733.589233	901.514954	3106.893799	3095.376953	99.477783
733.909973	917.192871	3103.847656	3080.665283	98.939827
734.230713	935.768494	3097.680420	3062.312500	98.364044
734.551331	936.362976	3063.798096	3015.947266	97.750771
734.871948	926.406311	3007.179688	2959.328857	97.700333
735.192505	918.010071	2955.985107	2898.251953	97.167130
735.513062	920.164856	2928.864502	2853.150146	96.230675
735.833435	929.675598	2896.840088	2817.113281	95.947121
736.153931	921.948181	2865.261475	2787.392334	95.992973
736.474304	930.492981	2838.661133	2776.692627	96.752464
736.794617	930.047119	2833.385742	2772.977539	96.826195
737.114807	945.427917	2836.729248	2781.447998	97.077080
737.434998	940.375244	2831.230713	2781.819336	97.386826
737.755188	937.477478	2824.097900	2795.045654	98.460091
738.075256	926.480652	2800.766846	2806.339600	100.297325
738.395325	917.935852	2802.327393	2817.335938	100.796463
738.715271	928.338196	2819.119385	2833.757080	100.774162
739.035278	925.068848	2830.264893	2842.376221	100.635696
739.355164	926.332031	2826.846924	2842.153564	100.805397
739.675049	915.186707	2813.546875	2830.041748	100.868904
739.994873	920.387878	2824.692383	2814.364014	99.457634
740.314636	927.000732	2826.326904	2803.218750	98.783348
740.634277	925.514648	2820.531250	2781.150635	97.921883
740.953979	915.558105	2782.710938	2744.742432	97.966499
741.273499	916.969910	2756.259521	2718.142090	97.927597
741.593140	923.211243	2717.399170	2686.340332	98.268921
741.912598	922.393860	2693.993896	2670.959717	98.699806
742.232117	920.462097	2669.028320	2638.638184	98.261993
742.551453	906.938965	2650.229492	2612.557861	97.839050
742.870850	921.576660	2639.678467	2600.966797	97.746834
743.190063	922.319641	2613.152344	2579.270264	97.996132
743.509338	928.932617	2586.106201	2561.809082	98.533821
743.828552	921.502380	2559.951904	2543.605225	99.002312
744.147705	915.706726	2543.827881	2538.701172	99.685112
744.466797	922.542664	2525.995117	2531.568115	100.347565
744.785828	933.985168	2514.924316	2520.942627	100.380676
745.104858	944.090332	2516.558838	2513.140869	99.782639
745.423706	943.644531	2521.760254	2497.314453	98.450951
745.742615	942.307129	2517.376221	2486.689209	98.051704
746.061401	951.372009	2516.038818	2502.218506	99.116722
746.380249	944.981995	2492.038818	2505.636475	100.878937
746.698975	940.449524	2481.339355	2506.676514	101.644318
747.017639	928.783997	2463.878174	2484.682861	101.355270
747.336304	932.276184	2456.076416	2482.379639	101.726158
747.654907	938.443359	2451.766846	2489.141113	102.469681
747.973389	941.266846	2451.098145	2497.314453	103.061028
748.291931	940.226563	2449.463623	2500.361084	103.372398
748.610352	933.242188	2439.209717	2490.850098	103.429047
748.928711	934.430969	2433.265625	2493.599365	104.025375
749.247070	940.895325	2460.683350	2491.593018	102.033813
749.565308	934.208008	2465.661865	2485.871826	101.319656
749.883545	930.418640	2461.797607	2469.450928	100.499763
750.201782	923.657043	2443.444824	2467.221924	101.564499
750.519836	931.681824	2442.627441	2456.522217	100.919609
750.837952	933.910889	2435.420166	2443.296387	100.524551
751.155884	934.059509	2414.689697	2426.429688	100.792908
751.473877	925.366028	2399.829346	2418.479492	101.264877
751.791809	912.585999	2384.820068	2408.894287	101.635216
752.109619	909.465332	2383.111084	2409.562744	101.794983
752.427490	910.356934	2375.829346	2406.962158	102.124420
752.745300	929.155579	2388.906982	2424.794922	102.458496
753.062988	926.852112	2377.092773	2414.095459	102.551483
753.380615	929.304138	2359.408691	2407.259766	103.345985
753.698303	927.966614	2350.566406	2408.299805	104.058304
754.015808	926.034851	2360.968994	2403.395752	102.956703
754.333374	926.703552	2362.232178	2409.860107	103.317795
754.650757	924.028625	2345.662598	2395.371094	103.496574
754.968262	924.102966	2345.513916	2413.055176	104.751709
755.285583	932.722107	2362.752197	2419.073486	103.938469
755.602905	928.486816	2376.646729	2414.689697	102.626984
755.920105	928.338196	2360.003174	2418.479248	104.084480
756.237305	909.093811	2341.575928	2409.191406	104.720161
756.554443	909.539551	2317.427490	2410.083008	106.581169
756.871582	913.997742	2320.102295	2390.169678	104.983086
757.188599	922.171143	2316.015869	2379.916260	104.584473
757.505615	927.446594	2349.377686	2388.906738	102.779953
757.822510	937.254578	2370.777100	2409.934326	102.731537
758.139465	945.427795	2406.962402	2436.832031	102.043716
758.456238	942.009949	2408.002686	2456.150635	103.284325
758.773010	929.229797	2407.928467	2476.435303	104.632912
759.089783	927.446533	2408.151367	2498.131836	106.076866
759.406433	919.496155	2419.370850	2499.543701	105.345306
759.723145	920.907959	2426.206787	2494.639648	104.546135
760.039673	917.638672	2438.763916	2497.091553	103.834503
760.356201	926.926453	2435.940186	2511.952148	105.037193
760.672668	930.195740	2449.760498	2520.942627	104.684380
760.989136	925.143127	2442.033203	2517.599121	104.981636
761.305481	923.508484	2432.745361	2508.757080	105.036430
761.621826	927.892334	2432.522461	2518.713623	105.728394
761.938049	949.365906	2464.546875	2553.487549	105.869972
762.254333	943.644531	2507.048096	2585.437500	105.014023
762.570496	931.087402	2535.134521	2636.260498	106.304428
762.886597	906.270264	2574.292236	2715.021240	108.436882
763.202637	911.099915	2664.495850	2854.784424	110.852570
763.518677	919.644775	2808.197266	3038.906982	112.216217
763.834656	927.297852	2958.214111	3217.382080	112.761139
764.150574	918.678772	3083.637451	3343.994141	112.025940
764.466370	920.536377	3126.955811	3364.055664	110.745911
764.782288	918.232971	3118.930908	3293.096924	107.914124
765.097961	936.362854	3072.045898	3165.221680	104.362808
765.413696	925.291809	2993.953857	3013.643799	100.951820
765.729309	925.514709	2885.620361	2876.109619	99.514786
766.044861	924.920349	2777.064209	2775.875244	99.935806
766.360474	932.796387	2692.656250	2706.328125	100.776871
766.675903	930.567200	2605.201904	2636.855225	101.890160
766.991394	918.455872	2531.791016	2564.855469	102.049446
767.306763	919.867676	2467.296387	2513.364014	102.977043
767.622131	923.508545	2421.005615	2473.240479	103.488144
767.937378	918.604553	2368.993652	2446.342773	105.332993
768.252625	928.263855	2332.362305	2410.082764	105.535255
768.567810	920.610657	2295.879883	2378.727295	106.024086
768.882996	934.951172	2257.985352	2342.318848	106.374252
769.197998	925.366150	2225.812256	2309.105713	106.404991
769.513062	936.511536	2205.601807	2290.306885	106.674469
769.828064	929.452820	2190.592773	2264.078369	105.826920
770.142944	926.034851	2175.732178	2244.908203	105.535423
770.457825	925.514648	2161.837646	2225.663818	105.162582
770.772705	917.564270	2134.048584	2216.301514	106.761528
771.087402	918.753113	2126.023682	2194.679443	105.686859
771.402100	916.226868	2102.024170	2185.837158	107.068069
771.716736	924.474426	2090.804443	2165.032715	106.364258
772.031372	930.195801	2066.953125	2167.856201	108.876396
772.345947	926.629211	2061.231934	2146.382568	107.504883
772.660461	931.236023	2069.479492	2131.670654	105.463783
772.974854	929.304138	2057.219727	2121.639893	105.711433
773.289246	934.951111	2051.795410	2124.091797	106.473274
773.603638	933.985168	2033.591187	2132.636963	109.007401
773.917908	927.372314	2022.891602	2116.810303	108.572983
774.232178	922.616943	2002.978516	2105.367920	109.477325
774.546265	920.313477	1988.935181	2087.460693	109.219872
774.860474	925.440430	1978.978516	2084.785889	110.043053
775.174561	936.585876	1977.566895	2075.498047	109.407585
775.488586	937.848938	1978.755859	2072.748535	109.029884
775.802551	939.037842	1972.365845	2068.736084	109.326202
776.116516	932.276184	1953.344238	2063.163574	110.755348
776.430359	929.675598	1936.254517	2066.878662	112.977043
776.744202	940.003723	1942.570313	2068.216309	112.532440
777.057922	934.876892	1944.799316	2053.429932	110.756325
777.371704	933.985168	1944.130737	2037.306274	109.223969
777.685303	922.245422	1928.824219	2027.943970	109.847183
777.998962	922.839844	1924.737793	2024.823364	109.989601
778.312500	924.102966	1913.295044	2013.900879	110.170502
778.626038	923.062683	1898.954712	1998.445923	110.194908
778.939453	925.514648	1904.824585	2010.334351	110.773888
779.252869	939.260681	1923.920288	2022.817017	110.043755
779.566223	943.124329	1926.446655	2017.318848	109.241348
779.879578	936.362854	1924.440430	2011.300293	108.790802
780.192749	922.245422	1908.613892	2002.235474	109.491539
780.505920	911.917297	1908.836914	2015.312866	110.680489
780.819031	912.214539	1889.889648	2006.842285	111.962318
781.132141	957.019043	1933.282593	2045.553833	111.500099
781.445190	961.625793	1933.133911	2035.225708	110.508583
781.758118	972.176819	1943.462036	2036.043335	109.531830
782.071045	925.960510	1882.385132	1985.740234	110.806412
782.383911	922.096741	1867.598755	1968.501953	110.671921
782.696838	911.768738	1846.942749	1947.622925	110.765938
783.009583	916.078308	1843.896484	1934.545532	109.770134
783.322266	917.712891	1826.212280	1926.000854	110.983887
783.634888	915.186584	1819.822266	1914.929688	110.513336
783.947510	900.623230	1806.819336	1906.756470	111.028198
784.260132	897.131042	1801.320923	1894.125000	110.263779
784.572571	897.948303	1788.540894	1882.831055	110.587349
784.885010	910.505554	1774.794922	1878.744263	112.027145
785.197449	924.102844	1783.042358	1877.778320	111.029411
785.509766	935.917053	1787.351929	1876.738159	110.498306
785.822083	932.721985	1779.029907	1868.787720	110.605812
786.134277	931.013000	1760.974487	1870.942505	113.249771
786.446533	930.641602	1751.092163	1878.149902	115.486336
786.758606	947.954102	1759.414063	1887.363403	115.767792
787.070740	948.474182	1769.593628	1899.326172	115.799477
787.382690	936.882996	1770.262329	1905.939087	116.280312
787.694641	912.734558	1778.286987	1914.929688	115.786758
788.006653	901.663574	1793.964844	1937.294922	116.062965
788.318481	912.065918	1830.670410	1973.703125	115.570656
788.630310	912.363220	1859.128418	2008.328247	115.758911
788.942017	908.945251	1867.598999	2018.507690	115.741737
789.253784	909.019531	1876.663696	2030.470337	115.894958
789.565430	915.558105	1879.264526	2016.427124	114.232819
789.877014	922.914063	1879.561646	1999.783325	112.566978
790.188538	918.455872	1860.168579	1979.795898	112.703171
790.500061	917.935791	1827.252563	1959.139648	114.503975
790.811462	920.610657	1801.989624	1934.248169	115.005867
791.122925	929.081238	1791.215820	1909.059692	113.668846
791.434204	929.452637	1786.683228	1884.837280	111.450134
791.745483	928.783997	1776.429565	1860.465820	109.914078
792.056702	914.294983	1748.788940	1832.156616	109.990204
792.367920	916.152588	1731.030640	1821.085327	111.051308
792.678955	911.397156	1713.272095	1816.924438	112.926247
792.990112	917.341370	1705.173218	1818.113281	114.335556
793.301086	914.815125	1694.473633	1812.466309	115.133888
793.612122	927.818115	1704.281616	1822.942993	115.282288
793.922974	924.400208	1699.228882	1810.757446	114.393967
794.233826	923.434265	1707.773804	1812.169067	113.309959
794.544556	918.307312	1703.241211	1814.472290	114.170761
794.855286	921.279480	1698.783203	1814.769531	114.917786
795.166016	930.864502	1702.052368	1834.311157	117.150009
795.476624	924.548767	1694.993774	1831.636353	117.735542
795.787292	916.003906	1709.854126	1852.887085	118.017624
796.097778	904.189758	1718.176147	1858.236816	117.206757
796.408264	904.784241	1740.095337	1877.555542	116.456169
796.718689	913.031921	1764.689819	1888.477905	114.534958
797.029053	918.976135	1765.135376	1897.914429	115.691971
797.339355	921.428040	1764.095337	1890.112671	114.954575
797.649658	927.223633	1745.073853	1881.567871	116.689369
797.959839	920.016357	1736.306030	1865.146851	115.783714
798.270020	920.387878	1726.349487	1849.989136	115.340637
798.580078	925.737610	1732.739380	1849.469116	114.464622
798.890137	929.527039	1719.885132	1837.803711	114.919640
799.200195	929.898621	1711.265991	1832.082397	115.462173
799.510071	921.428040	1684.442749	1803.475708	115.600349
799.820007	918.753113	1676.343628	1780.813354	113.789734
800.129883	912.660339	1665.495483	1767.661743	113.570869
800.439575	907.310547	1669.359253	1768.553345	113.016762
800.749329	909.093750	1663.637817	1769.073364	113.973412
801.058960	907.904968	1653.607056	1763.946655	114.796738
801.368591	908.127869	1638.820801	1745.519531	114.602402
801.678162	912.065857	1635.848633	1739.723999	114.351730
801.987671	916.301086	1624.257446	1742.770386	116.740150
802.297119	920.982239	1616.232788	1739.575195	117.740715
802.606506	913.180481	1595.873901	1726.126587	119.079239
802.915894	910.654114	1595.650879	1714.460938	117.344620
803.225159	901.812073	1585.397095	1705.024536	117.500008
803.534424	905.230042	1597.137085	1720.999634	117.901619
803.843628	901.366272	1596.468140	1717.284546	117.381111
804.152771	914.146301	1607.464966	1740.615601	119.204826
804.461792	924.251465	1616.604126	1731.476196	116.591553
804.770874	929.898621	1621.508301	1736.677368	116.652321
805.079773	921.873840	1617.421509	1727.984009	115.895744
805.388733	914.666504	1606.127563	1738.089233	119.084465
805.697571	913.626221	1606.276367	1747.005737	120.317528
806.006470	914.517883	1624.331909	1758.225464	118.863190
806.315125	909.465332	1640.752563	1758.299683	116.073997
806.623901	903.075256	1648.554321	1763.203491	115.379257
806.932495	898.171326	1641.718384	1747.302734	114.200089
807.241150	904.932861	1634.288208	1742.993164	114.904251
807.549622	915.706787	1617.198853	1737.866211	117.201530
807.858154	921.799622	1607.019409	1731.030396	118.097984
808.166565	919.496277	1595.428101	1723.823120	118.995262
808.474915	915.855408	1599.960327	1709.036743	115.944397
808.783264	920.239197	1597.211304	1717.878906	117.824608
809.091492	920.313477	1577.818237	1698.114258	118.295837
809.399719	914.666504	1561.174438	1677.532593	117.997948
809.707825	904.487000	1557.162109	1658.213867	115.482704
810.015930	897.279602	1564.072266	1657.767944	114.051697
810.323975	908.425110	1572.319946	1666.015625	114.113029
810.632080	912.660339	1548.022949	1665.198242	118.442268
810.939880	911.694397	1530.636108	1661.557495	121.152458
811.247864	908.647949	1520.753906	1641.941528	119.798470
811.555664	903.149597	1517.410156	1624.257446	117.394455
811.863464	914.517883	1519.639282	1611.923218	115.250481
812.171143	907.013367	1500.320679	1605.904663	117.795837
812.478882	918.530273	1496.754028	1605.161621	118.748383
812.786438	927.595215	1501.435181	1610.882813	119.072853
813.094055	931.161682	1505.298828	1625.966431	121.017212
813.401489	921.873840	1507.973633	1629.087280	120.664337
813.708984	904.487000	1491.106934	1626.189331	123.027245
814.016357	919.867676	1498.091431	1610.734375	119.480858
814.323730	934.876892	1500.023438	1605.830444	118.722046
814.630981	933.836609	1504.035645	1594.387817	115.845726
814.938232	928.486816	1494.747925	1594.684937	117.648575
815.245361	914.072021	1481.224731	1595.873901	120.214867
815.552490	917.341370	1487.466187	1588.295044	117.685402
815.859619	913.477600	1487.912109	1583.911133	116.711914
816.166565	916.449707	1500.394897	1575.663452	112.889664
816.473572	915.186584	1496.456665	1593.496094	116.694382
816.780457	910.802734	1490.809937	1598.177246	118.511375
817.087341	907.756348	1489.175171	1596.839844	118.517578
817.394043	907.087646	1494.599243	1592.010132	116.580246
817.700806	909.168152	1495.267944	1603.081421	118.395073
818.007507	908.870911	1513.323608	1624.406250	118.377396
818.314209	910.951355	1513.100586	1629.087280	119.262115
818.620667	905.750183	1529.670288	1630.350220	116.136673
818.927246	902.332214	1524.320313	1637.111938	118.134048
819.233704	899.805908	1549.063110	1673.817505	119.214943
819.540161	898.691406	1578.784180	1721.222656	120.943977
819.846497	911.694397	1620.691040	1776.280884	121.945076
820.152832	913.403381	1664.232422	1831.413452	122.266190
820.458984	916.598328	1724.046265	1895.462402	121.229370
820.765259	908.127869	1785.494507	1978.458496	121.993530
821.071350	913.180420	1863.140991	2065.169922	121.267082
821.377502	902.480774	1960.254395	2215.558594	124.135994
821.683472	908.127869	2167.856201	2489.587158	125.539711
821.989441	906.344543	2538.180908	3037.123779	130.575546
822.295349	907.682068	3145.531250	3879.642334	132.804321
822.601196	909.985413	3918.576904	4909.700684	132.943115
822.907043	912.957520	4671.040527	5848.590332	131.333786
823.212769	919.124695	5158.243652	6418.937500	129.739517
823.518494	929.452698	5283.220703	6470.800781	127.277061
823.824097	916.003906	5040.250488	6020.377441	123.764992
824.129700	914.666504	4609.295410	5262.118652	117.669518
824.435242	900.177429	4088.507080	4452.070801	111.402954
824.740723	905.378723	3635.557861	3787.209717	105.554649
825.046082	897.799805	3259.437500	3292.205078	101.387497
825.351501	894.604797	2959.774658	2940.530273	99.068146
825.656799	891.186829	2725.572510	2683.145752	97.687141
825.962036	896.833801	2524.806396	2518.267822	99.598358
826.267212	910.802734	2394.256592	2450.355225	103.781624
826.572449	924.028625	2328.127197	2474.206299	110.403763
826.877502	928.486816	2364.089844	2583.802979	115.304588
827.182495	936.214294	2503.630127	2793.336670	118.483070
827.487488	936.660095	2669.399414	3039.129883	121.337914
827.792419	938.220459	2829.150391	3258.322998	122.696381
828.097290	915.781067	2868.902344	3318.433594	123.016045
828.402100	910.431335	2834.574463	3233.580078	120.736794
828.706848	919.198975	2687.380859	3004.058838	117.909805
829.011597	922.022522	2506.453857	2724.160645	113.740372
829.316223	910.208313	2294.393799	2426.281006	109.528145
829.620789	904.264160	2136.723389	2196.908447	104.883331
829.925354	910.356934	2010.260132	2024.303223	101.276756
830.229797	931.013184	1920.056641	1910.620117	99.045891
830.534302	954.046936	1841.741577	1841.667358	99.991638
830.838562	942.752930	1743.736328	1773.457397	103.710571
831.142944	928.561096	1668.318970	1724.566040	107.603447
831.447144	903.446777	1593.644897	1660.220093	109.645813
831.751404	905.378662	1570.165039	1639.489624	110.428101
832.055542	913.180420	1549.360352	1628.715454	112.473686
832.359619	909.985352	1538.363647	1635.700073	115.490097
832.663635	922.319641	1542.821655	1650.337891	117.327301
832.967651	916.895569	1568.901978	1690.907227	118.712280
833.271545	915.260925	1616.455688	1775.315063	122.655525
833.575439	903.446777	1695.365234	1897.617188	125.539490
833.879211	900.103210	1820.119507	2070.073730	127.168449
834.183044	902.926697	1968.353516	2261.403076	127.505371
834.486694	896.685242	2095.262451	2408.522705	126.136009
834.790344	920.462158	2173.428955	2485.574707	124.912529
835.093933	920.387878	2166.072998	2427.692871	121.002090
835.397522	930.641602	2088.129639	2307.545166	118.956184
835.700928	902.555176	1971.177124	2123.423096	114.246941
836.004395	919.124695	1876.218140	1990.569946	111.947830
836.307739	918.307373	1787.129272	1864.255249	108.877075
836.611023	921.279480	1716.764282	1769.519165	106.631790
836.914307	907.459167	1640.827026	1672.777222	104.356636
837.217529	920.016296	1601.297974	1620.542358	102.824730
837.520691	926.926453	1546.313843	1570.165039	103.850769
837.823730	919.198975	1491.775757	1534.053833	107.383827
838.126831	909.539612	1429.955688	1492.072876	111.936066
838.429749	908.870911	1397.931274	1479.738647	116.727463
838.732727	918.753235	1381.287476	1459.602661	116.931763
839.035522	916.003967	1369.622070	1445.633789	116.756767
839.338379	916.672668	1355.578857	1426.909546	116.251923
839.641113	910.431335	1357.436401	1431.664917	116.605743
839.943848	909.093811	1378.389648	1456.853516	116.719490
840.246460	902.852356	1405.361694	1501.286499	119.089157
840.549072	903.669678	1437.014526	1543.490356	119.963791
840.851563	911.917297	1454.772827	1577.149536	122.543144
841.154053	916.078308	1462.277466	1572.468384	120.174126
841.456482	922.245422	1437.609009	1543.044556	120.458481
841.758850	916.672668	1410.117065	1496.234009	117.452209
842.061157	911.694336	1378.686890	1461.757446	117.788414
842.363403	903.966858	1359.962646	1425.497681	114.371849
842.665588	896.462341	1327.715210	1378.241211	111.716095
842.967712	904.041260	1308.025024	1341.758545	108.350220
843.269775	906.939148	1282.910767	1323.628784	110.830078
843.571777	912.437500	1271.988281	1322.959961	114.176491
843.873840	913.106140	1263.592163	1319.021973	115.815125
844.175659	920.907959	1260.842896	1308.842407	114.120209
844.477600	936.660156	1267.455933	1305.647583	111.545387
844.779297	937.700378	1247.914185	1298.885864	116.431145
845.081116	939.855164	1237.140259	1292.718750	118.695351
845.382751	924.548767	1221.536743	1283.653809	120.915680
845.684387	910.877014	1214.849487	1263.294922	115.937439
845.985962	899.954529	1196.050903	1242.564575	115.708961
846.287537	901.737793	1174.205811	1224.137451	118.325691
846.588989	908.499329	1172.794067	1215.146851	116.024834
846.890381	909.539612	1175.394653	1218.267456	116.126381
847.191711	907.236145	1179.630005	1212.546143	112.084023
847.493042	915.112305	1178.218262	1213.883545	113.555481
847.794250	925.811829	1193.450317	1218.638916	109.411423
848.095459	930.270020	1189.363647	1220.942261	112.188110
848.396606	920.462097	1184.385376	1216.855591	112.302902
848.697693	907.459167	1161.574585	1210.019897	119.064293
848.998657	909.168152	1160.237061	1205.710205	118.111816
849.299622	920.016296	1157.562134	1217.821655	125.367531
849.600464	929.972839	1151.171997	1210.317017	126.738358
849.901367	921.576660	1147.011108	1202.441040	124.588051
850.202087	915.483826	1151.469238	1189.289429	116.026497
850.502808	911.768738	1157.636353	1186.837402	111.876740
850.803467	911.545837	1161.054199	1189.066528	111.227013
851.104065	927.298035	1166.255493	1204.224243	115.889336
851.404663	928.858398	1170.490723	1207.493530	115.313683
851.705139	929.007019	1164.472290	1198.502930	114.452507
852.005615	916.301086	1149.983276	1180.001587	112.845787
852.306030	912.586121	1144.410522	1171.753906	111.794868
852.606384	918.753174	1149.611694	1184.013794	114.901810
852.906616	924.697327	1156.819092	1184.831177	112.067841
853.206909	931.013123	1158.007935	1183.791016	111.358444
853.506958	925.068848	1152.732422	1173.908813	109.301613
853.807129	917.267090	1138.763550	1168.930542	113.619629
854.107178	909.093750	1134.230957	1171.159546	116.402702
854.407166	909.093750	1134.230957	1175.023193	118.118835
854.707092	905.081482	1136.162964	1171.679565	115.369728
855.007019	901.737793	1134.008179	1165.512573	113.563675
855.306763	910.951355	1127.246582	1159.196777	114.771568
855.606567	909.911133	1120.262085	1147.679810	113.034279
855.906250	908.945251	1110.305542	1146.045166	117.749092
856.205933	900.177429	1110.082642	1143.816040	116.070778
856.505493	905.824463	1115.655273	1145.302246	114.128990
856.805054	916.969788	1124.274414	1149.017212	111.935478
857.104492	923.434265	1125.389038	1148.422974	111.405495
857.403931	922.096741	1119.073242	1159.419556	120.482803
857.703308	912.288757	1120.782104	1153.995605	115.930244
858.002563	906.493164	1123.011353	1147.531250	111.324638
858.301819	909.911133	1129.327026	1143.370239	106.400269
858.601013	918.307312	1126.652222	1146.639526	109.593376
858.900208	922.245361	1121.525269	1147.085449	112.826271
859.199219	918.381653	1118.924683	1143.518921	112.263824
859.498291	923.137024	1122.491211	1143.741821	110.659729
859.797302	924.102966	1129.772949	1151.617798	110.621307
860.096191	933.019226	1141.958618	1170.342163	113.584579
860.395020	926.257751	1132.224854	1166.404175	116.594551
860.693787	917.489990	1125.983398	1152.360840	112.651451
860.992554	899.805969	1111.642944	1128.807007	108.102486
861.291260	902.480896	1116.844116	1132.819336	107.452408
861.589844	911.025696	1122.119629	1138.317749	107.673416
861.888428	923.582825	1127.543823	1137.723267	104.990875
862.186890	919.347595	1131.110352	1138.317749	103.403526
862.485413	912.511719	1127.469604	1142.627319	107.051483
862.783813	907.013367	1127.395142	1139.060669	105.293327
863.082153	908.499329	1127.395142	1142.478638	106.890717
863.380371	912.437439	1130.441528	1142.701538	105.623749
863.678589	908.350769	1123.902954	1149.463135	111.858002
863.976746	904.338379	1119.296265	1142.107178	110.611809
864.274902	909.836731	1116.026855	1144.484863	113.801826
864.572937	918.010071	1122.342651	1141.066895	109.163612
864.870911	931.161682	1128.138184	1141.587036	106.827644
865.168884	915.855286	1124.943237	1132.596313	103.660217
865.466736	897.428223	1109.934082	1125.834839	107.482506
865.764587	881.601807	1098.862915	1116.769897	108.242149
866.062317	886.208496	1102.206665	1123.680054	109.941467
866.360107	900.103088	1113.946411	1139.580688	111.987411
866.657715	900.474609	1114.615112	1144.113281	113.775146
866.955322	900.549011	1103.395386	1142.032837	119.047646
867.252808	901.514954	1095.519409	1130.144409	117.847527
867.550293	912.660217	1095.445190	1130.813110	119.349464
867.847717	907.607727	1099.308716	1119.296265	110.426422
868.145081	910.802734	1098.119995	1121.673828	112.574303
868.442383	903.223877	1097.971313	1122.936890	112.819466
868.739624	914.072083	1101.091919	1131.333130	116.170052
869.036804	923.062683	1109.785400	1135.196899	113.609215
869.333984	922.393982	1106.144653	1123.531372	109.462128
869.631042	911.322937	1103.172485	1111.122803	104.144035
869.928101	900.846191	1095.519409	1100.497559	102.557182
870.224976	897.799805	1088.757813	1102.429443	107.159492
870.521851	943.644592	1121.005127	1136.237183	108.588188
870.818726	939.186340	1121.748169	1132.447754	105.860802
871.115479	947.954102	1136.162964	1145.153442	104.776863
871.412231	917.787170	1110.528442	1124.051636	107.016243
871.708862	921.279480	1113.946411	1130.961792	108.831497
872.005493	915.929688	1111.568726	1125.834839	107.292061
872.302063	908.499329	1105.921753	1135.642944	115.054619
872.598572	909.093750	1108.819458	1139.060669	115.141373
872.895020	906.938965	1107.184937	1134.751099	113.766151
873.191406	913.700500	1116.695679	1135.271240	109.150742
873.487671	913.329041	1110.454102	1128.955444	109.385590
873.783997	915.558044	1114.020630	1140.769653	113.478119
874.080200	900.549011	1101.909302	1132.150513	115.018456
874.376343	893.415955	1104.732788	1135.271362	114.451561
874.672424	906.195984	1114.392212	1131.779175	108.351234
874.968445	925.663269	1126.503540	1126.354980	99.926033
875.264465	927.966614	1129.698608	1133.636597	101.952087
875.560364	917.415710	1122.639771	1133.265137	105.177444
875.856201	898.022644	1117.884399	1126.131958	103.751251
876.152039	901.514954	1121.079468	1121.153809	100.033859
876.447754	897.502625	1122.713989	1106.516113	92.807701
876.743469	910.505554	1137.871826	1128.286743	95.784302
877.039063	899.285828	1130.441528	1122.565552	96.592781
877.334595	903.595398	1123.382813	1128.361084	102.265038
877.630127	898.245605	1108.522339	1123.011353	106.890450
877.925537	909.836853	1117.735840	1129.549927	105.682610
878.221008	905.601563	1121.822388	1131.853149	104.639130
878.516296	898.245605	1111.122925	1130.590210	109.144836
878.811646	894.753418	1113.723511	1142.181396	112.996246
879.106812	900.846191	1122.416870	1165.066772	119.248894
879.401978	905.304382	1128.807007	1172.199707	119.414848
879.697083	905.527344	1134.528320	1181.784790	120.635925
879.992126	905.750183	1155.333008	1197.908325	117.058594
880.287109	909.985535	1197.759888	1241.301147	115.130348
880.582031	918.233093	1244.199097	1303.269653	118.121689
880.876892	917.267090	1318.204590	1398.228516	119.959206
881.171753	913.180420	1467.330078	1579.601563	120.260139
881.466492	919.050293	1712.454712	1882.162109	121.389771
881.761230	916.152527	2033.665527	2281.687988	122.194145
882.055786	913.923523	2360.597412	2676.012451	121.802773
882.350403	898.617188	2598.217529	2927.081299	119.349480
882.644958	895.124939	2687.455322	2975.898438	116.093193
882.939453	900.400391	2630.390625	2828.555908	111.454704
883.233826	908.722229	2487.209229	2576.446777	105.653358
883.528137	907.087585	2315.495850	2302.047119	99.045113
883.822449	908.870911	2153.070068	2051.349609	91.824425
884.116577	900.177429	2001.640991	1838.917969	85.226646
884.410828	897.799805	1866.038452	1673.520142	80.116646
884.704956	902.332275	1750.794922	1555.378906	76.968224
884.999023	903.669678	1635.031250	1472.902832	77.831978
885.292969	908.350830	1529.744263	1394.067749	78.165764
885.586914	901.663574	1431.962036	1326.526489	80.117699
885.880798	909.688232	1367.021484	1291.752808	83.541832
886.174622	913.774841	1331.653320	1277.560913	87.055466
886.468384	910.431152	1292.792969	1265.003784	92.732231
886.762085	903.149597	1262.848999	1239.072144	93.389801
887.055664	897.279602	1223.171387	1220.867920	99.293182
887.349304	893.861633	1208.385132	1201.177734	97.708473
887.642822	897.056641	1195.456543	1176.954956	93.799736
887.936340	896.833801	1189.809448	1155.927368	88.435188
888.229736	901.737793	1174.280273	1145.896484	89.585556
888.523071	896.611023	1163.952026	1151.023438	95.164009
888.816284	921.873840	1170.193481	1160.608521	96.140068
889.109619	931.607483	1175.469116	1157.190552	92.504532
889.402710	946.245117	1161.351563	1136.162964	88.290169
889.695862	924.400085	1132.299194	1107.110474	87.884163
889.988892	909.465271	1112.460327	1088.014771	87.957558
890.281921	886.951538	1113.649170	1078.875488	84.660767
>>>>>End Processed Spectral Data<<<<<
