Jaz Data File
++++++++++++++++++++++++++++++++++++
Date: Fri Jun 04 13:46:11 2021
User: jaz
Dark Spectrum Present: Yes
Reference Spectrum Present: Yes
Processed Spectrum Present: Yes
Spectrometers: JAZA3586
Integration Time (usec): 386000 (JAZA3586)
Spectra Averaged: 10 (JAZA3586)
Boxcar Smoothing: 1 (JAZA3586)
Correct for Electrical Dark: No (JAZA3586)
Strobe/Lamp Enabled: Yes (JAZA3586)
Correct for Detector Non-linearity: No (JAZA3586)
Correct for Stray Light: No (JAZA3586)
Number of Pixels in Processed Spectrum: 2048
>>>>>Begin Processed Spectral Data<<<<<
W	D	R	S	P
191.335022	0.000000	0.000000	0.000000	0.000000
191.713211	286.065460	285.248138	279.303925	827.279541
192.091385	572.502502	577.257874	565.815247	-140.625320
192.469528	854.406982	861.837219	852.623718	-24.000099
192.847641	859.682556	865.923828	864.735046	80.952896
193.225739	885.911377	882.047607	882.864929	78.846519
193.603790	921.205139	908.276550	905.750183	119.540932
193.981842	931.979004	931.904785	924.251526	10411.759766
194.359863	932.573425	939.037842	933.613708	16.092453
194.737854	946.170898	946.913879	943.273010	-390.035309
195.115829	950.108887	942.530029	942.529968	100.000809
195.493774	946.170837	931.384583	931.533203	98.994873
195.871704	932.499207	924.103027	925.366028	84.957436
196.249603	954.121277	933.465088	935.471191	90.288124
196.627457	952.337952	942.604309	936.437195	163.358749
197.005310	948.399902	940.300964	928.635437	244.037735
197.383133	928.486816	932.424988	922.616882	-149.052277
197.760910	946.839539	940.375305	941.564026	81.610802
198.138687	946.839600	944.536194	944.833435	87.095581
198.516449	949.663086	944.164612	935.842773	251.348145
198.894180	927.966614	930.715820	916.524109	-416.211182
199.271866	925.291748	933.687988	914.740723	-125.663689
199.649536	922.765442	935.174011	915.037903	-62.275826
200.027191	932.870667	943.793030	922.765442	-92.518661
200.404816	924.325867	940.300842	923.582825	-4.651287
200.782410	923.880066	954.046875	932.796387	29.556725
201.159988	922.616882	964.077820	931.533203	21.505352
201.537537	931.756165	977.377991	939.706543	17.426699
201.915070	928.561218	968.610352	930.567322	5.009106
202.292557	920.685059	963.780579	931.087402	24.137877
202.670029	919.719177	959.396729	933.019287	33.520493
203.047485	921.502441	963.483398	934.951172	32.035313
203.424911	920.016357	963.929199	935.025574	34.179562
203.802292	913.997803	969.353333	928.189636	25.637608
204.179688	909.465332	967.867249	930.938782	36.768398
204.557037	912.363098	964.597961	931.384583	36.415306
204.934357	925.737610	956.350342	935.694153	32.524189
205.311661	936.288574	955.161438	940.449524	22.047262
205.688934	933.242188	959.396729	944.684753	43.749825
206.066177	919.570496	957.019043	938.889160	51.587219
206.443390	908.796631	960.436951	940.152283	60.719322
206.820587	908.870911	949.365906	928.486816	48.440323
207.197769	923.508545	966.678406	945.056335	49.913967
207.574921	926.332031	963.706299	933.465088	19.085476
207.952042	931.533203	973.514221	942.232727	25.486576
208.329147	931.236023	965.489563	929.527039	-4.989220
208.706223	1056.881958	1091.878540	1064.683716	22.292913
209.083267	1059.556763	1097.971313	1071.073730	29.980743
209.460297	1049.600220	1098.119995	1069.513306	41.041176
209.837280	920.759277	970.393555	939.260742	37.275581
210.214264	906.344543	961.179993	934.431091	51.219692
210.591217	898.617126	952.189392	929.378418	57.420181
210.968124	907.384827	968.387390	949.663086	69.305710
211.345016	922.245422	974.183044	957.539124	67.954018
211.721893	922.839844	977.526611	963.111816	73.641167
212.098724	917.638672	957.390625	948.474304	77.570107
212.475555	922.542664	960.214111	948.474304	68.836327
212.852356	933.390686	959.248230	942.232910	34.195915
213.229126	940.003723	970.170593	945.873718	19.458416
213.605865	923.880066	955.904480	927.818115	12.297022
213.982590	911.768738	956.053040	925.514648	31.040144
214.359283	899.805969	953.155273	909.168030	17.548609
214.735931	895.942200	960.511230	912.660339	25.891886
215.112579	900.400391	967.644287	921.502258	31.381090
215.489197	901.440613	968.610352	932.424805	46.128201
215.865799	909.168152	980.275879	937.254578	39.498417
216.242355	903.818298	971.359558	931.384583	40.813992
216.618896	918.307312	983.768066	941.415466	35.300777
216.995407	915.409424	969.873352	939.557922	44.338516
217.371902	914.889343	968.387390	931.830383	31.666651
217.748367	902.183594	955.978821	929.378418	50.552486
218.124802	902.852356	961.551514	925.143127	37.974602
218.501236	903.595398	957.539124	933.316406	55.096321
218.877609	908.499329	960.288391	924.177246	30.272642
219.253983	904.858582	960.065430	927.223633	40.511372
219.630295	903.669617	983.247864	927.892395	30.438944
220.006592	900.846191	991.644043	927.669495	29.541782
220.382889	907.533386	998.554199	928.263916	22.775593
220.759140	914.146301	988.746277	928.412537	19.123646
221.135391	910.877014	994.244690	934.802551	28.698818
221.511581	903.669739	994.913391	927.000793	25.570057
221.887772	899.508789	1005.092957	937.551758	36.030941
222.263931	911.248535	1011.780212	943.050110	31.633387
222.640060	924.994568	1017.947266	958.430847	35.971283
223.016159	926.852112	1022.999817	955.830261	30.139200
223.392212	914.220703	1022.033875	949.217285	32.460396
223.768265	899.434387	1027.532349	945.502136	35.962906
224.144302	892.672913	1027.532349	943.644531	37.796108
224.520294	893.787415	1023.668640	942.827148	37.757370
224.896286	909.242432	1033.179321	945.353516	29.136671
225.272217	919.124695	1041.947144	954.566956	28.856501
225.648148	927.595215	1066.392578	957.613464	21.627392
226.024048	909.019470	1065.798218	947.136780	24.312803
226.399902	903.743958	1077.612305	944.907715	23.675245
226.775772	894.307556	1072.708374	942.455750	26.988773
227.151581	910.431152	1098.194214	959.322449	26.038826
227.527374	903.669617	1127.469360	961.328613	25.763657
227.903137	910.579773	1175.394897	971.805359	23.120125
228.278870	908.127869	1238.329224	981.539063	22.232250
228.654572	914.369324	1308.396729	985.402771	18.027540
229.030273	909.688171	1396.891235	997.068176	17.935028
229.405930	901.589172	1473.497192	998.257080	16.902702
229.781555	906.121765	1537.992065	1005.092957	15.663213
230.157181	908.276550	1551.960938	997.513977	13.863538
230.532761	904.338379	1529.001343	997.959778	14.987506
230.908325	895.570618	1470.748047	987.780273	16.031515
231.283859	892.598572	1427.578125	994.616211	19.069447
231.659332	899.434387	1381.139038	987.111633	18.201452
232.034821	902.778015	1356.321899	989.935120	19.216908
232.410263	903.298157	1334.996948	976.040527	16.850260
232.785690	899.508728	1312.037476	968.684570	16.768732
233.161087	903.075195	1299.851685	971.359436	17.209749
233.536469	904.264099	1280.235840	977.377991	19.446646
233.911804	907.161865	1289.449463	987.929016	21.127327
234.287140	909.688171	1298.291382	983.099365	18.891041
234.662430	912.363098	1324.446045	990.306641	18.914528
235.037704	912.734619	1341.981445	998.257080	19.923841
235.412933	901.514954	1348.000000	1001.897949	22.482946
235.788162	893.044434	1346.365356	992.535828	21.947231
236.163345	900.549011	1348.371460	1000.783386	22.382616
236.538513	908.053650	1364.792358	1017.650085	23.995434
236.913635	908.722351	1371.108032	1023.445618	24.811163
237.288742	901.217773	1377.423828	1021.885315	25.339355
237.663834	898.171326	1372.668457	1010.739929	23.723768
238.038879	899.880188	1375.937866	1009.625305	23.052904
238.413910	898.394226	1389.683716	1004.721375	21.642464
238.788910	899.285828	1402.538208	1010.739929	22.146761
239.163879	903.595398	1417.770142	1021.216614	22.875729
239.538834	908.573669	1425.051880	1025.749023	22.687376
239.913757	914.294983	1469.336304	1032.064819	21.218210
240.288651	916.375488	1509.756836	1039.866699	20.811441
240.663528	908.127869	1562.214478	1053.389771	22.208359
241.038361	897.725403	1609.619751	1070.107910	24.214619
241.413177	897.948425	1708.219604	1091.135498	23.842274
241.787979	899.508789	1819.970825	1108.893799	22.747816
242.162735	903.818359	1958.619629	1130.813110	21.520144
242.537476	896.833801	2076.760986	1148.274292	21.309830
242.912170	919.050293	2205.007568	1183.419556	20.558168
243.286865	924.920227	2262.815186	1197.685669	20.387657
243.661514	924.697327	2259.768799	1194.416260	20.202583
244.036148	912.883118	2186.951904	1169.376221	20.131809
244.410751	914.740784	2082.259521	1159.196777	20.938078
244.785339	916.747009	1999.040405	1158.156494	22.305363
245.159882	913.626221	1949.777710	1161.128540	23.886692
245.534378	916.003906	1986.854858	1172.496948	23.952263
245.908890	913.477600	2072.005859	1202.292358	24.929451
246.283356	907.236145	2235.694580	1250.440552	25.834785
246.657791	888.214661	2451.172607	1299.480347	26.313292
247.032196	896.833801	2719.405029	1353.201294	25.039761
247.406586	900.994690	2953.755859	1378.687012	23.270720
247.780960	911.694336	3110.163086	1390.055298	21.758825
248.155289	900.325989	3134.237305	1376.012085	21.293865
248.529602	897.725403	3042.547852	1340.123901	20.626345
248.903870	901.143372	2861.620850	1303.344116	20.515448
249.278122	904.784180	2650.155273	1253.932739	20.004259
249.652344	897.725525	2462.020752	1235.356934	21.583612
250.026550	896.908203	2311.557861	1215.815430	22.543194
250.400711	916.226868	2211.323242	1221.685303	23.585768
250.774857	924.103027	2137.243408	1218.787598	24.291052
251.148987	927.298035	2105.442139	1224.286011	25.208120
251.523071	907.904968	2105.293701	1230.527466	26.943840
251.897125	926.629211	2160.351807	1266.415527	27.541548
252.271164	916.003906	2223.211914	1271.319458	27.181255
252.645187	912.808899	2283.694092	1269.164673	25.994574
253.019165	892.524231	2297.291748	1237.140259	24.531889
253.393112	920.610657	2290.455566	1250.143311	24.056200
253.767044	925.663269	2211.546143	1227.926880	23.506311
254.140930	928.858337	2130.110352	1226.515015	24.778872
254.514801	910.356934	2040.947266	1198.874390	25.519186
254.888657	911.099915	1997.777344	1196.942505	26.304272
255.262466	914.815125	1962.334961	1192.410034	26.500208
255.636276	923.285645	1973.926147	1213.883667	27.659130
256.010010	924.845947	1996.365601	1237.066040	29.138065
256.383759	921.948181	2038.272339	1251.480835	29.519440
256.757446	910.059753	2080.996338	1264.929565	30.306494
257.131134	906.493225	2157.973877	1285.734253	30.303387
257.504791	902.629456	2259.025391	1312.557617	30.221865
257.878418	903.521057	2365.352783	1335.739990	29.566940
258.252014	911.471436	2515.964600	1395.850952	30.188942
258.625580	915.558105	2692.581787	1485.162720	32.053856
258.999115	906.195984	2939.787109	1567.267212	32.507580
259.372650	900.103210	3214.038330	1641.272949	32.030704
259.746124	892.004150	3535.992188	1702.275391	30.645798
260.119598	899.211426	3831.642578	1764.615234	29.511478
260.493042	898.096924	4030.105225	1781.630493	28.209810
260.866425	903.669617	4079.516602	1760.900024	26.992184
261.239838	902.926575	3933.289063	1691.501465	26.022461
261.613159	903.669678	3662.158203	1612.443359	25.694277
261.986511	904.264160	3344.142578	1539.626587	26.040741
262.359802	912.734619	3084.677490	1494.450562	26.783207
262.733063	908.425049	2920.096924	1480.258789	28.425797
263.106293	913.626221	2820.679688	1470.971069	29.225445
263.479523	911.174255	2762.203857	1475.875000	30.507387
263.852692	923.508545	2723.714600	1466.735718	30.175833
264.225861	917.712952	2684.185791	1448.902954	30.070656
264.598969	921.205139	2666.427490	1452.395142	30.436808
264.972076	919.198975	2672.297607	1461.757446	30.948542
265.345154	926.777832	2719.108154	1491.627319	31.514809
265.718201	915.112305	2767.107422	1506.116211	31.911741
266.091217	927.075012	2861.174561	1555.378906	32.485603
266.464203	927.223633	2945.731201	1586.734741	32.673206
266.837158	928.858215	3059.340088	1618.016113	32.347511
267.210114	906.716125	3136.391846	1621.062500	32.038128
267.583038	899.583069	3201.406982	1639.118164	32.128220
267.955902	908.350769	3235.289063	1644.467896	31.634579
268.328766	910.356934	3226.372803	1651.229370	31.989092
268.701569	906.790344	3227.635986	1653.161255	32.159435
269.074371	891.855652	3230.310791	1661.260254	32.902260
269.447144	898.171326	3265.084229	1675.972290	32.861412
269.819885	903.223877	3318.359375	1714.832520	33.605099
270.192596	916.003906	3419.634033	1779.698853	34.497704
270.565277	926.109070	3577.081299	1880.527710	36.002590
270.937927	917.787170	3756.819580	1951.189453	36.399807
271.310577	914.146301	3973.041016	2006.916626	35.724350
271.683136	899.657410	4175.367188	2021.702759	34.253506
272.055725	901.440674	4344.777344	2022.371582	32.553623
272.428284	899.211609	4382.151855	2012.266235	31.957331
272.800812	897.874023	4332.071777	1991.461548	31.844046
273.173279	907.087585	4185.843750	1972.588501	32.497108
273.545776	906.493164	4063.467529	1939.672485	32.726883
273.918152	916.152527	3939.678955	1918.867676	33.163765
274.290558	911.620117	3880.682861	1892.044434	33.021339
274.662964	917.861511	3820.794678	1874.657593	32.959633
275.035278	904.264099	3775.395752	1862.249023	33.366112
275.407593	909.391052	3769.525391	1889.666870	34.273769
275.779907	911.843018	3831.568359	1944.353516	35.363274
276.152161	917.341370	3925.932861	1980.167480	35.326370
276.524384	915.632385	4015.319092	2006.470703	35.191891
276.896606	914.889404	4067.628174	2009.814331	34.729324
277.268799	916.672668	4114.661621	2021.702759	34.553902
277.640930	909.465271	4123.949219	2022.223022	34.616997
278.013031	907.533447	4136.432617	2030.693481	34.784611
278.385162	907.310547	4116.073730	2034.928711	35.141830
278.757233	907.904968	4103.516602	2038.940918	35.393410
279.129272	901.737793	4085.535156	2045.182251	35.914486
279.501282	893.416016	4097.200684	2054.098633	36.228485
279.873230	895.199219	4162.141113	2099.200439	36.854076
280.245178	897.948425	4276.790039	2160.426025	37.364212
280.617126	901.589172	4452.070313	2239.706787	37.688347
280.988983	896.388000	4626.607422	2304.796143	37.756710
281.360870	908.647949	4806.791504	2377.761475	37.687519
281.732697	906.567444	4952.499512	2424.794922	37.524792
282.104492	914.889465	5077.179199	2442.850830	36.709637
282.476288	904.487122	5152.967773	2429.996094	35.907169
282.848053	912.363098	5184.026855	2417.885010	35.244396
283.219757	905.898743	5212.261230	2412.609375	34.988014
283.591461	912.288757	5168.868652	2408.076904	35.140606
283.963135	910.951355	5133.129395	2412.015137	35.551880
284.334747	920.239258	5094.343262	2449.909424	36.646671
284.706360	913.849121	5159.729492	2500.583740	37.371159
285.077942	921.799561	5298.007324	2571.691406	37.701405
285.449524	926.406311	5453.820313	2610.106201	37.188999
285.821014	924.846008	5558.214844	2617.016113	36.521381
286.192535	913.180420	5681.260254	2641.535889	36.248459
286.563995	900.325989	5760.169922	2640.273193	35.802536
286.935425	893.936035	5813.890625	2640.718750	35.504040
287.306824	898.171326	5744.343750	2584.620361	34.799606
287.678223	898.691406	5625.458984	2542.193359	34.770103
288.049561	913.106140	5498.550293	2517.153320	34.981281
288.420898	906.716125	5361.535645	2503.035645	35.833542
288.792145	913.106140	5330.551758	2518.044922	36.331825
289.163452	907.533447	5360.940918	2554.304688	36.977783
289.534668	914.666504	5490.302246	2628.310059	37.451485
289.905914	908.499329	5628.951172	2697.486084	37.898636
290.277039	915.186584	5819.240234	2761.757813	37.653976
290.648193	923.434265	6011.089844	2791.627686	36.720119
291.019318	919.198914	6128.860840	2795.862549	36.022751
291.390381	909.911133	6132.649902	2756.184814	35.350681
291.761475	900.177490	6028.031250	2697.262939	35.045570
292.132507	903.075195	5926.533203	2658.699951	34.948532
292.503510	901.217712	5821.395020	2646.440186	35.470722
292.874481	930.492981	5818.274902	2701.275391	36.228756
293.245422	937.551758	5825.036621	2755.144775	37.188721
293.616364	944.833313	5943.846191	2840.741943	37.925663
293.987213	922.245300	6109.838379	2900.778320	38.139709
294.358093	922.393982	6327.248535	2974.783936	37.973083
294.728943	906.864746	6551.939453	3024.343750	37.510204
295.099731	897.799805	6726.550781	3095.822998	37.710022
295.470490	896.908203	6901.607910	3160.094971	37.690258
295.841248	914.963684	7013.359375	3230.310547	37.966492
296.211975	909.688171	7130.980957	3279.053467	38.084770
296.582642	902.852356	7278.992188	3333.516846	38.121258
296.953308	896.685242	7435.175781	3340.947266	37.382664
297.323883	903.149597	7541.280762	3335.077393	36.635727
297.694519	910.579895	7536.673340	3262.855469	35.500191
298.065063	921.576660	7448.327637	3215.524414	35.146854
298.435608	922.468323	7245.555176	3116.999023	34.706635
298.806122	921.353821	6955.626465	3032.591064	34.987438
299.176575	913.700623	6618.812500	2931.614014	35.370266
299.547028	918.158691	6387.433594	2867.119141	35.634712
299.917450	912.883240	6240.314453	2830.710938	35.999107
300.287872	902.629456	6169.206543	2817.485107	36.358639
300.658234	894.158936	6097.058594	2813.026611	36.880737
301.028564	902.109375	6028.848145	2802.327148	37.064846
301.398865	910.431335	5983.671875	2777.807373	36.808346
301.769135	913.997864	5929.134277	2750.835205	36.625874
302.139374	909.539551	5905.580078	2740.878906	36.655815
302.509583	899.731628	5867.686035	2717.770752	36.595325
302.879791	899.657410	5801.259277	2699.715088	36.723862
303.249939	898.319885	5683.415527	2657.436768	36.762421
303.620087	902.257874	5572.778809	2634.997314	37.099491
303.990173	894.976257	5505.236816	2613.449463	37.274967
304.360260	899.657410	5487.181641	2617.164551	37.438648
304.730286	901.812195	5474.772949	2622.885986	37.635872
305.100281	906.493164	5451.813477	2607.579590	37.425007
305.470276	903.595398	5439.182129	2613.821045	37.706821
305.840179	902.257996	5457.758301	2626.749756	37.855152
306.210144	900.846191	5479.751465	2645.994385	38.112782
306.579987	906.641785	5514.971191	2656.396729	37.969395
306.949890	906.641846	5544.915527	2667.170654	37.956554
307.319702	919.124695	5629.471191	2726.538330	38.371136
307.689484	918.307373	5705.854980	2770.971436	38.697556
308.059265	923.582825	5815.153809	2843.416260	39.247791
308.429016	915.335266	5939.759277	2883.614258	39.174225
308.798737	906.270325	6100.921875	2925.744141	38.876022
309.168396	897.725525	6236.003906	2952.344482	38.488419
309.538055	894.902039	6307.854980	2973.594971	38.402195
309.907684	891.335449	6332.226563	2967.947998	38.166771
310.277313	894.084656	6350.207520	2960.517578	37.873650
310.646851	899.285828	6375.990723	2946.028564	37.371788
311.016388	916.747009	6373.018066	2966.387451	37.564857
311.385895	940.003723	6321.006348	2950.709717	37.366756
311.755371	935.099792	6255.025879	2926.190186	37.427029
312.124817	923.657043	6190.605469	2867.341797	36.903435
312.494232	912.288757	6134.655762	2834.946045	36.815819
312.863617	912.660339	6056.043457	2811.094727	36.910225
313.232971	918.084412	6013.765137	2822.314453	37.369492
313.602295	909.836731	5988.725098	2847.057373	38.142612
313.971619	916.226807	6035.164063	2905.310547	38.857357
314.340820	909.465332	6053.368652	2932.802734	39.334671
314.710083	917.787292	6120.761230	2937.855469	38.825256
315.079285	925.217468	6143.571777	2900.629639	37.855076
315.448486	932.424805	6164.153809	2857.013916	36.786865
315.817596	930.418640	6057.678223	2782.636719	36.124912
316.186707	919.421875	5878.831543	2709.151611	36.087555
316.555786	913.626221	5678.957031	2654.539063	36.532883
316.924866	906.270264	5527.825684	2636.409180	37.436287
317.293884	904.487000	5444.680176	2632.916748	38.069515
317.662872	910.208313	5422.463867	2652.235352	38.606571
318.031830	905.750183	5412.953125	2668.582275	39.111439
318.400757	910.059753	5470.240723	2687.380859	38.974789
318.769684	905.378662	5513.707520	2698.377686	38.907791
319.138550	902.555176	5573.075684	2705.510498	38.602879
319.507416	904.635559	5574.041504	2688.197998	38.196777
319.876190	900.920471	5539.862793	2648.520508	37.672382
320.244995	926.926453	5502.859375	2631.207764	37.244453
320.613770	923.954407	5431.603027	2615.455811	37.525143
320.982483	927.446594	5394.525879	2620.136963	37.892555
321.351166	909.316711	5323.938477	2612.632324	38.583504
321.719818	904.115540	5313.387207	2646.365967	39.513340
322.088440	898.914307	5345.188965	2697.337646	40.447872
322.457062	897.205383	5483.169434	2778.104492	41.014259
322.825623	907.681946	5640.690918	2864.444092	41.342880
323.194183	900.846191	5805.791504	2934.808594	41.467587
323.562653	902.629456	5951.201660	2990.090088	41.347546
323.931183	897.799805	6072.390137	3005.619141	40.734032
324.299591	901.069153	6156.277344	2996.703125	39.877281
324.668060	894.530518	6184.586426	2952.492920	38.902473
325.036407	887.100281	6180.945801	2909.397461	38.200909
325.404755	893.564514	6122.023438	2862.809570	37.663967
325.773102	898.542786	6038.285156	2809.311768	37.176361
326.141388	912.288879	5954.248535	2773.126221	36.907028
326.509674	913.997803	5867.537598	2735.529053	36.772312
326.877899	916.598389	5798.287109	2704.470459	36.624050
327.246124	912.660339	5736.541504	2677.870117	36.593140
327.614288	919.570374	5696.715332	2661.672119	36.467426
327.982422	921.799500	5648.121094	2666.055908	36.905155
328.350525	926.629211	5593.360840	2682.551270	37.626381
328.718628	919.273254	5554.128418	2709.746094	38.630611
329.086700	925.960510	5576.642090	2743.033936	39.071121
329.454712	913.626282	5621.520996	2746.302979	38.927734
329.822693	919.867676	5664.765137	2770.154053	38.995285
330.190674	916.672668	5688.021973	2778.773438	39.026714
330.558563	921.205078	5712.542480	2807.379883	39.366352
330.926483	919.421875	5753.705566	2831.528320	39.553047
331.294312	902.778015	5820.652344	2867.119141	39.942886
331.662231	901.143372	5932.106934	2929.607666	40.319599
332.029999	898.171204	6068.600098	2969.508057	40.061222
332.397766	907.830566	6171.509766	3016.244385	40.055897
332.765503	908.945129	6266.319824	3026.201172	39.520405
333.133240	897.948425	6337.427734	3033.334229	39.257172
333.500916	888.883484	6410.170410	3041.135986	38.980991
333.868561	885.911316	6418.121094	3039.947266	38.936264
334.236176	890.220886	6403.631348	3019.737061	38.624298
334.603790	894.679016	6371.830078	2987.563721	38.211193
334.971344	890.815247	6325.019531	2970.697021	38.273899
335.338867	886.431458	6280.883301	2966.684570	38.562828
335.706360	882.047607	6240.611816	2967.055908	38.909828
336.073853	885.093933	6235.187500	2969.285156	38.956161
336.441284	892.301331	6254.506348	2990.535889	39.130070
336.808655	905.304382	6271.149902	3014.758545	39.312611
337.176086	903.298157	6282.740234	3044.256836	39.798901
337.543396	912.660339	6262.307129	3058.894531	40.119175
337.910706	903.223938	6227.310547	3053.990234	40.396908
338.277954	912.585999	6200.413574	3041.730469	40.265015
338.645264	899.285828	6163.484863	3025.309570	40.386459
339.012421	904.189880	6154.643066	3000.195313	39.920467
339.379669	900.697571	6143.794922	2949.520752	39.076584
339.746796	917.638672	6156.872559	2912.220703	38.070110
340.113953	922.096741	6155.014160	2882.053955	37.454388
340.481018	922.245361	6161.998535	2870.314209	37.178638
340.848114	913.923523	6187.484863	2854.859131	36.805023
341.215118	905.378723	6235.113281	2884.505859	37.133694
341.582153	904.041260	6336.610840	2943.799561	37.546844
341.949066	907.756348	6446.355469	3049.606689	38.671337
342.316010	905.675964	6579.431152	3172.577393	39.954163
342.682922	908.202148	6680.408691	3302.904541	41.486774
343.049835	899.360168	6832.432129	3452.178711	43.026928
343.416656	920.462097	7059.576172	3616.164795	43.910286
343.783478	918.827454	7329.814941	3742.182373	44.039318
344.150269	929.527039	7623.458984	3822.206299	43.213451
344.516998	915.781006	7835.593262	3818.194092	41.943523
344.883728	918.455872	7989.771484	3785.278076	40.541569
345.250427	911.099915	8009.907715	3726.356201	39.658157
345.617065	904.041199	7931.518066	3650.195557	39.077385
345.983704	898.765686	7788.337402	3577.156250	38.876011
346.350281	893.936035	7631.335938	3489.701904	38.527710
346.716827	894.158936	7477.008301	3405.442139	38.148876
347.083405	893.713074	7321.269531	3360.563477	38.379288
347.449860	943.570129	7217.171875	3365.170166	38.599838
347.816376	955.087097	7105.197266	3359.523193	39.095818
348.182770	957.613342	7019.080566	3349.938232	39.467754
348.549194	915.929626	6950.871094	3338.421143	40.141094
348.915558	909.316711	6985.718750	3393.999756	40.890697
349.281921	901.663574	7014.994629	3440.513428	41.529728
349.648193	900.623291	7067.823730	3459.460693	41.491070
350.014526	897.056702	7104.900391	3468.971436	41.430084
350.380737	904.338440	7205.803223	3478.110352	40.844025
350.746948	911.025696	7281.443848	3514.072998	40.861485
351.113159	908.945251	7347.796875	3523.732422	40.609528
351.479309	903.743958	7375.511230	3561.106201	41.060844
351.845428	894.233215	7443.795410	3605.242188	41.392220
352.211517	896.833801	7541.503418	3676.944580	41.839718
352.577576	893.415955	7650.728516	3748.200928	42.247341
352.943604	897.948425	7763.891113	3838.924561	42.834263
353.309601	911.174255	7892.583984	3927.196045	43.200756
353.675537	916.746887	8095.875488	3991.542236	42.829647
354.041473	911.099915	8287.130859	4045.783203	42.498241
354.407379	894.233215	8473.705078	4089.696045	42.159443
354.773254	901.143372	8631.969727	4179.899902	42.411465
355.139038	908.276367	8808.736328	4258.140137	42.400871
355.504913	924.994446	9056.907227	4421.457520	42.996811
355.870636	914.072083	9305.003906	4548.440918	43.313057
356.236389	902.332214	9583.267578	4700.093262	43.748291
356.602081	889.552185	9840.429688	4816.302246	43.869999
356.967804	886.580078	10105.615234	4925.304199	43.808533
357.333405	891.706970	10356.981445	4976.870605	43.159485
357.699036	889.626465	10550.912109	4954.579590	42.074661
358.064606	896.982422	10705.981445	4908.958008	40.900967
358.430176	899.360168	10762.600586	4885.032715	40.409363
358.795654	894.901917	10783.851563	4911.855957	40.620636
359.161163	902.926697	10790.686523	5012.609863	41.563339
359.526581	905.304382	10874.723633	5197.697754	43.055603
359.892029	927.298035	11124.973633	5474.921875	44.594711
360.257416	916.375488	11525.762695	5767.229004	45.722279
360.622772	912.140198	12030.129883	6016.959473	45.914951
360.988098	891.632629	12542.893555	6183.323730	45.417324
361.353394	895.199219	12967.756836	6238.605469	44.260765
361.718658	900.697571	13274.625977	6177.156738	42.641743
362.083893	897.651184	13320.026367	5953.356934	40.698383
362.449097	903.446777	13148.460938	5656.963379	38.820019
362.814209	900.251770	12707.918945	5301.053223	37.270710
363.179382	912.214539	12084.222656	4983.483398	36.441692
363.544434	910.208313	11382.285156	4741.925293	36.589848
363.909546	907.161926	10700.186523	4588.787598	37.594368
364.274536	903.966858	10209.268555	4511.512207	38.768711
364.639587	897.725525	9859.079102	4450.361328	39.643963
365.004517	896.610901	9645.606445	4413.730469	40.200268
365.369507	894.604797	9484.221680	4362.907227	40.377846
365.734344	901.291992	9389.486328	4350.201660	40.631840
366.099274	903.149597	9327.889648	4348.417969	40.894653
366.464081	910.579834	9267.109375	4349.235352	41.149326
366.828918	910.208313	9208.633789	4326.350098	41.166142
367.193665	908.350769	9142.057617	4258.511719	40.688366
367.558411	913.700500	9066.121094	4233.694824	40.724033
367.923126	909.019531	8962.393555	4167.268066	40.458179
368.287781	919.124695	8876.500977	4161.770020	40.750179
368.652435	911.694336	8802.717773	4117.187988	40.622028
369.017059	919.198975	8770.098633	4144.457031	41.081383
369.381653	929.452698	8744.613281	4180.494141	41.599163
369.746185	927.000732	8746.916016	4233.843750	42.287453
370.110687	921.279358	8757.318359	4285.781250	42.936256
370.475220	900.474670	8813.714844	4297.817871	42.932392
370.839661	902.852356	8892.773438	4327.093262	42.857006
371.204041	902.480896	8983.347656	4351.538574	42.681778
371.568451	904.932861	9020.127930	4368.628418	42.681602
371.932770	900.251770	9051.855469	4335.192383	42.138222
372.297150	906.716064	9039.669922	4302.944824	41.758858
372.661377	906.418884	9034.542969	4291.874023	41.651123
373.025696	905.601563	9033.798828	4324.715820	42.064854
373.389862	897.131104	9046.282227	4347.601074	42.341465
373.754059	906.270325	9084.845703	4407.489258	42.809647
374.118225	911.322937	9139.235352	4461.358887	43.146255
374.482361	911.322815	9262.651367	4550.075684	43.570950
374.846436	895.942200	9437.411133	4654.693848	44.005917
375.210510	891.781250	9663.440430	4816.896973	44.747700
375.574524	904.561340	9939.698242	4980.882813	45.116325
375.938538	919.273254	10226.877930	5122.503906	45.159100
376.302460	925.663269	10520.967773	5252.904785	45.097492
376.666412	922.022461	10798.414063	5338.947266	44.722050
377.030304	916.449768	10997.397461	5357.895020	44.057816
377.394196	907.830750	11117.618164	5279.356934	42.817017
377.757996	909.762512	11102.238281	5152.373535	41.624931
378.121796	902.778076	11007.426758	4998.195313	40.530033
378.485565	907.161926	10803.837891	4854.642578	39.886936
378.849304	893.936096	10527.877930	4737.689941	39.898041
379.212982	896.090820	10239.731445	4667.474121	40.363102
379.576630	901.069092	9967.487305	4647.338379	41.320278
379.940277	911.322754	9808.999023	4643.103027	41.941067
380.303864	915.112305	9687.069336	4636.267090	42.421032
380.667450	905.675842	9664.851563	4624.007324	42.450703
381.030945	900.549011	9615.664063	4605.505859	42.511852
381.394501	903.223877	9632.159180	4634.855469	42.750134
381.757935	920.684998	9651.253906	4678.099609	43.037453
382.121399	917.341370	9678.300781	4746.755371	43.709988
382.484741	918.232971	9814.943359	4829.974121	43.968403
382.848145	907.013367	9911.686523	4897.589355	44.316723
383.211487	910.059753	10057.169922	4972.041016	44.407261
383.574768	901.514954	10163.645508	5008.597656	44.342739
383.938019	893.490234	10257.415039	5030.814453	44.183655
384.301270	900.549011	10363.668945	5022.269531	43.555622
384.664459	903.223816	10404.387695	5024.127441	43.372620
385.027649	908.573730	10450.602539	5026.281738	43.153378
385.390778	905.081482	10534.491211	5094.565918	43.507175
385.753876	913.997803	10579.815430	5161.884277	43.947517
386.116943	912.065918	10660.731445	5226.675781	44.258465
386.479980	913.403320	10702.934570	5242.056641	44.217167
386.842987	915.706726	10786.600586	5252.756348	43.937763
387.205994	926.257629	10848.866211	5255.876953	43.633881
387.568909	920.759277	10897.832031	5246.217773	43.353985
387.931793	911.322937	10903.924805	5202.527832	42.943821
388.294678	897.502625	10875.540039	5175.704590	42.876190
388.657471	904.858459	10818.475586	5155.865723	42.880486
389.020294	913.180481	10790.389648	5191.457031	43.314629
389.383057	925.514709	10870.338867	5288.347656	43.870388
389.745819	924.251648	10971.465820	5404.705566	44.593994
390.108521	924.697327	11129.061523	5529.682129	45.127602
390.471191	915.706726	11325.963867	5668.703125	45.656860
390.833801	913.031799	11560.760742	5787.216309	45.776756
391.196442	909.093750	11813.612305	5869.766113	45.491898
391.558960	914.666504	11999.071289	5889.084473	44.877628
391.921509	914.517883	12152.878906	5886.707031	44.243008
392.284027	914.815125	12240.407227	5863.153809	43.691658
392.646484	908.796570	12233.348633	5832.614746	43.479145
393.008911	900.846191	12128.210938	5810.250000	43.727123
393.371307	900.623291	12053.164063	5818.199707	44.093773
393.733673	904.561279	11995.133789	5799.104004	44.132465
394.096008	902.778015	11972.174805	5770.795410	43.977264
394.458344	903.521057	11916.745117	5709.272949	43.636196
394.820587	899.211487	11816.510742	5627.910156	43.313816
395.182831	907.161926	11694.950195	5513.038574	42.695282
395.545013	894.976257	11463.645508	5408.271973	42.704487
395.907196	902.629395	11216.070313	5317.325195	42.805264
396.269287	901.589172	10985.136719	5274.229980	43.364109
396.631409	903.669739	10841.732422	5248.224121	43.716309
396.993469	902.109375	10705.461914	5246.589844	44.316273
397.355530	906.047363	10617.933594	5268.880371	44.922611
397.717499	916.152588	10563.469727	5316.731934	45.614536
398.079468	914.294983	10576.769531	5355.740723	45.965923
398.441376	915.483887	10591.333008	5364.359375	45.979172
398.803284	901.217773	10591.926758	5349.647461	45.904068
399.165131	899.954590	10618.602539	5355.294434	45.843204
399.526978	894.307556	10591.778320	5380.482910	46.261292
399.888763	900.920471	10574.614258	5397.870117	46.486378
400.250519	903.000977	10546.900391	5414.439453	46.780231
400.612244	926.109131	10580.485352	5463.479004	46.998066
400.973938	931.236084	10573.425781	5539.564941	47.793388
401.335602	930.864502	10628.484375	5627.093750	48.426617
401.697205	920.907959	10748.408203	5745.160645	49.089321
402.058807	909.019531	10938.698242	5841.605469	49.179901
402.420349	905.601563	11183.377930	5998.681641	49.554298
402.781860	892.970032	11431.770508	6141.343262	49.800476
403.143341	897.279602	11783.296875	6292.029297	49.556686
403.504822	904.189880	12102.948242	6409.427246	49.159351
403.866241	910.951355	12466.065430	6505.351563	48.414928
404.227631	915.929688	12724.489258	6603.728027	48.166740
404.588959	916.301086	12957.502930	6661.089844	47.709427
404.950287	909.911133	13037.898438	6662.205078	47.429913
405.311554	898.988586	12990.790039	6621.635254	47.326664
405.672821	902.109314	12796.192383	6594.217285	47.856636
406.034027	902.034973	12520.901367	6529.351563	48.432579
406.395203	912.214539	12162.464844	6456.534668	49.281754
406.756348	906.047363	11898.614258	6396.721191	49.948971
407.117493	899.880310	11731.507813	6412.845215	50.896919
407.478516	894.976318	11712.411133	6476.076172	51.593559
407.839600	896.239502	11718.132813	6518.354980	51.951309
408.200592	914.072083	11769.104492	6606.923828	52.444355
408.561554	927.000793	11837.612305	6719.269531	53.088394
408.922485	925.737610	11906.120117	6836.964844	53.834435
409.283417	918.455994	11904.113281	6909.187500	54.532299
409.644257	911.174316	12015.269531	6970.857910	54.571609
410.005096	917.712891	12136.382813	7041.743652	54.587849
410.365906	917.564270	12239.589844	7081.570313	54.442608
410.726715	911.843018	12299.776367	7085.730957	54.214294
411.087433	908.796570	12285.211914	7055.786621	54.032753
411.448120	911.025635	12303.266602	7014.548828	53.576141
411.808807	918.158691	12223.762695	7020.938965	53.980137
412.169434	913.180420	12124.495117	7021.532715	54.483822
412.530029	919.124695	12070.031250	7072.949707	55.186771
412.890564	918.678772	12074.118164	7108.689453	55.488720
413.251099	930.864563	12149.981445	7204.911621	55.922821
413.611572	925.589050	12250.809570	7323.944824	56.496525
413.972076	928.561218	12352.828125	7445.801270	57.047340
414.332489	918.307312	12456.851563	7530.134766	57.302097
414.692871	919.124695	12644.762695	7659.050781	57.480255
415.053223	913.403320	12816.327148	7766.640625	57.576084
415.413574	918.753113	13098.159180	7942.663574	57.670387
415.773834	910.877136	13317.203125	8092.458496	57.886448
416.134094	914.815125	13573.250000	8303.551758	58.370068
416.494263	912.437439	13785.606445	8494.362305	58.897114
416.854462	913.329102	14104.809570	8757.616211	59.464798
417.214630	912.734619	14507.382813	9038.777344	59.773838
417.574738	911.991638	14923.924805	9308.792969	59.926075
417.934784	920.759277	15379.325195	9619.378906	60.162392
418.294861	925.737610	15869.128906	9974.768555	60.555405
418.654846	926.034851	16473.359375	10411.594727	61.010883
419.014832	921.650940	17082.789063	10833.558594	61.331741
419.374756	911.471497	17770.089844	11270.012695	61.443592
419.734680	925.663330	18478.269531	11732.176758	61.566437
420.094543	922.616882	19158.361328	12082.141602	61.195881
420.454376	932.499207	19696.091797	12301.410156	60.590271
420.814148	918.901794	20134.328125	12393.395508	59.715015
421.173920	916.375488	20535.265625	12511.761719	59.103172
421.533691	912.734558	20895.486328	12585.469727	58.414055
421.893341	906.641785	21112.525391	12622.471680	57.982273
422.253021	906.493164	21196.041016	12548.690430	57.380272
422.612640	903.669739	21102.566406	12531.079102	57.564575
422.972260	914.072083	21003.595703	12536.131836	57.851345
423.331757	916.969910	20997.281250	12617.046875	58.266415
423.691315	935.174011	21132.212891	12721.145508	58.354950
424.050781	936.362976	21289.662109	12751.089844	58.048214
424.410248	935.619873	21259.197266	12639.933594	57.589828
424.769653	925.663330	21172.783203	12405.804688	56.700123
425.128998	923.062683	21007.757813	12164.395508	55.969646
425.488373	918.753174	20691.599609	11874.168945	55.406368
425.847656	911.991638	20280.035156	11608.239258	55.226273
426.206940	912.585999	19863.568359	11318.237305	54.908241
426.566193	918.455872	19422.580078	11080.319336	54.916744
426.925385	917.044128	18952.617188	10781.101563	54.692234
427.284576	916.672668	18363.396484	10508.708008	54.979004
427.643677	915.558105	17918.099609	10299.174805	55.189499
428.002777	918.455994	17568.876953	10169.516602	55.560516
428.361847	928.561096	17198.330078	10044.761719	56.031528
428.720856	927.892395	16834.619141	9892.514648	56.357430
429.079865	926.406311	16554.423828	9814.200195	56.870899
429.438812	915.558105	16395.861328	9780.913086	57.268620
429.797760	925.960510	16313.161133	9783.141602	57.562004
430.156616	933.390808	16142.637695	9705.571289	57.676628
430.515503	933.613770	16039.729492	9629.410156	57.564747
430.874268	920.833679	15964.385742	9605.187500	57.728081
431.233093	906.939148	15989.425781	9678.672852	58.158405
431.591827	897.354004	16063.726563	9816.875977	58.811169
431.950562	907.013367	16177.932617	9934.347656	59.114544
432.309204	908.722229	16261.225586	10038.296875	59.466358
432.667877	917.044128	16456.789063	10133.405273	59.308319
433.026459	920.833679	16724.724609	10195.893555	58.688457
433.385010	920.982239	17052.029297	10215.881836	57.621178
433.743561	923.434265	17491.306641	10236.834961	56.213615
434.102051	920.313477	17951.759766	10224.054688	54.626846
434.460510	926.852112	18523.593750	10285.057617	53.181465
434.818939	921.428040	18933.375000	10239.063477	51.730309
435.177338	922.468262	19300.652344	10210.233398	50.536907
435.535675	926.109131	19484.476563	10145.442383	49.677502
435.894012	937.477539	19509.144531	10158.743164	49.652328
436.252289	932.424805	19423.697266	10275.992188	50.529606
436.610535	932.424805	19115.712891	10345.614258	51.768353
436.968719	937.700256	18830.388672	10541.252930	53.673058
437.326935	940.969666	18443.197266	10721.213867	55.879993
437.685028	936.214294	18181.576172	10928.890625	57.944141
438.043152	918.010193	17999.906250	11097.632813	59.593048
438.401215	914.666504	18058.607422	11304.268555	60.602177
438.759277	912.808899	18277.207031	11529.182617	61.138737
439.117249	928.932617	18728.076172	11848.385742	61.348190
439.475250	934.208069	19119.205078	12140.989258	61.626526
439.833130	940.672424	19600.091797	12445.631836	61.657646
440.191071	939.855042	19848.410156	12558.125000	61.444515
440.548889	944.164551	20131.429688	12617.046875	60.836613
440.906708	935.694092	20268.740234	12543.859375	60.043121
441.264496	923.508484	20354.785156	12401.792969	59.071178
441.622223	919.421875	20278.029297	12190.625000	58.223213
441.979950	921.279480	20108.619141	12008.731445	57.785248
442.337616	931.384583	19917.958984	11860.348633	57.561535
442.695251	931.756165	19658.419922	11732.028320	57.673233
443.052887	933.316467	19421.542969	11641.081055	57.916668
443.410461	920.313477	19274.201172	11717.316406	58.826794
443.768005	907.830627	19273.458984	11856.262695	59.613705
444.125458	916.375427	19360.169922	12046.105469	60.344036
444.482941	920.982239	19600.539063	12260.097656	60.703342
444.840393	928.412537	19919.443359	12615.859375	61.541931
445.197754	924.771667	20307.302734	12966.121094	62.124752
445.555084	928.189514	20631.634766	13207.085938	62.318523
445.912415	926.926453	21012.955078	13315.641602	61.678268
446.269714	921.205139	21316.931641	13369.289063	61.032806
446.626953	913.774902	21479.283203	13365.573242	60.547005
446.984161	906.864746	21586.501953	13281.313477	59.838814
447.341309	920.536438	21584.865234	13154.627930	59.203918
447.698456	931.384583	21607.751953	12984.028320	58.291882
448.055542	937.700378	21475.119141	12840.401367	57.956173
448.412598	935.619934	21205.328125	12596.987305	57.531006
448.769653	926.109192	20851.126953	12346.363281	57.316154
449.126617	931.979065	20390.451172	12030.280273	57.035828
449.483582	952.263733	20076.224609	11858.120117	57.027184
449.840515	962.888977	19642.445313	11661.886719	57.276508
450.197388	955.533020	19372.576172	11536.983398	57.454662
450.554230	937.254578	19133.023438	11447.449219	57.761745
450.911041	922.245422	19010.796875	11432.663086	58.105362
451.267822	923.582825	18944.220703	11481.108398	58.585743
451.624573	910.802795	18865.015625	11466.469727	58.792145
451.981262	914.889465	18808.619141	11444.625000	58.845947
452.337921	916.672668	18630.070313	11341.418945	58.852322
452.694580	916.078308	18387.841797	11139.984375	58.516739
453.051147	912.437500	18271.634766	11005.272461	58.141140
453.407715	918.901794	18037.654297	10752.866211	57.445572
453.764221	939.037781	17989.876953	10699.889648	57.245575
454.120728	948.474182	17609.000000	10459.000000	57.084187
454.477142	939.260681	17453.931641	10436.485352	57.507801
454.833557	928.932617	17202.195313	10364.189453	57.980118
455.189911	930.864502	17128.562500	10401.118164	58.466663
455.546265	937.105957	17054.853516	10432.995117	58.915730
455.902557	932.127625	17027.210938	10447.854492	59.121948
456.258820	923.731384	17120.166016	10587.989258	59.669044
456.615051	916.969910	17267.505859	10757.175781	60.182774
456.971252	931.236023	17363.951172	10982.981445	61.169109
457.327393	933.613708	17668.443359	11325.368164	62.096565
457.683502	943.718811	18111.882813	11745.550781	62.917805
458.039612	940.598145	18802.972656	12392.653320	64.112724
458.395630	957.019043	19571.412109	13029.426758	64.855232
458.751648	944.610413	20230.400391	13581.867188	65.526260
459.107605	936.585693	21055.904297	14019.585938	65.027054
459.463562	923.805664	21612.580078	14166.706055	64.010078
459.819458	927.075012	22010.544922	14119.077148	62.570354
460.175323	925.068848	22079.648438	13742.585938	60.589798
460.531158	931.533264	22060.404297	13257.686523	58.337963
460.886932	940.077942	21800.791016	12748.192383	56.604557
461.242676	944.684753	21358.392578	12268.495117	55.471603
461.598419	934.653870	20749.259766	11932.645508	55.504467
461.954102	927.669495	20090.341797	11555.335938	55.460251
462.309723	936.511536	19421.318359	11274.101563	55.924793
462.665344	938.666260	18817.164063	11030.907227	56.449043
463.020905	942.827148	18419.349609	10910.463867	57.034435
463.376373	936.660095	18171.771484	10889.956055	57.750111
463.731873	946.393799	17965.134766	10906.450195	58.524052
464.087341	948.251404	17821.654297	10940.036133	59.216187
464.442749	952.263672	17798.103516	11015.082031	59.734737
464.798126	943.718933	17787.849609	11053.421875	60.019142
465.153503	933.093567	17908.814453	11177.061523	60.344818
465.508820	914.146301	17917.283203	11237.617188	60.715096
465.864105	905.601563	18077.035156	11330.867188	60.712845
466.219330	909.985352	18322.826172	11471.820313	60.655441
466.574524	915.112305	18462.666016	11515.882813	60.411667
466.929657	920.907898	18509.328125	11434.817383	59.777451
467.284790	931.458923	18480.720703	11312.812500	59.155499
467.639893	938.071838	18459.023438	11180.702148	58.459324
467.994934	944.981995	18381.082031	11074.746094	58.096500
468.349945	941.192566	18193.617188	10944.641602	57.982864
468.704926	933.762268	18012.093750	10849.385742	58.059669
469.059875	939.632141	17796.542969	10774.043945	58.340538
469.414764	928.635437	17622.375000	10707.320313	58.576954
469.769653	939.706482	17494.279297	10670.836914	58.782135
470.124451	932.424805	17454.154297	10729.684570	59.299236
470.479248	938.591858	17398.947266	10784.222656	59.814205
470.834015	930.641541	17405.337891	10858.897461	60.263660
471.188721	930.344299	17521.025391	10980.828125	60.579086
471.543365	930.790222	17689.322266	11131.809570	60.870605
471.898010	919.496155	17851.080078	11232.862305	60.911999
472.252625	916.449768	18062.396484	11380.575195	61.029728
472.607178	917.787170	18304.474609	11524.351563	61.003941
472.961700	932.424866	18495.656250	11635.583008	60.940716
473.316193	937.774597	18664.695313	11673.774414	60.563255
473.670654	945.204895	18717.671875	11636.698242	60.157619
474.025055	952.932373	18822.439453	11713.377930	60.216797
474.379456	945.947937	18893.177734	11748.746094	60.192005
474.733795	943.644531	19005.595703	11860.497070	60.441158
475.088104	937.477356	19165.494141	12011.703125	60.753868
475.442383	953.080994	19306.001953	12211.950195	61.346466
475.796570	954.492859	19553.431641	12415.316406	61.620842
476.150787	962.814697	19910.529297	12669.133789	61.782223
476.504944	956.276062	20288.134766	12936.475586	61.971272
476.859070	962.071716	20602.880859	13164.434570	62.127602
477.213135	956.276062	20867.917969	13325.078125	62.118439
477.567200	943.347351	21241.365234	13463.653320	61.682407
477.921173	929.155518	21594.599609	13633.360352	61.475597
478.275146	924.251465	21942.859375	13785.903320	61.191742
478.629089	936.437195	22164.056641	13974.707031	61.421253
478.983002	942.307068	22569.599609	14263.668945	61.595142
479.336823	945.130615	23020.468750	14627.456055	61.980141
479.690643	942.158508	23555.521484	15105.519531	62.632706
480.044403	942.158508	24193.781250	15628.165039	63.161213
480.398163	940.672424	25081.404297	16431.972656	64.170792
480.751862	934.430969	26292.240234	17441.300781	65.095802
481.105499	938.889221	27875.408203	18905.882813	66.701248
481.459137	934.802551	30041.259766	21009.392578	68.969543
481.812744	936.660095	32919.519531	23871.679688	71.710350
482.166290	934.728210	36527.144531	27373.046875	74.280762
482.519806	941.118225	40667.738281	30990.031250	75.639236
482.873291	944.907715	45000.406250	34293.902344	75.697693
483.226715	934.802551	48905.531250	36649.074219	74.450134
483.580139	930.864441	51453.144531	37365.871094	72.116714
483.933502	934.282410	53310.496094	36831.785156	68.537796
484.286804	952.858093	54024.324219	35061.671875	64.269592
484.640106	956.201660	54379.937500	32916.031250	59.823280
484.993347	958.133545	53589.050781	30626.392578	56.370403
485.346558	943.644531	52336.312500	29025.837891	54.642410
485.699738	944.981934	50766.964844	28342.773438	54.991367
486.052887	939.334961	49286.707031	28499.552734	57.004585
486.405975	942.901550	48492.636719	29193.837891	59.413445
486.759064	944.907654	48174.917969	29888.195313	61.281559
487.112061	948.622803	48216.750000	30170.767578	61.822090
487.464996	950.257507	48168.000000	29858.101563	61.222420
487.817963	944.387634	48047.558594	29084.912109	59.742313
488.170868	938.443359	47545.343750	27832.759766	57.704582
488.523743	931.681824	46623.027344	26433.865234	55.814037
488.876587	931.458923	45321.609375	25080.662109	54.402164
489.229401	952.932312	43990.261719	24276.703125	54.194283
489.582153	959.099426	42744.347656	24021.625000	55.192982
489.934845	972.994141	41888.234375	24481.781250	57.457283
490.287537	954.195557	41594.363281	25292.275391	59.886761
490.640198	962.443176	41851.378906	26194.384766	61.708481
490.992798	949.291565	42161.812500	26647.705078	62.355843
491.345337	952.337952	42380.785156	26590.271484	61.884857
491.697876	954.641357	42166.574219	25766.177734	60.204739
492.050354	972.474060	41733.238281	24470.562500	57.648788
492.402832	967.792969	40638.910156	22682.912109	54.737858
492.755219	967.718689	39173.285156	20898.382813	52.166912
493.107605	950.108887	37126.542969	19240.095703	50.557739
493.459930	955.161438	35041.906250	18029.777344	50.091656
493.812225	946.468018	32845.218750	17172.619141	50.867672
494.164490	952.635193	31081.349609	16697.306641	52.258026
494.516724	948.474304	29680.742188	16426.771484	53.870781
494.868896	953.824036	28785.244141	16375.651367	55.411572
495.221039	951.446350	28234.068359	16460.357422	56.845387
495.573120	967.272766	27804.968750	16643.066406	58.409615
495.925201	999.668762	27686.679688	16839.822266	59.355289
496.277222	1006.876221	27663.421875	17009.453125	60.032452
496.629211	988.151855	27767.150391	17033.974609	59.919426
496.981140	949.365906	27679.250000	16927.201172	59.775173
497.333069	951.520569	27582.656250	16721.083984	59.214764
497.684967	955.235657	27456.562500	16478.261719	58.574528
498.036804	952.783752	27271.552734	16186.475586	57.881474
498.388580	944.016052	26968.767578	15865.488281	57.335697
498.740326	944.238953	26498.876953	15562.333008	57.203289
499.092072	946.393738	25990.203125	15279.165039	57.230797
499.443756	947.879700	25484.197266	15001.496094	57.276794
499.795410	957.093323	25080.734375	14767.145508	57.246964
500.147003	957.316223	24755.587891	14605.834961	57.350883
500.498566	957.018982	24384.445313	14454.256836	57.612980
500.850098	946.170898	23998.367188	14315.086914	57.994114
501.201599	945.947998	23667.794922	14176.661133	58.229034
501.553009	945.130615	23399.337891	14089.950195	58.540562
501.904449	947.062500	23249.767578	14058.522461	58.788654
502.255859	958.728027	23166.916016	14093.739258	59.144905
502.607178	960.882813	23161.640625	14183.793945	59.560631
502.958405	961.031433	23139.427734	14250.742188	59.921875
503.309692	951.520691	23141.656250	14317.242188	60.232719
503.660919	942.009827	23137.498047	14343.695313	60.380222
504.012115	951.743591	23196.716797	14364.276367	60.294670
504.363251	955.161438	23194.263672	14357.960938	60.266823
504.714294	960.585632	23204.740234	14292.054688	59.932461
505.065369	962.443115	23154.062500	14257.651367	59.910942
505.416443	963.854797	23085.111328	14134.085938	59.536545
505.767395	968.535950	23030.052734	14108.674805	59.561356
506.118317	966.083984	22954.935547	14049.085938	59.498341
506.469238	956.201721	22934.500000	14139.065430	59.981274
506.820160	947.879822	22911.541016	14237.812500	60.508728
507.170929	956.053040	23005.087891	14426.764648	61.094337
507.521729	960.511230	23168.333984	14575.148438	61.305592
507.872498	967.867249	23380.912109	14732.223633	61.412254
508.223236	970.022156	23626.630859	14904.233398	61.501747
508.573883	973.068542	23815.509766	15087.018555	61.788273
508.924500	968.313049	24066.875000	15262.448242	61.883221
509.275116	958.653748	24209.388672	15351.984375	61.904846
509.625702	963.186218	24443.218750	15462.545898	61.751869
509.976196	974.257324	24619.093750	15533.429688	61.574425
510.326660	974.628723	24876.328125	15644.214844	61.374657
510.677124	969.130371	25103.916016	15790.145508	61.409355
511.027557	975.074707	25269.759766	15924.039063	61.531830
511.377869	970.170715	25407.962891	16041.139648	61.670746
511.728180	972.845520	25446.304688	16065.289063	61.668617
512.078430	962.368835	25527.814453	16056.817383	61.445858
512.428650	956.573242	25577.744141	15984.668945	61.037289
512.778931	954.418457	25599.367188	15893.871094	60.618721
513.129028	954.344177	25545.500000	15778.924805	60.284199
513.479126	951.520691	25422.228516	15689.539063	60.227188
513.829285	945.576416	25286.775391	15549.700195	59.997555
514.179382	936.660095	25112.388672	15479.485352	60.154652
514.529297	944.684875	25025.677734	15451.028320	60.239811
514.879272	945.353516	25049.974609	15524.440430	60.482540
515.229187	957.093323	25076.351563	15617.393555	60.782551
515.579163	948.102722	25239.669922	15826.256836	61.248230
515.928955	953.155273	25460.646484	16148.656250	62.003490
516.278748	942.827209	25904.009766	16643.882813	62.901894
516.628540	966.158264	26458.009766	17249.970703	63.878502
516.978333	975.297607	27112.912109	17870.548828	64.639610
517.327942	978.492615	27846.802734	18477.378906	65.128349
517.677612	965.712463	28534.843750	18923.937500	65.138885
518.027222	951.446289	29116.562500	19200.417969	64.792816
518.376831	943.793152	29659.044922	19269.892578	63.820091
518.726379	941.192566	29974.013672	19130.498047	62.650837
519.075867	936.660095	30041.259766	18757.201172	61.229294
519.425293	962.071594	29887.007813	18293.033203	59.917027
519.774658	961.551514	29546.474609	17797.507813	58.898029
520.124084	968.907471	29154.380859	17441.896484	58.444962
520.473389	944.238953	28607.212891	17105.601563	58.422359
520.822693	948.102722	28086.947266	16915.087891	58.834435
521.171997	959.991211	27696.859375	16790.111328	59.207088
521.521240	978.418213	27387.759766	16768.191406	59.788589
521.870361	984.659668	27232.914063	16773.541016	60.152119
522.219482	974.108582	27102.068359	16886.183594	60.900566
522.568604	958.356445	27168.343750	17073.650391	61.485317
522.917664	955.087158	27291.091797	17379.703125	62.365631
523.266724	959.991150	27653.390625	17809.246094	63.121429
523.615662	972.845520	28185.029297	18394.529297	64.021629
523.964600	976.412048	28963.943359	19113.037109	64.802521
524.313538	979.161316	29852.677734	19970.712891	65.774986
524.662354	972.102478	30878.130859	20865.689453	66.520325
525.011169	991.941345	31984.570313	21767.873047	67.035072
525.359985	979.458435	33157.957031	22562.986328	67.074379
525.708740	972.919739	34438.199219	23435.968750	67.123444
526.057434	946.616638	35792.218750	24507.265625	67.614410
526.406067	963.483398	37453.179688	25978.310547	68.553131
526.754700	972.845520	39428.371094	27934.181641	70.110428
527.103333	974.703125	41966.175781	30319.599609	71.587807
527.451782	953.675476	44739.750000	32898.273438	72.956070
527.800293	960.362610	47476.167969	34972.730469	73.120026
528.148743	955.235657	49683.781250	36134.308594	72.193970
528.497131	959.991150	51176.519531	36051.085938	69.879570
528.845642	948.622864	51759.644531	34939.074219	66.895828
529.193909	955.310120	51615.941406	32971.386719	63.197151
529.542175	955.830261	50655.656250	30482.765625	59.410542
529.890503	967.124207	49058.371094	27965.687500	56.140285
530.238770	960.585510	46798.011719	25763.650391	54.110947
530.586914	962.591797	44515.281250	24305.312500	53.596512
530.934998	968.238770	42309.675781	23497.416016	54.495392
531.283142	971.805359	40789.746094	23521.640625	56.632351
531.631226	978.566895	39625.937500	23940.259766	59.413338
531.979248	971.285156	39238.449219	24777.056641	62.209396
532.327148	974.851746	39268.839844	25573.583984	64.236542
532.675110	976.040527	39597.925781	26221.875000	65.366653
533.023071	957.984924	39875.222656	26339.718750	65.219772
533.370850	959.471008	39943.136719	25873.765625	63.909576
533.718689	954.418457	39863.035156	24997.216797	61.792992
534.066467	973.588562	39399.460938	23868.781250	59.582756
534.414246	964.077820	38582.578125	22782.921875	58.000301
534.761963	960.288391	37667.316406	21981.419922	57.267319
535.109619	957.762146	36813.730469	21600.693359	57.571815
535.457153	962.517517	36083.781250	21510.638672	58.506210
535.804749	965.118103	35461.863281	21483.962891	59.480526
536.152344	961.328613	35003.863281	21404.384766	60.051510
536.499817	961.031433	34493.183594	21142.763672	60.186211
536.847229	965.043701	34023.808594	20755.054688	59.863129
537.194641	963.186096	33563.433594	20203.279297	59.018242
537.542114	971.953857	33276.843750	19721.576172	58.039581
537.889404	965.712463	32902.359375	19258.224609	57.277496
538.236694	978.641113	32583.228516	18990.587891	56.991558
538.583984	975.223145	32425.853516	19022.537109	57.382996
538.931213	980.127136	32736.884766	19527.720703	58.405186
539.278381	970.616394	33644.714844	20536.009766	59.880436
539.625488	975.594727	35052.378906	21890.843750	61.376827
539.972595	982.207703	37010.707031	23548.835938	62.635494
540.319641	982.579285	39254.050781	25129.107422	63.092758
540.666687	982.579285	41694.972656	26431.929688	62.510078
541.013611	973.885742	43913.425781	27118.265625	60.886490
541.360596	974.257324	45408.324219	27204.828125	59.032566
541.707458	968.090149	46430.503906	26670.218750	56.534897
542.054260	968.610291	46668.644531	25678.351563	54.069416
542.401062	971.433777	46618.121094	24528.666016	51.607758
542.747864	971.136536	45844.855469	23208.455078	49.555328
543.094666	978.418152	44739.824219	21974.509766	47.978558
543.441284	980.795898	43209.636719	20735.882813	46.781029
543.787903	985.179749	41876.941406	19817.353516	46.053711
544.134460	976.412109	40771.316406	19007.601563	45.310295
544.481079	969.724854	40174.515625	18440.375000	44.562542
544.827637	967.792969	39738.285156	18017.072266	43.974884
545.174072	969.204773	39432.828125	17811.775391	43.788307
545.520508	981.390381	39183.316406	17756.123047	43.910698
545.866943	977.823792	38866.488281	17710.203125	44.161964
546.213318	985.031189	38499.136719	17644.443359	44.408394
546.559631	982.950684	37876.253906	17448.431641	44.629997
546.905823	981.464661	36955.496094	17135.841797	44.905663
547.252136	980.052917	35696.289063	16654.732422	45.150864
547.598389	974.777405	34135.636719	16081.856445	45.556957
547.944458	972.028137	32553.359375	15446.940430	45.833759
548.290588	974.851746	30931.851563	14821.906250	46.223103
548.636658	976.412048	29446.835938	14277.340820	46.718407
548.982727	984.659668	27990.205078	13834.870117	47.583603
549.328735	984.511047	26702.468750	13522.278320	48.751026
549.674622	986.294434	25564.298828	13231.605469	49.822235
550.020569	977.749512	24678.164063	13079.731445	51.062325
550.366455	971.656677	23909.353516	12948.214844	52.213428
550.712280	966.529846	23300.294922	12917.305664	53.509899
551.058044	973.142761	22864.728516	12955.422852	54.734638
551.403748	975.891907	22560.609375	13050.084961	55.938622
551.749512	976.114807	22372.328125	13190.738281	57.087780
552.095154	973.142761	22168.587891	13283.320313	58.079353
552.440735	978.418213	22095.328125	13326.266602	58.473747
552.786316	970.244934	21977.037109	13277.598633	58.587494
553.131897	967.644348	21824.121094	13145.340820	58.388081
553.477417	955.458679	21590.437500	12962.926758	58.189873
553.822815	957.687805	21311.283203	12736.750000	57.872147
554.168213	957.910645	21010.357422	12507.004883	57.594437
554.513672	963.186096	20655.859375	12292.122070	57.528683
554.859009	958.430847	20289.619141	12103.616211	57.653912
555.204285	966.975586	19919.000000	11944.905273	57.924843
555.549500	962.294617	19583.820313	11838.355469	58.405853
555.894714	966.529785	19295.154297	11755.210938	58.862473
556.239990	965.712402	19065.335938	11687.520508	59.237743
556.585022	985.774170	18843.095703	11632.758789	59.622513
556.930115	988.523438	18612.681641	11554.445313	59.951355
557.275146	983.842468	18407.904297	11487.276367	60.281197
557.620178	964.820984	18257.960938	11424.637695	60.485348
557.965149	963.483398	18166.794922	11374.781250	60.519146
558.310059	962.740417	18053.111328	11328.711914	60.653870
558.654968	966.752747	17898.634766	11283.461914	60.930668
558.999756	962.963318	17784.431641	11288.589844	61.383621
559.344604	958.876648	17743.490234	11320.317383	61.731781
559.689331	954.195557	17766.525391	11349.741211	61.832867
560.033997	957.613464	17781.906250	11392.835938	62.024731
560.378723	957.910645	17793.125000	11453.168945	62.341099
560.723389	965.043762	17817.125000	11504.586914	62.541489
561.067932	960.139832	17837.705078	11520.414063	62.569897
561.412476	958.356506	17798.398438	11502.061523	62.610924
561.757019	962.071594	17798.400391	11469.368164	62.408482
562.101501	965.563782	17782.796875	11429.764648	62.223087
562.445862	971.359436	17754.560547	11368.984375	61.952572
562.790222	956.647522	17688.283203	11314.817383	61.907700
563.134644	964.672180	17643.552734	11303.747070	61.989021
563.478943	964.969421	17657.224609	11337.183594	62.137878
563.823181	968.015869	17694.525391	11395.957031	62.343796
564.167358	963.186218	17778.113281	11491.065430	62.610313
564.511536	961.477234	17952.427734	11696.957031	63.183510
564.855774	958.133606	18145.244141	11959.023438	64.006622
565.199768	957.390625	18369.787109	12265.819336	64.944702
565.543823	951.743591	18576.794922	12471.489258	65.360077
565.887817	955.087158	18831.060547	12660.737305	65.482590
566.231812	959.545227	18995.863281	12673.666992	64.947411
566.575745	960.957092	19105.533203	12596.614258	64.127464
566.919617	961.179993	19092.380859	12415.463867	63.174435
567.263428	943.644592	18990.068359	12227.551758	62.527111
567.607239	938.591980	18865.982422	12049.450195	61.976997
567.950989	941.415527	18701.771484	11902.924805	61.718979
568.294678	948.697083	18602.353516	11789.166992	61.406372
568.638367	951.817871	18446.095703	11782.925781	61.912289
568.981995	944.833435	18302.839844	11764.499023	62.332424
569.325623	954.269836	18217.837891	11805.067383	62.853737
569.669128	970.244934	18208.548828	11811.382813	62.889812
570.012573	974.851746	18245.701172	11890.367188	63.201962
570.356140	978.269714	18381.228516	12079.541992	63.789570
570.699524	960.734192	18492.312500	12286.772461	64.603645
571.042908	955.532959	18726.142578	12555.747070	65.277527
571.386230	937.254578	18875.564453	12717.356445	65.670074
571.729492	961.031433	19082.720703	12861.653320	65.670601
572.072815	964.969421	19185.482422	12870.049805	65.338882
572.416016	978.641113	19228.798828	12785.195313	64.692886
572.759094	961.848694	19203.017578	12627.450195	63.952053
573.102234	959.693909	19113.779297	12444.961914	63.265469
573.445374	953.452454	19030.708984	12333.136719	62.950287
573.788391	948.548523	18910.710938	12240.778320	62.866760
574.131409	945.056335	18843.466797	12169.968750	62.714577
574.474365	938.146179	18780.162109	12060.000000	62.335186
574.817261	946.170715	18742.935547	11986.812500	62.037350
575.160156	954.715576	18672.423828	11900.843750	61.780720
575.502930	953.675354	18604.806641	11776.312500	61.314125
575.845703	945.427795	18544.175781	11589.218750	60.480389
576.188477	960.957031	18482.429688	11399.003906	59.572887
576.531250	967.570007	18309.455078	11181.817383	58.899292
576.873901	973.365723	18117.751953	10951.850586	58.202633
577.216431	946.170898	17918.771484	10706.797852	57.508137
577.559082	935.248352	17736.355469	10464.572266	56.718430
577.901611	925.811829	17516.642578	10227.175781	56.063286
578.244080	932.350586	17267.580078	10021.430664	55.640968
578.586487	947.656921	17082.716797	9924.466797	55.635429
578.928955	1058.962402	16975.275391	9950.545898	55.864597
579.271301	1067.432983	16760.763672	9854.844727	55.994564
579.613647	1060.448364	16448.617188	9699.700195	56.142170
579.955872	958.133606	16115.370117	9476.271484	56.198490
580.298157	954.344177	15878.194336	9392.754883	56.543121
580.640320	964.152100	15726.914063	9337.772461	56.721230
580.982483	962.740295	15528.301758	9306.564453	57.284603
581.324524	967.049988	15403.176758	9272.756836	57.534180
581.666626	962.888977	15302.644531	9249.872070	57.790268
582.008728	958.133606	15216.157227	9198.528320	57.794788
582.350647	944.016113	15121.198242	9160.856445	57.958202
582.692566	961.179993	15029.210938	9111.222656	57.933071
583.034424	963.334778	14948.816406	9075.928711	58.007256
583.376343	963.186096	14885.213867	9013.068359	57.821194
583.718201	944.016052	14855.120117	8972.499023	57.712765
584.059937	935.322571	14815.368164	8910.456055	57.457542
584.401611	935.842773	14793.300781	8882.221680	57.343697
584.743347	941.043945	14723.456055	8861.936523	57.471020
585.085022	939.112061	14684.594727	8873.825195	57.725967
585.426514	949.291504	14649.152344	8858.444336	57.731628
585.768127	938.220459	14686.824219	8863.719727	57.645847
586.109619	949.737366	14760.309570	8855.027344	57.240856
586.451172	945.427795	14795.825195	8884.971680	57.323582
586.792542	947.211121	14856.307617	8893.441406	57.129738
587.133850	945.056335	14891.898438	8899.682617	57.035324
587.475220	942.381348	14947.551758	8927.545898	57.015835
587.816589	946.319397	14925.856445	8994.938477	57.574287
588.157776	952.783752	14924.371094	9086.777344	58.218109
588.498962	951.520691	14897.398438	9172.448242	58.948799
588.840210	944.239014	14843.975586	9219.779297	59.537388
589.181335	951.520691	14829.114258	9282.713867	60.033413
589.522400	953.452576	14765.511719	9287.393555	60.338150
589.863403	966.083984	14727.320313	9275.430664	60.382267
590.204407	968.907471	14626.862305	9192.881836	60.213806
590.545410	965.712402	14626.268555	9150.231445	59.913509
590.886353	967.644348	14605.612305	9071.396484	59.420525
591.227112	949.811707	14583.543945	8996.721680	59.022064
591.567932	946.690918	14548.250000	8909.936523	58.546566
591.908752	941.638428	14528.635742	8860.897461	58.285572
592.249512	945.204895	14581.538086	8871.967773	58.129723
592.590149	948.102722	14600.187500	8854.506836	57.913528
592.930786	953.749756	14633.028320	8903.843750	58.117786
593.271423	954.567078	14622.774414	8906.741211	58.180084
593.612000	957.762024	14596.101563	8994.715820	58.929119
593.952576	946.393738	14647.073242	9070.207031	59.294968
594.292969	931.756042	14668.471680	9207.295898	60.243950
594.633484	916.375427	14728.210938	9364.817383	61.168133
594.973877	915.037903	14760.309570	9550.872070	62.373886
595.314209	940.598145	14870.946289	9764.789063	63.345093
595.654480	958.802246	15055.588867	9960.577148	63.856930
595.994812	959.322449	15249.370117	10166.618164	64.431526
596.335022	943.495911	15441.815430	10301.032227	64.542213
596.675171	946.468079	15561.515625	10338.852539	64.265167
597.015320	942.530029	15602.308594	10278.370117	63.683365
597.355408	949.068665	15548.809570	10124.637695	62.847481
597.695496	934.133789	15451.844727	9888.355469	61.677917
598.035461	943.793152	15270.100586	9559.491211	60.139000
598.375366	938.146179	15046.375000	9238.503906	58.833450
598.715271	942.381409	14787.208008	8968.858398	57.974560
599.055176	949.960266	14528.114258	8743.944336	57.400909
599.395081	944.239014	14259.659180	8568.217773	57.256763
599.734802	942.604309	14013.866211	8467.760742	57.570236
600.074524	932.053406	13775.948242	8404.306641	58.177475
600.414246	933.539368	13573.843750	8358.312500	58.738876
600.753906	946.765320	13398.191406	8356.530273	59.509369
601.093506	939.855164	13262.218750	8407.055664	60.598770
601.433044	949.365906	13178.403320	8544.069336	62.103855
601.772583	940.969666	13131.890625	8689.480469	63.559685
602.112122	963.706299	13226.106445	8902.208008	64.738564
602.451538	962.071594	13383.628906	9113.823242	65.625839
602.790894	964.672302	13608.096680	9349.288086	66.316017
603.130310	948.399963	13846.980469	9595.006836	67.035339
603.469604	945.204895	14100.872070	9847.934570	67.672203
603.808838	938.740540	14359.149414	10042.533203	67.835434
604.148010	932.499084	14612.299805	10166.469727	67.500771
604.487305	939.855042	14829.932617	10211.422852	66.749573
604.826416	947.805481	14955.949219	10187.942383	65.962608
605.165527	953.972656	14945.620117	10046.544922	64.985718
605.504456	942.975891	14861.956055	9791.686523	63.572983
605.843445	935.248352	14705.624023	9472.780273	61.999268
606.182434	931.013184	14549.737305	9160.707031	60.429253
606.521423	936.065735	14318.952148	8921.600586	59.669746
606.860229	938.146179	14085.417969	8727.077148	59.243710
607.199036	943.644531	13865.110352	8590.286133	59.177818
607.537903	938.591980	13769.186523	8541.766602	59.258163
607.876648	952.486572	13807.674805	8588.874023	59.403156
608.215271	956.944824	13982.805664	8714.297852	59.553474
608.553955	954.121277	14314.269531	8849.231445	59.094482
608.892578	957.910706	14861.360352	9004.969727	57.878151
609.231140	953.378235	15708.635742	9080.460938	55.079231
609.569641	956.721863	16787.435547	9072.139648	51.263752
609.908081	940.077942	18065.740234	8961.206055	46.836891
610.246521	945.353516	19368.863281	8818.023438	42.731651
610.584961	948.251282	20556.146484	8604.700195	39.047787
610.923340	945.056335	21424.744141	8407.873047	36.440090
611.261597	942.158508	21820.552734	8141.349609	34.481537
611.599854	947.434021	21872.119141	7960.273926	33.514671
611.938110	952.783691	21638.587891	7748.064941	32.849972
612.276245	957.613464	21229.402344	7628.882813	32.909130
612.614319	944.387512	20518.919922	7487.484375	33.426579
612.952393	940.598145	19631.746094	7373.578125	34.417255
613.290466	931.013123	18686.689453	7283.672363	35.778187
613.628479	939.483582	17781.234375	7186.781738	37.094116
613.966370	945.873596	16905.875000	7151.414063	38.881832
614.304260	937.105957	16036.754883	7103.117188	40.835461
614.642151	929.081238	15205.829102	7076.813965	43.061157
614.979980	920.387756	14491.854492	7042.932129	45.113358
615.317749	924.771667	13866.077148	7016.777344	47.074120
615.655396	933.242188	13398.191406	7026.511719	48.883228
615.993164	934.579590	12947.323242	7017.148926	50.634304
616.330811	951.446289	12592.824219	7042.412109	52.321690
616.668396	944.759094	12242.041992	7050.882813	54.049488
617.005859	960.362610	11984.583008	7082.609375	55.534508
617.343445	957.985046	11755.582031	7086.473145	56.757893
617.680908	965.117981	11555.708008	7069.235840	57.637184
618.018311	969.724792	11413.343750	7060.616699	58.321659
618.355652	971.136536	11263.325195	7038.028809	58.946571
618.692993	974.554504	11147.710938	7021.979004	59.444916
619.030273	957.836426	11009.136719	6982.375000	59.937901
619.367554	943.198730	10911.725586	6931.106934	60.068130
619.704712	933.465149	10851.690430	6916.765625	60.326317
620.041870	939.557922	10811.789063	6900.716309	60.383087
620.379028	928.635315	10749.002930	6897.818359	60.783707
620.716064	927.446533	10709.473633	6871.589844	60.765968
621.053040	922.096680	10652.929688	6857.546875	60.996323
621.389954	935.842712	10648.397461	6856.580566	60.959633
621.726929	935.545593	10603.667969	6849.968262	61.174473
622.063843	932.276184	10590.070313	6850.116699	61.275280
622.400635	927.372253	10560.125977	6850.041504	61.484695
622.737427	930.195801	10581.673828	6868.320313	61.525543
623.074219	939.037781	10596.682617	6860.519043	61.313931
623.410889	949.365906	10627.666992	6875.974121	61.236042
623.747559	953.601074	10668.012695	6888.457031	61.093311
624.084167	954.418396	10698.997070	6943.886719	61.464619
624.420715	951.520569	10775.157227	7019.081543	61.764915
624.757324	958.950867	10872.716797	7107.055176	62.015835
625.093750	962.888916	10984.616211	7199.859375	62.234486
625.430176	963.260498	11092.652344	7285.901855	62.418770
625.766602	965.489563	11184.416992	7387.027832	62.839645
626.102905	954.121277	11331.164063	7483.472656	62.921120
626.439209	955.978821	11450.420898	7566.765625	62.993214
626.775452	941.861328	11548.648438	7634.529785	63.097980
627.111694	934.356750	11593.304688	7633.638672	62.851246
627.447876	925.811829	11600.809570	7575.236816	62.289703
627.783997	930.641541	11553.182617	7469.430176	61.555786
628.120056	932.127625	11478.656250	7376.923340	61.108223
628.456055	940.969666	11371.139648	7270.595215	60.685738
628.792053	933.019226	11291.859375	7186.856934	60.371990
629.128052	932.424805	11230.113281	7073.395996	59.634464
629.463928	931.979004	11191.476563	7003.179688	59.176392
629.799744	933.465088	11142.510742	6914.017090	58.580906
630.135559	931.458984	11084.480469	6846.772949	58.261612
630.471375	923.880066	11030.758789	6757.906250	57.723324
630.807068	940.078064	10951.625977	6691.851563	57.451389
631.142700	948.177002	10862.909180	6670.898438	57.719376
631.478333	952.783875	10709.102539	6620.744141	58.095280
631.813965	938.963562	10560.200195	6582.181152	58.653770
632.149475	938.814880	10366.122070	6500.447754	58.994923
632.484924	940.969666	10228.809570	6488.039063	59.723999
632.820435	938.963440	10065.493164	6490.788574	60.831726
633.155884	941.935547	9923.351563	6552.459473	62.468143
633.491150	961.254333	9832.254883	6615.245605	63.735661
633.826477	967.570129	9732.319336	6623.046875	64.525253
634.161804	966.975586	9655.787109	6607.814941	64.920723
634.497009	945.873596	9515.652344	6545.252441	65.338669
634.832153	940.449524	9384.879883	6482.169434	65.625732
635.167297	926.183411	9245.264648	6386.244629	65.632980
635.502380	918.530273	9121.030273	6310.009766	65.729713
635.837463	928.783997	9033.055664	6255.322754	65.725075
636.172424	939.409241	8937.725586	6216.982910	65.983559
636.507324	951.074890	8858.295898	6173.144531	66.041786
636.842224	945.799316	8775.967773	6129.380371	66.200119
637.177124	946.616699	8675.362305	6081.603516	66.440109
637.511963	932.722107	8594.000977	6045.863770	66.740051
637.846741	922.394043	8501.940430	5979.585938	66.721565
638.181396	917.564270	8423.104492	5918.657715	66.632027
638.516113	927.966614	8335.500977	5864.490723	66.641930
638.850769	927.075012	8253.026367	5838.708496	67.044312
639.185303	930.121399	8204.432617	5804.974609	67.014633
639.519836	925.886230	8098.625000	5763.587891	67.445671
639.854370	925.291748	8025.660156	5719.229004	67.516747
640.188843	929.824219	7967.109375	5688.467285	67.620438
640.523254	933.019226	7954.031738	5672.269531	67.500954
640.857605	945.056335	7907.963379	5645.892090	67.512543
641.191895	930.567200	7827.791504	5586.747559	67.508034
641.526184	922.839783	7743.829590	5533.621094	67.596954
641.860413	916.821289	7695.234863	5503.082031	67.659798
642.194580	924.771667	7660.685059	5484.209473	67.688484
642.528748	919.570496	7625.763184	5463.107422	67.751366
642.862793	931.681824	7598.642090	5454.636719	67.841339
643.196838	929.972900	7554.208984	5445.126465	68.161118
643.530823	939.037781	7524.859375	5434.352051	68.257454
643.864746	929.155518	7489.343262	5391.925781	68.028091
644.198669	931.904724	7484.810059	5393.708984	68.088943
644.532532	937.848938	7472.921875	5399.133301	68.266785
644.866333	937.180176	7453.825684	5418.897461	68.773376
645.200073	943.495911	7416.303223	5398.018066	68.819016
645.533813	932.722107	7402.705566	5383.752441	68.795082
645.867554	923.880066	7409.541504	5382.711914	68.749069
646.201172	923.805725	7449.738770	5411.615723	68.768867
646.534729	930.790100	7452.116699	5433.015137	69.038483
646.868225	935.471191	7450.259277	5439.479004	69.135139
647.201782	923.285645	7416.748535	5430.340332	69.409111
647.535217	917.118469	7428.562988	5419.491699	69.145538
647.868591	923.954346	7437.925781	5436.507324	69.274979
648.201965	933.167786	7439.113770	5431.231934	69.137741
648.535278	933.316406	7444.463379	5410.055664	68.755005
648.868591	921.502258	7448.921875	5376.322266	68.247795
649.201782	921.205078	7474.779785	5348.458496	67.554787
649.534912	922.616882	7496.550781	5347.641113	67.311661
649.868103	918.232910	7482.952637	5334.266602	67.269188
650.201172	919.867676	7503.607910	5366.439941	67.538696
650.534180	929.304138	7498.259277	5396.383301	68.002884
650.867188	942.752930	7525.304688	5425.659180	68.102867
651.200134	937.254456	7520.178223	5423.058105	68.143028
651.533020	926.406250	7493.355469	5393.337402	68.021408
651.865845	941.786926	7475.671387	5357.598145	67.583244
652.198608	958.133545	7443.052246	5351.728027	67.750961
652.531433	957.687805	7401.219238	5340.953613	68.025833
652.864136	942.009949	7329.740723	5313.164551	68.430481
653.196777	2715.392822	9191.618164	6394.714844	56.812752
653.529358	2799.652344	9184.485352	6375.395996	56.003716
653.861938	2795.491211	9131.359375	6342.628418	55.985023
654.194519	1000.411804	7151.785645	5182.391113	67.984474
654.526978	927.372314	7081.495605	5147.989746	68.581940
654.859375	922.171143	7023.984863	5137.141602	69.077347
655.191833	934.430969	6995.378418	5122.801270	69.104218
655.524170	920.759277	6938.239746	5097.314941	69.407051
655.856445	934.802490	6920.927246	5098.503906	69.555870
656.188660	984.436707	6961.421875	5171.617676	70.055069
656.520874	996.845215	6957.037598	5213.895996	70.753601
656.853088	990.826721	6998.572754	5260.335449	71.066734
657.185181	932.796387	6961.644531	5260.558105	71.784225
657.517212	924.697327	7048.207031	5355.368652	72.355095
657.849243	931.904785	7117.309082	5462.364746	73.244362
658.181274	943.793152	7242.063965	5602.871094	73.973923
658.513123	940.523743	7336.873535	5687.056152	74.206894
658.844971	936.660095	7454.644043	5798.212891	74.586754
659.176819	930.121399	7543.806641	5863.822266	74.598358
659.508667	930.047180	7615.880371	5912.861816	74.527954
659.840393	930.270020	7656.970215	5890.720215	73.742699
660.172058	932.276184	7670.789551	5828.305176	72.657402
660.503662	941.638367	7651.396973	5706.226563	71.009834
660.835266	942.455750	7607.781250	5595.217285	69.805466
661.166931	938.591980	7500.933594	5462.884766	68.943268
661.498413	935.025452	7393.937500	5384.718262	68.892296
661.829773	938.740540	7264.725098	5290.428223	68.790680
662.161194	951.817871	7169.915527	5193.537109	68.215706
662.492615	944.090332	7048.281250	5079.185059	67.741898
662.823975	948.622803	6941.285156	4985.340332	67.361008
663.155212	933.687988	6811.775879	4933.105957	68.039436
663.486450	934.505310	6694.525879	4873.738770	68.389229
663.817627	931.979004	6578.763184	4818.085938	68.819824
664.148743	936.288574	6482.392090	4751.361816	68.788353
664.479858	939.706543	6409.798340	4725.355957	69.206322
664.810913	932.573425	6342.628906	4700.984375	69.655678
665.141907	930.418640	6280.585938	4703.808105	70.528435
665.472778	932.722107	6243.509277	4684.191895	70.638680
665.803711	957.985046	6224.636719	4686.941406	70.803169
666.134583	957.613464	6197.070313	4663.536133	70.731041
666.465454	973.365540	6154.346191	4668.885742	71.328590
666.796143	943.495911	6109.986816	4646.372559	71.671021
667.126831	953.972656	6112.438965	4664.724609	71.935181
667.457458	944.387634	6104.935059	4672.080566	72.234444
667.788147	948.474304	6101.441895	4686.124512	72.533936
668.118774	948.771423	6089.479980	4692.439941	72.823982
668.449219	950.183105	6094.234863	4695.337402	72.805534
668.779663	955.978821	6094.532715	4703.584961	72.931145
669.110107	935.248352	6083.164063	4676.241699	72.670059
669.440552	934.356689	6072.314941	4669.183105	72.690872
669.770874	919.570496	6058.123535	4616.576172	71.946434
670.101135	926.926453	6030.408691	4610.261230	72.172966
670.431396	917.044250	5989.244629	4589.233398	72.398346
670.761597	915.409607	5926.682129	4574.224121	73.011688
671.091797	913.031921	5902.682129	4529.493652	72.479263
671.421875	906.790466	5866.274902	4492.937012	72.308861
671.751892	914.220703	5856.466309	4487.513184	72.300987
672.081909	923.434265	5809.209473	4494.200195	73.084938
672.411865	931.161682	5782.535156	4467.302246	72.889473
672.741821	920.536438	5738.473145	4444.565918	73.143959
673.071716	911.768555	5729.037109	4417.816895	72.780838
673.401550	908.276367	5700.133301	4396.120605	72.786903
673.731262	912.511719	5682.300781	4366.102051	72.405518
674.060974	909.985413	5623.453125	4318.920410	72.323296
674.390625	920.387756	5607.552246	4309.558105	72.307480
674.720276	923.211243	5567.726074	4315.427734	73.037048
675.049927	933.985168	5552.345215	4328.059082	73.490898
675.379395	928.412415	5531.169434	4322.783691	73.746483
675.708923	935.768494	5501.894043	4294.623047	73.560272
676.038330	931.087402	5486.587402	4263.712891	73.156082
676.367737	930.047119	5453.299805	4226.858887	72.885857
676.697083	944.684875	5459.615234	4244.542969	73.087692
677.026428	946.245178	5445.795410	4253.682129	73.505943
677.355652	939.929504	5452.333984	4291.353516	74.271362
677.684875	934.653992	5477.671387	4322.709473	74.577202
678.013977	924.920227	5487.033203	4363.353027	75.369308
678.343079	933.687927	5512.444824	4391.365234	75.515633
678.672180	921.725281	5519.131348	4409.495605	75.863869
679.001221	923.805664	5576.865234	4457.197266	75.936951
679.330139	921.056458	5634.523926	4525.258789	76.466049
679.659058	914.220703	5695.080566	4568.205566	76.429451
679.987976	920.164856	5747.538574	4620.366211	76.650406
680.316772	921.502380	5779.710938	4646.074707	76.665550
680.645630	921.056458	5805.643066	4670.817383	76.767212
680.974304	909.688171	5817.011719	4666.805176	76.561424
681.302979	902.257996	5815.822754	4650.532715	76.284218
681.631653	907.013367	5804.751953	4606.174316	75.527931
681.960266	925.514709	5807.427246	4548.960938	74.221863
682.288757	936.883057	5788.404785	4475.252441	72.933189
682.617249	933.390808	5762.027344	4443.080078	72.684891
682.945679	930.790222	5693.520996	4406.226074	72.971489
683.274109	933.242188	5627.836426	4370.188965	73.210732
683.602478	942.604309	5533.100098	4291.873535	72.960953
683.930725	936.511536	5437.918457	4223.292480	73.016754
684.259033	925.068848	5349.572754	4150.847168	72.907120
684.587280	917.935852	5289.164551	4116.593750	73.175262
684.915344	924.325867	5241.091309	4089.324463	73.318748
685.243469	934.430969	5213.524902	4086.500977	73.662094
685.571533	940.078064	5184.249512	4075.578369	73.877792
685.899536	939.334961	5172.286621	4069.931641	73.957771
686.227539	919.867676	5123.023926	4047.269531	74.406036
686.555420	913.031921	5112.026855	4051.875977	74.752266
686.883301	911.397156	5106.454590	4055.219482	74.941101
687.211121	920.387878	5151.036133	4079.367920	74.668930
687.538940	928.783997	5186.701660	4095.045898	74.361748
687.866638	922.245422	5204.979980	4090.439453	73.975967
688.194336	917.712891	5183.729004	4084.643311	74.236252
688.521973	909.836853	5149.327637	4051.727295	74.110092
688.849609	913.700500	5107.643066	4021.040283	74.091141
689.177063	919.273254	5093.971191	3983.591797	73.402168
689.504578	924.028625	5036.684082	3924.966797	72.968384
689.832031	920.462097	4960.672363	3877.116211	73.180702
690.159485	921.353699	4872.549316	3816.781982	73.279800
690.486816	918.158691	4817.714355	3786.837891	73.564255
690.814087	942.827332	4792.451172	3776.955811	73.620918
691.141296	951.297852	4733.528809	3755.408203	74.139053
691.468506	948.548523	4682.854004	3732.225586	74.543365
691.795715	921.873779	4618.285645	3683.334717	74.706528
692.122803	911.025635	4576.304688	3661.340820	75.036995
692.449829	905.898743	4540.787598	3636.375000	75.118561
692.776855	907.013367	4500.738281	3601.304443	74.972099
693.103821	900.103210	4477.185059	3560.437744	74.371643
693.430664	901.812073	4440.924805	3531.608643	74.306664
693.757568	901.886414	4422.051758	3519.497070	74.360443
694.084351	907.087585	4401.767578	3518.679688	74.730507
694.411133	918.530273	4380.219238	3516.450439	75.047768
694.737854	922.839844	4364.393066	3514.889893	75.316284
695.064575	919.496277	4353.693359	3515.633545	75.596626
695.391174	914.740784	4346.263184	3537.329834	76.426399
695.717773	909.242432	4340.393066	3567.125244	77.463310
696.044250	914.146423	4341.953613	3611.260986	78.683380
696.370789	910.282654	4366.102051	3638.530029	78.946465
696.697205	917.787170	4419.302734	3689.278564	79.151192
697.023621	916.524109	4470.052246	3774.801514	80.434914
697.349915	935.619873	4550.298340	3899.704102	82.001328
697.676208	925.291809	4630.545410	4034.934814	83.925240
698.002380	927.075012	4766.965332	4141.782715	83.718735
698.328674	906.418762	4903.459473	4245.583496	83.540924
698.654724	910.876953	5045.005859	4333.631348	82.792641
698.980896	911.025635	5151.185059	4426.881348	82.918015
699.306946	929.155518	5207.357422	4455.785156	82.432518
699.632935	935.248291	5210.478027	4406.076660	81.184608
699.958862	939.112061	5177.339355	4286.820801	78.988411
700.284729	920.610657	5096.200684	4129.373535	76.845741
700.610596	919.644775	5018.479980	3999.715576	75.145027
700.936340	918.678772	4886.815430	3886.923828	74.801987
701.262146	919.421875	4754.779785	3768.930908	74.295776
701.587830	917.192810	4618.954590	3675.086670	74.502197
701.913513	911.917297	4491.376465	3593.279541	74.909706
702.239075	914.146301	4385.197754	3531.459717	75.404053
702.564697	914.294922	4277.013184	3456.413818	75.597145
702.890137	913.626221	4187.850098	3385.009033	75.479958
703.215698	910.579834	4122.018066	3351.498291	76.007019
703.541016	903.000977	4043.702393	3292.353516	76.077034
703.866455	906.864685	3992.062256	3239.969971	75.622559
704.191711	920.759277	3955.133789	3214.632813	75.596260
704.517029	922.468262	3928.905029	3206.087891	75.957680
704.842163	927.298035	3919.988525	3223.697510	76.733612
705.167419	922.542542	3908.620361	3199.995117	76.269028
705.492493	930.641541	3916.125000	3207.574219	76.266800
705.817566	923.359863	3922.143799	3179.784912	75.244667
706.142578	920.164978	3931.431396	3162.175049	74.454056
706.467590	923.582825	3958.403320	3145.011475	73.198029
706.792480	932.424805	3971.108643	3136.837891	72.544998
707.117371	935.545593	3996.000000	3146.943115	72.257164
707.442200	947.136719	4030.625244	3162.175049	71.835464
707.766907	940.821106	4055.071045	3180.082031	71.903702
708.091675	946.245178	4075.578369	3173.989258	71.189102
708.416321	930.047180	4063.392822	3168.713867	71.446526
708.741028	936.437195	4077.807617	3157.048096	70.689240
709.065552	928.932617	4084.271729	3165.444580	70.880241
709.390137	929.229919	4072.903564	3168.267822	71.223610
709.714600	932.053284	4057.820068	3202.744873	72.644310
710.039063	938.146179	4042.587891	3244.948486	74.306511
710.363403	950.777588	4075.058350	3289.530029	74.857307
710.687744	943.718933	4107.900391	3319.771240	75.092163
711.012085	937.477356	4140.816406	3330.990967	74.719337
711.336304	933.836609	4171.354980	3340.798828	74.345901
711.660461	930.864441	4175.738281	3332.179932	74.003357
711.984619	933.316467	4183.391602	3338.272705	73.996941
712.308716	916.598450	4165.410645	3307.436768	73.591156
712.632751	914.369324	4150.772949	3277.641357	73.021545
712.956726	921.056458	4121.720703	3255.127686	72.924591
713.280701	930.195801	4060.420898	3261.963623	74.492020
713.604553	949.068665	4008.854492	3263.821289	75.650803
713.928467	947.879883	3938.341064	3244.799805	76.808220
714.252258	947.136780	3871.320313	3200.143799	77.047386
714.575989	940.003723	3812.621094	3172.948975	77.732079
714.899719	931.904785	3766.999268	3153.407471	78.357269
715.223267	929.675720	3746.491455	3149.915283	78.820900
715.546936	931.533203	3728.584717	3154.001953	79.457558
715.870422	924.400146	3716.102295	3145.308594	79.553917
716.193970	921.502380	3687.867188	3135.723389	80.040817
716.517395	917.267090	3659.260498	3117.816406	80.253632
716.840820	918.678772	3604.127686	3087.501221	80.762009
717.164124	922.616882	3579.012939	3076.207031	81.071877
717.487488	922.616882	3545.948486	3041.285156	80.762505
717.810730	923.359863	3528.190186	3002.052979	79.801476
718.133972	919.198914	3478.110352	2928.270508	78.512741
718.457092	912.214539	3428.550537	2877.521484	78.101929
718.780212	908.945129	3380.847900	2851.961182	78.604065
719.103210	907.756348	3332.105469	2829.893311	79.284660
719.426208	905.155762	3281.133789	2800.246338	79.760445
719.749207	928.412598	3250.372314	2785.385986	79.974403
720.072083	934.356689	3219.982666	2767.330322	80.195694
720.394958	937.105957	3195.165771	2754.253174	80.473831
720.717773	915.260925	3144.194092	2708.705811	80.462029
721.040527	907.682068	3127.327148	2694.811035	80.514175
721.363281	909.242371	3106.076416	2674.972168	80.376114
721.685913	924.623047	3108.751221	2679.653320	80.353813
722.008545	938.517639	3069.891357	2665.981445	81.049316
722.331055	935.248352	3041.507568	2656.322266	81.712349
722.653503	917.861511	3011.860596	2628.978760	81.715279
722.976013	916.078308	3017.730713	2619.988281	81.074776
723.298401	925.811951	3025.012451	2613.003662	80.373062
723.620789	926.257751	3004.430420	2611.220459	81.079048
723.943115	918.381653	2990.461670	2603.344482	81.317459
724.265381	905.898743	2977.904297	2598.069092	81.668236
724.587585	907.533508	2990.981689	2613.598389	81.886604
724.909790	905.007141	2991.279053	2620.879883	82.245880
725.231873	913.403381	2981.619385	2634.700195	83.226166
725.553894	937.180237	2979.687500	2646.142822	83.669846
725.875916	1515.403931	3505.379639	3047.971924	77.014404
726.197937	1547.651367	3538.592773	3058.374268	75.879829
726.519775	1529.967407	3541.713623	3056.739502	75.892876
726.841675	949.514465	3028.133545	2661.969482	82.384262
727.163513	921.130859	3007.031250	2659.963135	83.361229
727.485291	916.969910	3018.250977	2679.430420	83.875526
727.806946	932.796387	3060.603516	2722.526123	84.111465
728.128662	930.418701	3083.265625	2746.451416	84.354942
728.450256	933.242188	3106.968506	2741.250244	83.175514
728.771790	931.087402	3089.507080	2735.157471	83.582916
729.093323	917.787170	3091.216064	2729.213135	83.344154
729.414795	924.028564	3089.061279	2724.680908	83.169754
729.736145	911.025696	3089.507080	2709.968994	82.577858
730.057495	914.369324	3075.538330	2703.132813	82.768326
730.378845	908.945251	3069.965576	2711.900635	83.430748
730.700134	911.545837	3076.132813	2726.909912	83.866531
731.021301	915.558167	3097.606201	2738.129639	83.525726
731.342468	918.307373	3111.575195	2753.956055	83.694687
731.663574	925.217529	3121.011475	2763.912842	83.737152
731.984680	926.183411	3144.862549	2775.949463	83.372398
732.305664	916.152527	3150.361084	2766.587646	82.822845
732.626648	910.877014	3156.305420	2756.705078	82.203827
732.947571	904.264160	3142.261963	2759.528564	82.898399
733.268433	906.790466	3131.488281	2765.250000	83.537613
733.589233	901.514954	3106.893799	2747.566162	83.706764
733.909973	917.192871	3103.847656	2731.591064	82.975975
734.230713	935.768494	3097.680420	2719.628174	82.513062
734.551331	936.362976	3063.798096	2695.702637	82.697685
734.871948	926.406311	3007.179688	2641.015869	82.402512
735.192505	918.010071	2955.985107	2596.805664	82.375671
735.513062	920.164856	2928.864502	2564.409912	81.856194
735.833435	929.675598	2896.840088	2543.828125	82.054779
736.153931	921.948181	2865.261475	2506.453857	81.536293
736.474304	930.492981	2838.661133	2492.930664	81.881554
736.794617	930.047119	2833.385742	2495.679688	82.257172
737.114807	945.427917	2836.729248	2523.171631	83.421066
737.434998	940.375244	2831.230713	2526.663818	83.892639
737.755188	937.477478	2824.097900	2534.391357	84.644150
738.075256	926.480652	2800.766846	2512.769531	84.634293
738.395325	917.935852	2802.327393	2521.908691	85.118874
738.715271	928.338196	2819.119385	2539.295654	85.200630
739.035278	925.068848	2830.264893	2562.552246	85.948288
739.355164	926.332031	2826.846924	2569.908203	86.480576
739.675049	915.186707	2813.546875	2557.202393	86.496529
739.994873	920.387878	2824.692383	2549.103271	85.528099
740.314636	927.000732	2826.326904	2523.171875	84.038811
740.634277	925.514648	2820.531250	2499.692139	83.069328
740.953979	915.558105	2782.710938	2457.414063	82.577919
741.273499	916.969910	2756.259521	2434.825928	82.524033
741.593140	923.211243	2717.399170	2416.918945	83.252579
741.912598	922.393860	2693.993896	2391.878906	82.946770
742.232117	920.462097	2669.028320	2373.823486	83.117317
742.551453	906.938965	2650.229492	2344.547852	82.465248
742.870850	921.576660	2639.678467	2336.151611	82.333595
743.190063	922.319641	2613.152344	2318.616455	82.580421
743.509338	928.932617	2586.106201	2301.898193	82.849838
743.828552	921.502380	2559.951904	2289.341064	83.483727
744.147705	915.706726	2543.827881	2281.985107	83.917488
744.466797	922.542664	2525.995117	2270.393799	84.059311
744.785828	933.985168	2514.924316	2267.421875	84.344597
745.104858	944.090332	2516.558838	2255.236328	83.381386
745.423706	943.644531	2521.760254	2255.459229	83.125381
745.742615	942.307129	2517.376221	2248.697510	82.941780
746.061401	951.372009	2516.038818	2258.579834	83.545441
746.380249	944.981995	2492.038818	2246.171143	84.107391
746.698975	940.449524	2481.339355	2246.765625	84.776733
747.017639	928.783997	2463.878174	2214.146729	83.731850
747.336304	932.276184	2456.076416	2213.329346	84.069626
747.654907	938.443359	2451.766846	2222.097412	84.823509
747.973389	941.266846	2451.098145	2255.905029	87.071861
748.291931	940.226563	2449.463623	2260.586182	87.485237
748.610352	933.242188	2439.209717	2240.152588	86.782112
748.928711	934.430969	2433.265625	2225.589355	86.144150
749.247070	940.895325	2460.683350	2229.824463	84.809799
749.565308	934.208008	2465.661865	2234.357178	84.896400
749.883545	930.418640	2461.797607	2229.899170	84.856888
750.201782	923.657043	2443.444824	2221.651611	85.406303
750.519836	931.681824	2442.627441	2211.174805	84.681602
750.837952	933.910889	2435.420166	2203.001465	84.520996
751.155884	934.059509	2414.689697	2198.766113	85.416779
751.473877	925.366028	2399.829346	2200.623535	86.489609
751.791809	912.585999	2384.820068	2196.685547	87.221153
752.109619	909.465332	2383.111084	2178.778564	86.134216
752.427490	910.356934	2375.829346	2166.221680	85.696922
752.745300	929.155579	2388.906982	2168.896484	84.928223
753.062988	926.852112	2377.092773	2180.116211	86.417664
753.380615	929.304138	2359.408691	2174.394775	87.062912
753.698303	927.966614	2350.566406	2184.499756	88.326538
754.015808	926.034851	2360.968994	2181.899170	87.520691
754.333374	926.703552	2362.232178	2192.896240	88.203934
754.650757	924.028625	2345.662598	2180.562012	88.386559
754.968262	924.102966	2345.513916	2183.831299	88.625198
755.285583	932.722107	2362.752197	2180.561768	87.259682
755.602905	928.486816	2376.646729	2176.326660	86.167267
755.920105	928.338196	2360.003174	2170.531006	86.765610
756.237305	909.093811	2341.575928	2167.558838	87.852058
756.554443	909.539551	2317.427490	2163.843750	89.091194
756.871582	913.997742	2320.102295	2149.949219	87.898972
757.188599	922.171143	2316.015869	2137.689209	87.206131
757.505615	927.446594	2349.377686	2155.447510	86.361496
757.822510	937.254578	2370.777100	2195.496826	87.772758
758.139465	945.427795	2406.962402	2228.487305	87.788513
758.456238	942.009949	2408.002686	2239.855469	88.530144
758.773010	929.229797	2407.928467	2243.273682	88.864883
759.089783	927.446533	2408.151367	2265.489990	90.365303
759.406433	919.496155	2419.370850	2275.000732	90.374519
759.723145	920.907959	2426.206787	2272.697510	89.802071
760.039673	917.638672	2438.763916	2264.301514	88.530701
760.356201	926.926453	2435.940186	2260.957520	88.404167
760.672668	930.195740	2449.760498	2267.718994	88.020157
760.989136	925.143127	2442.033203	2267.718994	88.508446
761.305481	923.508484	2432.745361	2271.805664	89.336349
761.621826	927.892334	2432.522461	2282.802490	90.049385
761.938049	949.365906	2464.546875	2326.195313	90.868973
762.254333	943.644531	2507.048096	2364.906982	90.908226
762.570496	931.087402	2535.134521	2398.120361	91.458221
762.886597	906.270264	2574.292236	2449.612061	92.525269
763.202637	911.099915	2664.495850	2567.084717	94.444427
763.518677	919.644775	2808.197266	2737.683594	96.266258
763.834656	927.297852	2958.214111	2877.967041	96.048729
764.150574	918.678772	3083.637451	2960.072021	94.292480
764.466370	920.536377	3126.955811	2986.449219	93.631920
764.782288	918.232971	3118.930908	2934.214600	91.606468
765.097961	936.362854	3072.045898	2855.230713	89.847969
765.413696	925.291809	2993.953857	2714.872803	86.509102
765.729309	925.514709	2885.620361	2597.400146	85.295677
766.044861	924.920349	2777.064209	2476.509766	83.772621
766.360474	932.796387	2692.656250	2394.628174	83.065239
766.675903	930.567200	2605.201904	2327.904297	83.441307
766.991394	918.455872	2531.791016	2281.910889	84.511581
767.306763	919.867676	2467.296387	2254.938965	86.276756
767.622131	923.508545	2421.005615	2234.951416	87.575653
767.937378	918.604553	2368.993652	2210.208740	89.052254
768.252625	928.263855	2332.362305	2188.809326	89.776146
768.567810	920.610657	2295.879883	2157.676758	89.950829
768.882996	934.951172	2257.985352	2139.026611	91.008644
769.197998	925.366150	2225.812256	2112.277588	91.269562
769.513062	936.511536	2205.601807	2098.531494	91.563225
769.828064	929.452820	2190.592773	2076.389648	90.944450
770.142944	926.034851	2175.732178	2069.925293	91.533401
770.457825	925.514648	2161.837646	2053.132813	91.207405
770.772705	917.564270	2134.048584	2034.334106	91.803055
771.087402	918.753113	2126.023682	2008.699829	90.281898
771.402100	916.226868	2102.024170	2001.938110	91.559586
771.716736	924.474426	2090.804443	1994.285034	91.724510
772.031372	930.195801	2066.953125	1979.052856	92.267456
772.345947	926.629211	2061.231934	1958.545532	90.949562
772.660461	931.236023	2069.479492	1949.257446	89.437935
772.974854	929.304138	2057.219727	1944.725220	90.026344
773.289246	934.951111	2051.795410	1945.319702	90.466385
773.603638	933.985168	2033.591187	1938.037964	91.310234
773.917908	927.372314	2022.891602	1924.811890	91.047195
774.232178	922.616943	2002.978516	1910.694336	91.458031
774.546265	920.313477	1988.935181	1904.898926	92.136017
774.860474	925.440430	1978.978516	1898.508911	92.361969
775.174561	936.585876	1977.566895	1895.536743	92.119926
775.488586	937.848938	1978.755859	1893.381836	91.798103
775.802551	939.037842	1972.365845	1897.468384	92.751823
776.116516	932.276184	1953.344238	1892.713257	94.062004
776.430359	929.675598	1936.254517	1882.533691	94.663033
776.744202	940.003723	1942.570313	1882.310913	93.989487
777.057922	934.876892	1944.799316	1875.697876	93.157745
777.371704	933.985168	1944.130737	1876.589478	93.313713
777.685303	922.245422	1928.824219	1862.174805	93.378616
777.998962	922.839844	1924.737793	1861.060181	93.644302
778.312500	924.102966	1913.295044	1851.103638	93.712906
778.626038	923.062683	1898.954712	1844.565063	94.426674
778.939453	925.514648	1904.824585	1854.447388	94.855850
779.252869	939.260681	1923.920288	1869.382202	94.461227
779.566223	943.124329	1926.446655	1868.193359	94.075867
779.879578	936.362854	1924.440430	1850.955078	92.562798
780.192749	922.245422	1908.613892	1843.822144	93.431282
780.505920	911.917297	1908.836914	1836.986206	92.792725
780.819031	912.214539	1889.889648	1827.995483	93.669250
781.132141	957.019043	1933.282593	1862.397583	92.739151
781.445190	961.625793	1933.133911	1872.205688	93.728493
781.758118	972.176819	1943.462036	1878.447144	93.306305
782.071045	925.960510	1882.385132	1825.766479	94.080177
782.383911	922.096741	1867.598755	1805.704712	93.453842
782.696838	911.768738	1846.942749	1791.735718	94.096603
783.009583	916.078308	1843.896484	1783.191040	93.457184
783.322266	917.712891	1826.212280	1780.961914	95.019218
783.634888	915.186584	1819.822266	1775.463501	95.096504
783.947510	900.623230	1806.819336	1765.581421	95.449341
784.260132	897.131042	1801.320923	1764.764038	95.956947
784.572571	897.948303	1788.540894	1750.943726	95.778412
784.885010	910.505554	1774.794922	1743.736328	96.406456
785.197449	924.102844	1783.042358	1730.733276	93.910042
785.509766	935.917053	1787.351929	1734.968384	93.847618
785.822083	932.721985	1779.029907	1730.658813	94.284454
786.134277	931.013000	1760.974487	1734.448242	96.803917
786.446533	930.641602	1751.092163	1740.021118	98.650612
786.758606	947.954102	1759.414063	1752.058105	99.093491
787.070740	948.474182	1769.593628	1752.578125	97.927765
787.382690	936.882996	1770.262329	1747.079712	97.218239
787.694641	912.734558	1778.286987	1749.531860	96.677826
788.006653	901.663574	1793.964844	1762.832031	96.510956
788.318481	912.065918	1830.670410	1788.763672	95.438004
788.630310	912.363220	1859.128418	1815.438354	95.385330
788.942017	908.945251	1867.598999	1834.682617	96.566399
789.253784	909.019531	1876.663696	1851.177856	97.366196
789.565430	915.558105	1879.264526	1851.549438	97.124115
789.877014	922.914063	1879.561646	1844.416382	96.326202
790.188538	918.455872	1860.168579	1814.621094	95.163338
790.500061	917.935791	1827.252563	1785.568726	95.415916
790.811462	920.610657	1801.989624	1762.757690	95.548798
791.122925	929.081238	1791.215820	1754.510132	95.742462
791.434204	929.452637	1786.683228	1738.089233	94.331284
791.745483	928.783997	1776.429565	1727.538208	94.232101
792.056702	914.294983	1748.788940	1706.064819	94.880234
792.367920	916.152588	1731.030640	1704.355835	96.726524
792.678955	911.397156	1713.272095	1692.021484	97.349884
792.990112	917.341370	1705.173218	1691.055664	98.208054
793.301086	914.815125	1694.473633	1681.099121	98.284569
793.612122	927.818115	1704.281616	1681.173462	97.023926
793.922974	924.400208	1699.228882	1680.579102	97.593048
794.233826	923.434265	1707.773804	1675.823608	95.926483
794.544556	918.307312	1703.241211	1674.560547	96.346107
794.855286	921.279480	1698.783203	1676.269409	97.104347
795.166016	930.864502	1702.052368	1693.210327	98.853455
795.476624	924.548767	1694.993774	1700.937866	100.771515
795.787292	916.003906	1709.854126	1708.368164	99.812813
796.097778	904.189758	1718.176147	1706.584839	98.575981
796.408264	904.784241	1740.095337	1723.154297	97.971886
796.718689	913.031921	1764.689819	1732.367798	96.204811
797.029053	918.976135	1765.135376	1751.092163	98.340355
797.339355	921.428040	1764.095337	1740.169556	97.160706
797.649658	927.223633	1745.073853	1735.785767	98.864326
797.959839	920.016357	1736.306030	1712.008789	97.023453
798.270020	920.387878	1726.349487	1706.807617	97.575333
798.580078	925.737610	1732.739380	1709.408325	97.108925
798.890137	929.527039	1719.885132	1705.693237	98.204369
799.200195	929.898621	1711.265991	1687.563477	96.966537
799.510071	921.428040	1684.442749	1665.867188	97.565506
799.820007	918.753113	1676.343628	1653.755737	97.018456
800.129883	912.660339	1665.495483	1651.006470	98.075409
800.439575	907.310547	1669.359253	1642.238647	96.441093
800.749329	909.093750	1663.637817	1643.576172	97.341225
801.058960	907.904968	1653.607056	1639.043579	98.047012
801.368591	908.127869	1638.820801	1633.619629	99.288185
801.678162	912.065857	1635.848633	1626.635132	98.727036
801.987671	916.301086	1624.257446	1620.542358	99.475235
802.297119	920.982239	1616.232788	1617.198730	100.138931
802.606506	913.180481	1595.873901	1609.099731	101.937302
802.915894	910.654114	1595.650879	1602.041016	100.932869
803.225159	901.812073	1585.397095	1592.456055	101.032639
803.534424	905.230042	1597.137085	1583.390991	98.013306
803.843628	901.366272	1596.468140	1591.192871	99.241081
804.152771	914.146301	1607.464966	1604.344360	99.549904
804.461792	924.251465	1616.604126	1622.845703	100.901505
804.770874	929.898621	1621.508301	1623.068726	100.225624
805.079773	921.873840	1617.421509	1616.752808	99.903862
805.388733	914.666504	1606.127563	1615.192383	101.310966
805.697571	913.626221	1606.276367	1608.951172	100.386169
806.006470	914.517883	1624.331909	1616.381348	98.879906
806.315125	909.465332	1640.752563	1612.591919	96.149170
806.623901	903.075256	1648.554321	1621.508301	96.371994
806.932495	898.171326	1641.718384	1622.325562	97.391853
807.241150	904.932861	1634.288208	1625.966431	98.859024
807.549622	915.706787	1617.198853	1616.975952	99.968224
807.858154	921.799622	1607.019409	1605.384644	99.761421
808.166565	919.496277	1595.428101	1590.152466	99.219505
808.474915	915.855408	1599.960327	1590.375366	98.598907
808.783264	920.239197	1597.211304	1589.186523	98.814606
809.091492	920.313477	1577.818237	1586.437500	101.310905
809.399719	914.666504	1561.174438	1570.982422	101.517075
809.707825	904.487000	1557.162109	1560.951538	100.580597
810.015930	897.279602	1564.072266	1548.022949	97.593056
810.323975	908.425110	1572.319946	1555.007446	97.392281
810.632080	912.660339	1548.022949	1550.251953	100.350822
810.939880	911.694397	1530.636108	1547.428345	102.713058
811.247864	908.647949	1520.753906	1532.939453	101.990761
811.555664	903.149597	1517.410156	1527.664063	101.669312
811.863464	914.517883	1519.639282	1524.543335	100.810425
812.171143	907.013367	1500.320679	1514.289551	102.354408
812.478882	918.530273	1496.754028	1521.273926	104.240555
812.786438	927.595215	1501.435181	1533.608032	105.606590
813.094055	931.161682	1505.298828	1544.010620	106.742607
813.401489	921.873840	1507.973633	1515.701172	101.318466
813.708984	904.487000	1491.106934	1503.441284	102.102615
814.016357	919.867676	1498.091431	1505.224487	101.233612
814.323730	934.876892	1500.023438	1516.369995	102.892448
814.630981	933.836609	1504.035645	1498.611694	99.048759
814.938232	928.486816	1494.747925	1493.261841	99.737564
815.245361	914.072021	1481.224731	1489.100952	101.388733
815.552490	917.341370	1487.466187	1502.178223	102.580490
815.859619	913.477600	1487.912109	1496.085327	101.422829
816.166565	916.449707	1500.394897	1497.571289	99.516457
816.473572	915.186584	1496.456665	1502.772461	101.086548
816.780457	910.802734	1490.809937	1510.351440	103.369186
817.087341	907.756348	1489.175171	1510.202759	103.616600
817.394043	907.087646	1494.599243	1507.305054	102.162651
817.700806	909.168152	1495.267944	1505.818848	101.800186
818.007507	908.870911	1513.323608	1520.902344	101.253815
818.314209	910.951355	1513.100586	1533.013672	103.306999
818.620667	905.750183	1529.670288	1543.044556	102.143585
818.927246	902.332214	1524.320313	1554.635864	104.873978
819.233704	899.805908	1549.063110	1572.914429	103.673630
819.540161	898.691406	1578.784180	1596.022461	102.534698
819.846497	911.694397	1620.691040	1638.226440	102.473267
820.152832	913.403381	1664.232422	1693.879272	103.948547
820.458984	916.598328	1724.046265	1748.714478	103.055084
820.765259	908.127869	1785.494507	1815.141235	103.379059
821.071350	913.180420	1863.140991	1894.867798	103.339806
821.377502	902.480774	1960.254395	2035.894531	107.150879
821.683472	908.127869	2167.856201	2292.015869	109.856064
821.989441	906.344543	2538.180908	2771.566162	114.302002
822.295349	907.682068	3145.531250	3496.612061	115.688316
822.601196	909.985413	3918.576904	4393.891113	115.798561
822.907043	912.957520	4671.040527	5211.964355	114.393608
823.212769	919.124695	5158.243652	5705.111816	112.900513
823.518494	929.452698	5283.220703	5712.318848	109.855789
823.824097	916.003906	5040.250488	5275.344238	105.700287
824.129700	914.666504	4609.295410	4612.341309	100.082443
824.435242	900.177429	4088.507080	3920.508545	94.730827
824.740723	905.378723	3635.557861	3347.783203	89.459496
825.046082	897.799805	3259.437500	2905.533936	85.014488
825.351501	894.604797	2959.774658	2595.691406	82.370300
825.656799	891.186829	2725.572510	2380.064697	81.164932
825.962036	896.833801	2524.806396	2266.827393	84.153358
826.267212	910.802734	2394.256592	2226.555420	88.695221
826.572449	924.028625	2328.127197	2260.437256	95.179115
826.877502	928.486816	2364.089844	2367.061768	100.207016
827.182495	936.214294	2503.630127	2559.802979	103.583786
827.487488	936.660095	2669.399414	2791.181641	107.028305
827.792419	938.220459	2829.150391	2964.158447	107.139771
828.097290	915.781067	2868.902344	3003.613281	106.897209
828.402100	910.431335	2834.574463	2903.824951	103.599030
828.706848	919.198975	2687.380859	2714.204346	101.517006
829.011597	922.022522	2506.453857	2467.816406	97.561432
829.316223	910.208313	2294.393799	2220.685791	94.674988
829.620789	904.264160	2136.723389	2019.770996	90.510651
829.925354	910.356934	2010.260132	1874.954956	87.698448
830.229797	931.013184	1920.056641	1781.333496	85.974007
830.534302	954.046936	1841.741577	1709.705688	85.125977
830.838562	942.752930	1743.736328	1644.393555	87.597397
831.142944	928.561096	1668.318970	1592.678711	89.775002
831.447144	903.446777	1593.644897	1550.549194	93.756042
831.751404	905.378662	1570.165039	1528.704102	93.763268
832.055542	913.180420	1549.360352	1523.651733	95.958908
832.359619	909.985352	1538.363647	1525.880493	98.013435
832.663635	922.319641	1542.821655	1554.412964	101.868050
832.967651	916.895569	1568.901978	1589.632324	103.179466
833.271545	915.260925	1616.455688	1659.922729	106.198997
833.575439	903.446777	1695.365234	1752.949707	107.271515
833.879211	900.103210	1820.119507	1897.319946	108.391205
834.183044	902.926697	1968.353516	2055.213135	108.152565
834.486694	896.685242	2095.262451	2192.153320	108.083824
834.790344	920.462158	2173.428955	2265.267090	107.329651
835.093933	920.387878	2166.072998	2227.075439	104.897102
835.397522	930.641602	2088.129639	2114.283936	102.259575
835.700928	902.555176	1971.177124	1956.836548	98.658028
836.004395	919.124695	1876.218140	1834.459961	95.636978
836.307739	918.307373	1787.129272	1725.457642	92.901695
836.611023	921.279480	1716.764282	1636.814819	89.949593
836.914307	907.459167	1640.827026	1558.945313	88.834839
837.217529	920.016296	1601.297974	1523.577271	88.591988
837.520691	926.926453	1546.313843	1473.571655	88.255783
837.823730	919.198975	1491.775757	1441.324219	91.188683
838.126831	909.539612	1429.955688	1397.188477	93.703651
838.429749	908.870911	1397.931274	1390.501099	98.480721
838.732727	918.753235	1381.287476	1367.764526	97.076332
839.035522	916.003967	1369.622070	1351.640747	96.036018
839.338379	916.672668	1355.578857	1347.182617	98.087006
839.641113	910.431335	1357.436401	1350.600464	98.470726
839.943848	909.093811	1378.389648	1377.869629	99.889191
840.246460	902.852356	1405.361694	1397.039673	98.343910
840.549072	903.669678	1437.014526	1446.599609	101.797165
840.851563	911.917297	1454.772827	1478.847046	104.434738
841.154053	916.078308	1462.277466	1491.552734	105.359818
841.456482	922.245422	1437.609009	1463.986450	105.118217
841.758850	916.672668	1410.117065	1418.884888	101.776863
842.061157	911.694336	1378.686890	1381.139038	100.525093
842.363403	903.966858	1359.962646	1337.746216	95.127930
842.665588	896.462341	1327.715210	1296.062378	92.660263
842.967712	904.041260	1308.025024	1278.081055	92.587830
843.269775	906.939148	1282.910767	1266.489868	95.632408
843.571777	912.437500	1271.988281	1262.774780	97.437500
843.873840	913.106140	1263.592163	1247.096924	95.293610
844.175659	920.907959	1260.842896	1240.112427	93.901634
844.477600	936.660156	1267.455933	1249.846069	94.676514
844.779297	937.700378	1247.914185	1244.496216	98.898186
845.081116	939.855164	1237.140259	1244.942139	102.624374
845.382751	924.548767	1221.536743	1226.292114	101.601196
845.684387	910.877014	1214.849487	1211.060181	98.753403
845.985962	899.954529	1196.050903	1183.939575	95.909668
846.287537	901.737793	1174.205811	1172.051147	99.209206
846.588989	908.499329	1172.794067	1170.193481	99.016029
846.890381	909.539612	1175.394653	1179.778442	101.648941
847.191711	907.236145	1179.630005	1181.859009	100.818298
847.493042	915.112305	1178.218262	1184.608276	102.428688
847.794250	925.811829	1193.450317	1188.917847	98.306496
848.095459	930.270020	1189.363647	1185.574219	98.537430
848.396606	920.462097	1184.385376	1178.961304	97.944832
848.697693	907.459167	1161.574585	1171.233765	103.801102
848.998657	909.168152	1160.237061	1164.695190	101.775658
849.299622	920.016296	1157.562134	1179.184082	109.102219
849.600464	929.972839	1151.171997	1175.543335	111.017822
849.901367	921.576660	1147.011108	1169.673462	110.052750
850.202087	915.483826	1151.469238	1149.314453	99.086899
850.502808	911.768738	1157.636353	1144.038940	94.469620
850.803467	911.545837	1161.054199	1143.667358	93.031563
851.104065	927.298035	1166.255493	1155.110107	95.335831
851.404663	928.858398	1170.490723	1159.122437	95.295212
851.705139	929.007019	1164.472290	1157.041992	96.844421
852.005615	916.301086	1149.983276	1141.067017	96.184448
852.306030	912.586121	1144.410522	1124.200317	91.282104
852.606384	918.753174	1149.611694	1122.119751	88.091431
852.906616	924.697327	1156.819092	1131.110352	88.924461
853.206909	931.013123	1158.007935	1137.203003	90.834625
853.506958	925.068848	1152.732422	1135.419800	92.395523
853.807129	917.267090	1138.763550	1129.252808	95.706146
854.107178	909.093750	1134.230957	1126.057739	96.369675
854.407166	909.093750	1134.230957	1134.008179	99.901047
854.707092	905.081482	1136.162964	1125.686279	95.466240
855.007019	901.737793	1134.008179	1125.834839	96.481110
855.306763	910.951355	1127.246582	1115.729614	94.675346
855.606567	909.911133	1120.262085	1114.912231	97.456703
855.906250	908.945251	1110.305542	1116.621216	103.136505
856.205933	900.177429	1110.082642	1110.305542	100.106194
856.505493	905.824463	1115.655273	1106.441895	95.609138
856.805054	916.969788	1124.274414	1112.237427	94.193573
857.104492	923.434265	1125.389038	1118.181763	96.431244
857.403931	922.096741	1119.073242	1123.902954	102.451920
857.703308	912.288757	1120.782104	1108.522339	94.119827
858.002563	906.493164	1123.011353	1111.940186	94.886726
858.301819	909.911133	1129.327026	1110.899902	91.601738
858.601013	918.307312	1126.652222	1122.937012	98.216797
858.900208	922.245361	1121.525269	1113.054810	95.749466
859.199219	918.381653	1118.924683	1116.472656	98.777306
859.498291	923.137024	1122.491211	1114.763794	96.123772
859.797302	924.102966	1129.772949	1126.503662	98.410423
860.096191	933.019226	1141.958618	1131.853394	95.163559
860.395020	926.257751	1132.224854	1124.794678	96.392540
860.693787	917.489990	1125.983398	1113.723511	94.119774
860.992554	899.805969	1111.642944	1084.299683	87.092308
861.291260	902.480896	1116.844116	1084.151001	84.748726
861.589844	911.025696	1122.119629	1076.200562	78.247093
861.888428	923.582825	1127.543823	1088.832153	81.020065
862.186890	919.347595	1131.110352	1102.429565	86.456169
862.485413	912.511719	1127.469604	1116.101074	94.711273
862.783813	907.013367	1127.395142	1121.153687	97.167892
863.082153	908.499329	1127.395142	1112.386108	93.143295
863.380371	912.437439	1130.441528	1110.751343	90.967972
863.678589	908.350769	1123.902954	1114.095093	95.449890
863.976746	904.338379	1119.296265	1116.175415	98.548157
864.274902	909.836731	1116.026855	1116.175415	100.072052
864.572937	918.010071	1122.342651	1113.203369	95.527252
864.870911	931.161682	1128.138184	1111.717285	91.663521
865.168884	915.855286	1124.943237	1105.847534	90.867142
865.466736	897.428223	1109.934082	1096.931030	93.881088
865.764587	881.601807	1098.862915	1095.147827	98.290039
866.062317	886.208496	1102.206665	1105.401611	101.479156
866.360107	900.103088	1113.946411	1113.203369	99.652527
866.657715	900.474609	1114.615112	1099.903198	93.129784
866.955322	900.549011	1103.395386	1091.804199	94.285728
867.252808	901.514954	1095.519409	1074.937500	89.391014
867.550293	912.660217	1095.445190	1077.538086	90.203186
867.847717	907.607727	1099.308716	1075.309082	87.480690
868.145081	910.802734	1098.119995	1084.894043	92.939278
868.442383	903.223877	1097.971313	1093.661865	97.787163
868.739624	914.072083	1101.091919	1094.404907	96.424438
869.036804	923.062683	1109.785400	1094.999146	92.081169
869.333984	922.393982	1106.144653	1093.141602	92.923538
869.631042	911.322937	1103.172485	1087.940430	92.060417
869.928101	900.846191	1095.519409	1090.912598	97.633568
870.224976	897.799805	1088.757813	1083.110718	97.042755
870.521851	943.644592	1121.005127	1125.091797	102.304161
870.818726	939.186340	1121.748169	1121.525269	99.877907
871.115479	947.954102	1136.162964	1140.026611	102.052849
871.412231	917.787170	1110.528442	1108.819458	99.113327
871.708862	921.279480	1113.946411	1109.339600	97.608925
872.005493	915.929688	1111.568726	1093.735962	90.884865
872.302063	908.499329	1105.921753	1093.067383	93.488899
872.598572	909.093750	1108.819458	1098.491455	94.828903
872.895020	906.938965	1107.184937	1097.228271	95.027786
873.191406	913.700500	1116.695679	1104.361328	93.923820
873.487671	913.329041	1110.454102	1096.708130	93.026779
873.783997	915.558044	1114.020630	1101.537720	93.710197
874.080200	900.549011	1101.909302	1085.934204	92.066414
874.376343	893.415955	1104.732788	1089.203491	92.651176
874.672424	906.195984	1114.392212	1103.766846	94.896469
874.968445	925.663269	1126.503540	1103.469604	88.531219
875.264465	927.966614	1129.698608	1102.949585	86.740318
875.560364	917.415710	1122.639771	1091.061157	84.612617
875.856201	898.022644	1117.884399	1086.900269	85.907448
876.152039	901.514954	1121.079468	1084.894165	83.519516
876.447754	897.502625	1122.713989	1075.457642	79.016891
876.743469	910.505554	1137.871826	1090.392456	79.117676
877.039063	899.285828	1130.441528	1091.804199	83.285149
877.334595	903.595398	1123.382813	1091.804199	85.632202
877.630127	898.245605	1108.522339	1083.036499	87.879860
877.925537	909.836853	1117.735840	1084.819702	84.167244
878.221008	905.601563	1121.822388	1088.534790	84.604813
878.516296	898.245605	1111.122925	1079.989990	85.375175
878.811646	894.753418	1113.723511	1077.537964	83.474663
879.106812	900.846191	1122.416870	1101.686401	90.643860
879.401978	905.304382	1128.807007	1121.153687	96.575737
879.697083	905.527344	1134.528320	1145.153442	104.639771
879.992126	905.750183	1155.333008	1156.893433	100.625214
880.287109	909.985535	1197.759888	1191.592773	97.856964
880.582031	918.233093	1244.199097	1239.963867	98.700714
880.876892	917.267090	1318.204590	1326.377930	102.038559
881.171753	913.180420	1467.330078	1498.611694	105.644974
881.466492	919.050293	1712.454712	1773.234375	107.660614
881.761230	916.152527	2033.665527	2120.228271	107.746017
882.055786	913.923523	2360.597412	2462.689453	107.057022
882.350403	898.617188	2598.217529	2681.733643	104.913864
882.644958	895.124939	2687.455322	2709.745850	101.243660
882.939453	900.400391	2630.390625	2570.056885	96.512482
883.233826	908.722229	2487.209229	2336.671875	90.463188
883.528137	907.087585	2315.495850	2095.634033	84.389343
883.822449	908.870911	2153.070068	1879.338867	77.999405
884.116577	900.177429	2001.640991	1689.123657	71.627083
884.410828	897.799805	1866.038452	1548.617188	67.216629
884.704956	902.332275	1750.794922	1443.033203	63.727135
884.999023	903.669678	1635.031250	1367.690063	63.446098
885.292969	908.350830	1529.744263	1311.145874	64.821259
885.586914	901.663574	1431.962036	1259.133911	67.409271
885.880798	909.688232	1367.021484	1240.929810	72.428932
886.174622	913.774841	1331.653320	1228.446899	75.302292
886.468384	910.431152	1292.792969	1215.443970	79.770729
886.762085	903.149597	1262.848999	1188.472046	79.322472
887.055664	897.279602	1223.171387	1168.335938	83.173721
887.349304	893.861633	1208.385132	1147.456909	80.628403
887.642822	897.056641	1195.456543	1133.859497	79.357552
887.936340	896.833801	1189.809448	1109.562500	72.609688
888.229736	901.737793	1174.280273	1096.931030	71.619377
888.523071	896.611023	1163.952026	1086.008545	70.844917
888.816284	921.873840	1170.193481	1098.119995	70.975517
889.109619	931.607483	1175.469116	1104.435669	70.871414
889.402710	946.245117	1161.351563	1104.658569	73.644211
889.695862	924.400085	1132.299194	1076.572144	73.195145
889.988892	909.465271	1112.460327	1058.368042	73.352905
890.281921	886.951538	1113.649170	1055.024292	74.139618
>>>>>End Processed Spectral Data<<<<<
