Jaz Data File
++++++++++++++++++++++++++++++++++++
Date: Fri Jun 04 11:28:29 2021
User: jaz
Dark Spectrum Present: Yes
Reference Spectrum Present: Yes
Processed Spectrum Present: Yes
Spectrometers: JAZA3586
Integration Time (usec): 60500 (JAZA3586)
Spectra Averaged: 10 (JAZA3586)
Boxcar Smoothing: 1 (JAZA3586)
Correct for Electrical Dark: No (JAZA3586)
Strobe/Lamp Enabled: Yes (JAZA3586)
Correct for Detector Non-linearity: No (JAZA3586)
Correct for Stray Light: No (JAZA3586)
Number of Pixels in Processed Spectrum: 2048
>>>>>Begin Processed Spectral Data<<<<<
W	D	R	S	P
191.335022	0.000000	0.000000	0.000000	0.000000
191.713211	493.295746	493.890167	487.648773	-949.994873
192.091385	992.164124	991.124023	977.377930	1421.612549
192.469528	1490.066772	1487.614746	1472.234009	727.266418
192.847641	1500.692017	1502.103882	1480.704590	-1415.675293
193.225739	1502.029663	1506.933472	1490.363892	-237.892059
193.603790	1511.317383	1517.038696	1497.794312	-236.363052
193.981842	1518.821899	1518.375977	1498.462891	4565.589844
194.359863	1529.372681	1520.010742	1503.292603	278.575623
194.737854	1532.716431	1522.165527	1503.366821	278.171539
195.115829	1531.230469	1520.679565	1502.252441	274.649719
195.493774	1535.020020	1528.852661	1502.995483	519.258545
195.871704	1529.224243	1533.831055	1503.589844	-556.445557
196.249603	1534.276733	1540.072632	1510.871582	-403.822662
196.627457	1530.710327	1537.100464	1509.385376	-333.716675
197.005310	1539.180786	1533.385376	1509.459839	512.835938
197.383133	1533.310913	1528.852905	1502.846680	683.359802
197.760910	1536.951782	1524.766113	1500.766235	296.951660
198.138687	1531.230469	1522.982910	1492.890259	464.867371
198.516449	1531.453491	1520.679321	1497.942871	311.027405
198.894180	1529.001343	1525.286255	1494.153442	938.010132
199.271866	1528.927124	1524.543335	1508.048218	476.275330
199.649536	1526.475098	1525.657837	1507.082031	2372.935059
200.027191	1527.441040	1521.051147	1511.837402	244.192490
200.404816	1528.183960	1530.264648	1504.332642	-1146.318604
200.782410	1528.852661	1541.187012	1511.614380	-139.758316
201.159988	1521.422485	1553.001099	1510.648804	-34.117020
201.537537	1518.970703	1555.304565	1518.747681	-0.613814
201.915070	1520.010742	1549.806152	1513.472046	-21.945314
202.292557	1523.428711	1551.515137	1524.246094	2.910241
202.670029	1518.970337	1549.954712	1519.936523	3.118302
203.047485	1518.301758	1550.103516	1518.821899	1.635575
203.424911	1510.648560	1546.165405	1507.156250	-9.832826
203.802292	1515.701172	1548.691772	1505.075806	-32.207253
204.179688	1513.249146	1550.028931	1509.682617	-9.696980
204.557037	1512.654785	1547.799927	1517.781738	14.587943
204.934357	1513.472168	1545.348022	1516.295532	8.857376
205.311661	1517.633179	1546.833984	1516.221313	-4.835021
205.688934	1517.410156	1551.663696	1511.391602	-17.570606
206.066177	1512.506226	1551.960938	1508.939575	-9.039859
206.443390	1510.351563	1549.657593	1503.069824	-18.525753
206.820587	1516.072754	1547.799927	1500.989258	-47.541256
207.197769	1518.078979	1552.109497	1506.784790	-33.188416
207.574921	1509.311157	1560.059937	1518.301758	17.715895
207.952042	1509.014038	1561.248901	1525.806274	32.147564
208.329147	1506.636230	1556.121948	1526.475098	40.090088
208.706223	1522.537109	1557.310913	1530.784790	23.718086
209.083267	1516.147095	1565.558228	1529.075684	26.165337
209.460297	1516.147095	1565.707031	1529.447266	26.836538
209.837280	1502.178223	1558.573853	1513.397827	19.894457
210.214264	1500.246216	1552.703735	1507.825195	14.447842
210.591217	1499.800415	1552.703979	1497.125488	-5.056231
210.968124	1501.509399	1554.932983	1496.679688	-9.040412
211.345016	1508.865356	1554.412964	1498.760132	-22.186071
211.721893	1506.859375	1560.951660	1510.202759	6.180889
212.098724	1509.385620	1558.425293	1514.140747	9.696490
212.475555	1510.574219	1551.069336	1509.756958	-2.018171
212.852356	1512.580444	1546.388306	1506.859253	-16.922667
213.229126	1505.893188	1545.348022	1509.088379	8.098350
213.605865	1503.144043	1548.617188	1510.054199	15.196126
213.982590	1501.880859	1551.143555	1501.732300	-0.301566
214.359283	1506.933594	1555.155884	1495.044922	-24.653893
214.735931	1501.212280	1563.255005	1499.280273	-3.113994
215.112579	1503.515625	1562.437622	1499.577515	-6.683599
215.489197	1497.794312	1562.734863	1505.521606	11.899029
215.865799	1502.326660	1565.261108	1501.955078	-0.590427
216.242355	1504.258667	1566.450073	1507.379272	5.017744
216.618896	1511.243042	1567.118652	1500.840698	-18.616966
216.995407	1512.877563	1555.007324	1496.828491	-38.094383
217.371902	1505.521851	1555.824585	1494.970703	-20.975296
217.748367	1502.178101	1551.663696	1500.320679	-3.753460
218.124802	1497.274048	1556.641968	1507.007813	16.395664
218.501236	1496.828491	1545.570923	1507.082031	21.036169
218.877609	1497.348511	1545.050781	1505.744629	17.601088
219.253983	1499.577515	1548.988892	1502.178101	5.263132
219.630295	1501.286499	1557.756714	1505.893188	8.157733
220.006592	1502.921021	1565.335449	1500.394897	-4.047338
220.382889	1502.921265	1565.781250	1504.407104	2.363729
220.759140	1498.314453	1562.214844	1501.360718	4.767208
221.135391	1493.336060	1557.607910	1499.948853	10.288786
221.511581	1487.094727	1560.208496	1493.930542	9.349560
221.887772	1501.806641	1556.864868	1497.051270	-8.636986
222.263931	1505.447266	1558.128052	1511.094360	10.719458
222.640060	1509.905640	1553.595581	1515.255371	12.244767
223.016159	1498.760132	1560.208496	1517.038696	29.746218
223.392212	1507.007813	1567.713013	1513.249390	10.281783
223.768265	1503.441040	1569.496460	1511.168579	11.698569
224.144302	1505.373047	1579.230103	1506.933594	2.112929
224.520294	1496.233765	1574.177368	1504.407227	10.486380
224.896286	1493.558960	1574.400391	1513.323608	24.448662
225.272217	1495.565063	1576.406616	1516.072632	25.367609
225.648148	1488.654907	1581.013306	1516.444214	30.088554
226.024048	1496.679688	1591.341431	1516.890015	21.350048
226.399902	1495.044922	1584.802734	1519.490601	27.235155
226.775772	1499.354492	1590.524048	1514.661011	16.789068
227.151581	1501.435181	1591.415649	1513.174927	13.046993
227.527374	1503.069702	1605.087280	1508.642578	5.462663
227.903137	1509.979858	1617.941772	1514.883911	4.542391
228.278870	1511.614624	1635.848633	1512.208984	0.478420
228.654572	1512.134766	1645.508179	1516.072754	2.952604
229.030273	1510.574219	1648.257202	1518.598999	5.828447
229.405930	1503.812866	1649.966309	1520.159302	11.184434
229.781555	1503.589844	1657.099243	1524.766235	13.794850
230.157181	1489.100708	1662.523438	1516.221313	15.638437
230.532761	1490.586914	1660.442749	1516.295532	15.135552
230.908325	1493.113281	1654.498657	1514.958130	13.535830
231.283859	1500.766479	1647.959961	1524.097290	15.850437
231.659332	1504.035767	1642.907349	1519.639282	11.235931
232.034821	1504.035767	1641.421509	1516.667114	9.194075
232.410263	1513.026367	1637.409180	1520.605347	6.093269
232.785690	1511.168823	1639.489624	1524.914673	10.712098
233.161087	1510.500000	1639.043823	1523.205688	9.884324
233.536469	1507.156372	1643.130371	1520.084961	9.508133
233.911804	1509.905640	1640.901367	1526.326538	12.535446
234.287140	1510.871460	1638.746460	1529.372925	14.468399
234.662430	1505.893188	1639.638184	1533.608032	20.722155
235.037704	1502.401001	1645.805176	1536.951782	24.093288
235.412933	1500.394897	1651.823730	1537.026001	24.190310
235.788162	1506.784790	1661.929077	1525.583374	12.116839
236.163345	1509.385620	1665.421265	1515.329712	3.809445
236.538513	1509.756958	1666.461426	1517.038696	4.646797
236.913635	1497.497070	1668.690430	1533.013672	20.746483
237.288742	1492.295898	1669.879272	1541.335571	27.615013
237.663834	1491.626953	1671.067993	1543.861938	29.109833
238.038879	1504.481445	1669.879272	1540.295410	21.653225
238.413910	1510.054321	1678.795532	1533.013794	13.606322
238.788910	1505.596191	1687.934937	1537.323242	17.400061
239.163879	1494.970703	1699.600586	1538.958008	21.496033
239.538834	1489.175171	1706.807983	1551.292358	28.542198
239.913757	1487.763306	1729.395874	1556.047485	28.259510
240.288651	1496.754028	1736.380249	1568.604614	29.984442
240.663528	1498.537109	1756.144897	1571.651001	28.381865
241.038361	1501.212280	1778.138306	1579.229858	28.172714
241.413177	1497.720093	1818.038940	1578.486938	25.214516
241.787979	1500.989258	1860.020020	1593.050293	25.641544
242.162735	1503.515625	1891.672852	1606.722046	26.588820
242.537476	1512.877808	1905.195923	1621.433960	27.670441
242.912170	1515.181030	1918.867676	1629.755859	28.382120
243.286865	1517.558716	1913.666626	1627.303833	27.705864
243.661514	1506.859253	1916.341431	1631.836304	30.520754
244.036148	1506.264771	1890.409790	1626.560913	31.315294
244.410751	1503.887085	1884.317017	1623.217163	31.367163
244.785339	1496.531128	1883.648315	1623.514282	32.802250
245.159882	1492.890259	1901.332397	1625.966309	32.581371
245.534378	1490.438354	1928.675781	1648.257202	36.012180
245.908890	1496.233887	1978.607056	1660.591431	34.072697
246.283356	1491.552734	2052.538330	1685.037109	34.490078
246.657791	1490.884155	2140.141357	1710.671509	33.852123
247.032196	1493.410522	2205.453369	1731.699219	33.465500
247.406586	1501.657837	2245.130859	1757.036499	34.349419
247.780960	1496.530884	2241.490234	1757.630859	35.048889
248.155289	1498.537231	2212.660645	1756.367798	36.104485
248.529602	1496.456665	2168.970703	1734.597046	35.410469
248.903870	1509.088257	2114.803955	1716.541504	34.249275
249.278122	1508.493774	2065.615479	1701.458008	34.635921
249.652344	1513.992188	2025.194824	1691.278687	34.680279
250.026550	1506.190430	2003.498535	1689.346680	36.829533
250.400711	1504.927368	1988.266602	1685.631470	37.386600
250.774857	1502.103882	1990.198608	1685.928711	37.661713
251.148987	1509.831421	2001.046753	1693.210449	37.331699
251.523071	1509.162598	2034.037109	1700.937866	36.537357
251.897125	1510.425781	2048.526123	1721.891235	39.298515
252.271164	1505.076050	2057.516846	1727.241211	40.215199
252.645187	1509.385376	2047.114258	1735.786011	42.103119
253.019165	1505.521851	2032.476685	1724.343140	41.525623
253.393112	1503.664185	2017.170288	1713.123413	40.790016
253.767044	1498.462891	1996.439575	1702.943970	41.062382
254.140930	1497.942871	1985.071289	1692.690308	39.978664
254.514801	1497.571289	1967.981812	1685.557129	39.962082
254.888657	1493.781860	1965.158325	1683.848267	40.321571
255.262466	1495.416626	1973.257446	1689.718140	40.662392
255.636276	1498.017090	1998.891724	1711.488892	42.619808
256.010010	1509.682617	2020.811035	1722.708496	41.677567
256.383759	1509.979858	2044.587891	1730.436035	41.236973
256.757446	1507.527954	2067.918945	1736.380249	40.837967
257.131134	1508.122437	2111.311768	1752.355469	40.490276
257.504791	1509.236938	2164.141113	1781.333496	41.547539
257.878418	1515.552612	2235.620361	1810.460083	40.955517
258.252014	1513.249146	2318.616699	1855.338989	42.476238
258.625580	1507.676392	2429.773438	1915.004028	44.174053
258.999115	1504.333008	2561.289063	1982.396484	45.230213
259.372650	1501.360840	2710.414307	2052.760986	45.605934
259.746124	1505.001587	2820.753906	2100.240479	45.239433
260.119598	1506.710571	2880.716064	2134.791504	45.711674
260.493042	1510.797241	2859.688721	2127.806885	45.741978
260.866425	1507.602173	2791.850342	2103.287109	46.383942
261.239838	1509.311157	2692.061768	2051.200928	45.816063
261.613159	1508.865234	2589.821289	2007.065063	46.088814
261.986511	1505.075806	2515.815674	1971.251099	46.122185
262.359802	1506.190430	2459.717285	1947.920288	46.325897
262.733063	1507.379272	2433.265381	1930.682007	45.718662
263.106293	1510.797241	2399.606201	1927.041016	46.831635
263.479523	1510.648438	2378.355713	1926.892212	47.970528
263.852692	1503.738403	2367.433350	1926.446655	48.941845
264.225861	1508.716797	2356.882324	1915.301147	47.936909
264.598969	1505.521606	2363.866943	1917.233032	47.965710
264.972076	1507.602173	2384.523193	1926.892456	47.813915
265.345154	1512.580566	2437.352051	1954.830078	47.822571
265.718201	1508.791138	2488.397949	1977.343872	47.830692
266.091217	1512.877563	2547.691650	2007.956665	47.842323
266.464203	1505.373047	2593.833740	2039.015137	49.027225
266.837158	1505.224609	2648.297607	2069.702148	49.382458
267.210114	1498.165894	2675.715088	2095.188232	50.700417
267.583038	1498.091431	2697.783203	2100.240967	50.192020
267.955902	1507.750854	2704.619141	2091.993164	48.814251
268.328766	1510.276978	2711.603760	2087.312256	48.033165
268.701569	1506.116211	2725.126709	2092.958984	48.140911
269.074371	1496.679688	2737.386719	2114.358154	49.784393
269.447144	1496.976929	2767.627686	2136.351807	50.318695
269.819885	1502.624023	2826.252686	2173.503174	50.684845
270.192596	1501.880859	2942.164795	2229.824463	50.541672
270.565277	1503.664185	3079.253174	2305.019043	50.860653
270.937927	1498.760254	3203.264648	2369.364990	51.076710
271.310577	1500.097656	3279.425049	2414.095459	51.367603
271.683136	1502.623901	3318.953857	2431.705322	51.151577
272.055725	1502.995483	3327.424561	2432.448242	50.944855
272.428284	1502.252563	3302.458984	2414.615479	50.681015
272.800812	1502.549805	3263.821289	2402.578369	51.101070
273.173279	1502.698242	3199.549561	2385.265869	52.012077
273.545776	1502.772583	3163.512451	2369.365234	52.181118
273.918152	1494.153320	3126.212158	2338.083740	51.709560
274.290558	1494.673462	3116.701904	2330.133301	51.507103
274.662964	1496.233765	3116.776123	2336.894775	51.875286
275.035278	1502.326660	3129.853516	2353.167236	52.278130
275.407593	1502.178101	3155.785156	2370.999756	52.540997
275.779907	1501.360718	3199.698242	2399.903564	52.907200
276.152161	1497.794312	3250.298584	2432.076416	53.311260
276.524384	1495.490845	3304.614014	2454.367432	53.002285
276.896606	1496.828247	3328.613281	2459.345703	52.545326
277.268799	1505.001587	3339.164063	2465.958740	52.392151
277.640930	1501.880859	3339.535889	2482.008057	53.335754
278.013031	1496.828247	3332.848633	2488.398193	54.006477
278.385162	1493.336060	3331.733643	2496.719971	54.579266
278.757233	1502.326660	3346.817627	2501.401367	54.165337
279.129272	1508.122437	3382.631592	2527.332764	54.372116
279.501282	1507.379272	3435.906982	2548.731934	53.997288
279.873230	1499.577515	3511.472656	2593.165039	54.356091
280.245178	1506.487671	3619.285400	2645.548584	53.912441
280.617126	1506.710571	3744.857422	2724.011963	54.388805
280.988983	1517.484497	3852.670654	2777.955811	53.977341
281.360870	1515.478394	3937.598389	2840.593018	54.708874
281.732697	1513.992188	4004.396484	2877.224365	54.739391
282.104492	1507.825195	4039.244385	2907.093750	55.276051
282.476288	1498.537231	4047.789063	2910.066162	55.370319
282.848053	1501.063477	4025.201172	2901.447021	55.479683
283.219757	1506.562012	4024.680908	2894.611084	55.122459
283.591461	1505.447388	4020.000000	2899.069092	55.422249
283.963135	1503.367065	4037.906982	2919.948242	55.891056
284.334747	1502.475220	4089.324219	2964.381592	56.513012
284.706360	1508.493774	4175.886719	3005.099365	56.107426
285.077942	1506.041870	4292.468262	3061.123291	55.809174
285.449524	1504.184204	4382.597656	3110.311768	55.799053
285.821014	1503.589844	4406.300293	3133.569092	56.153698
286.192535	1502.029419	4416.256348	3151.030029	56.584492
286.563995	1501.657837	4392.627930	3140.701416	56.695278
286.935425	1502.624023	4369.965332	3136.615234	56.986282
287.306824	1502.772583	4280.951172	3099.463867	57.472591
287.678223	1504.035645	4222.920410	3064.021484	57.375946
288.049561	1502.475464	4179.676270	3038.832764	57.386707
288.420898	1505.818970	4197.806152	3043.885010	57.134968
288.792145	1508.122437	4238.673340	3085.048828	57.751221
289.163452	1515.181152	4341.582520	3142.930664	57.590885
289.534668	1510.648804	4460.466797	3216.119141	57.816124
289.905914	1510.351440	4558.249023	3274.595459	57.883968
290.277039	1504.258423	4646.669434	3331.957031	58.162300
290.648193	1511.540161	4680.625488	3355.585205	58.188557
291.019318	1509.459839	4668.439453	3356.031250	58.454681
291.390381	1507.230591	4577.345215	3317.022217	58.948666
291.761475	1507.007813	4505.791504	3289.381592	59.436558
292.132507	1501.138062	4478.596680	3262.855469	59.168495
292.503510	1506.264648	4493.754395	3272.811768	59.131489
292.874481	1502.549683	4559.437988	3300.972656	58.831821
293.245422	1509.534058	4647.114746	3376.984375	59.518799
293.616364	1504.332886	4795.646484	3467.559326	59.648724
293.987213	1504.035522	4922.109375	3551.744385	59.908272
294.358093	1506.041870	5036.460938	3608.957764	59.565624
294.728943	1508.939575	5116.262207	3654.802490	59.486298
295.099731	1507.825195	5221.400879	3723.012451	59.651058
295.470490	1504.481445	5332.854980	3794.639893	59.820663
295.841248	1503.218262	5451.145020	3868.496826	59.911915
296.211975	1505.818848	5565.199219	3932.322998	59.775234
296.582642	1505.224609	5657.408691	4003.727783	60.173229
296.953308	1508.493774	5701.173828	4039.541748	60.368256
297.323883	1509.534180	5662.312988	4017.771240	60.399006
297.694519	1507.676636	5554.500000	3957.957275	60.548252
298.065063	1506.413452	5420.011719	3888.335693	60.862720
298.435608	1503.887085	5269.326172	3813.735596	61.343410
298.806122	1502.326538	5091.222168	3691.879150	61.009098
299.176575	1506.784790	4938.456055	3592.685303	60.783802
299.547028	1503.887085	4836.438965	3526.035400	60.678677
299.917450	1508.047852	4810.953125	3512.215576	60.678936
300.287872	1502.698120	4808.872070	3522.914795	61.104370
300.658234	1503.887085	4809.243164	3523.435303	61.099266
301.028564	1504.258423	4796.166504	3518.085205	61.175060
301.398865	1500.989258	4755.671387	3495.794189	61.290314
301.769135	1502.624023	4692.812012	3469.268311	61.646660
302.139374	1502.995483	4635.301270	3455.225342	62.325649
302.509583	1507.527954	4591.833984	3423.423096	62.117542
302.879791	1507.973633	4541.902344	3389.541260	62.017529
303.249939	1498.463013	4501.184570	3358.928467	61.959305
303.620087	1491.998657	4462.844238	3348.897705	62.504055
303.990173	1495.416504	4466.634277	3353.876221	62.548756
304.360260	1503.441406	4460.912598	3346.520264	62.319420
304.730286	1510.351440	4457.940918	3350.978516	62.445168
305.100281	1506.562012	4437.878906	3347.040283	62.786739
305.470276	1504.630005	4442.262695	3361.901123	63.223392
305.840179	1503.218384	4470.423340	3374.309326	63.059036
306.210144	1502.401001	4507.871582	3398.680664	63.094265
306.579987	1501.657837	4548.589355	3424.612305	63.111179
306.949890	1497.571289	4602.236328	3466.444580	63.416611
307.319702	1499.503296	4684.860840	3535.992188	63.932823
307.689484	1504.630005	4786.581055	3612.375000	64.222321
308.059265	1504.258423	4870.691895	3678.281494	64.579407
308.429016	1501.286499	4940.685059	3720.411377	64.520729
308.798737	1496.902466	5005.699707	3772.200439	64.845520
309.168396	1497.199829	5058.603027	3814.032471	65.053925
309.538055	1501.435059	5088.918457	3843.010986	65.270714
309.907684	1505.075806	5077.401855	3839.369873	65.343811
310.277313	1507.156616	5085.724121	3844.645508	65.319122
310.646851	1509.088257	5081.414551	3852.076172	65.587173
311.016388	1504.853027	5074.281250	3854.379639	65.823616
311.385895	1506.784790	5019.742676	3822.949463	65.932030
311.755371	1507.453613	4957.031738	3787.655518	66.100891
312.124817	1509.831421	4907.472168	3763.878662	66.341545
312.494232	1509.088257	4862.667480	3751.024170	66.852043
312.863617	1502.326660	4854.642578	3750.429688	67.061195
313.232971	1501.063599	4889.936523	3776.212891	67.135872
313.602295	1499.280273	4966.616699	3832.162842	67.281693
313.971619	1506.264771	5040.399902	3903.493408	67.830696
314.340820	1504.109985	5052.510254	3937.895752	68.588249
314.710083	1505.967651	5027.322266	3945.920166	69.290176
315.079285	1502.698242	4949.750000	3901.115967	69.578812
315.448486	1509.979980	4893.057129	3841.376221	68.913483
315.817596	1512.208984	4780.116699	3751.767578	68.531883
316.186707	1509.014038	4694.668457	3682.888672	68.239502
316.555786	1507.007813	4587.895996	3623.818115	68.707794
316.924866	1503.292603	4550.001465	3610.369141	69.159103
317.293884	1504.332886	4543.982910	3615.718750	69.461479
317.662872	1506.041992	4576.304199	3645.440186	69.681290
318.031830	1505.298828	4628.019043	3678.058838	69.579079
318.400757	1503.664185	4658.037598	3719.965576	70.261215
318.769684	1499.948853	4676.242188	3745.748779	70.705048
319.138550	1496.605347	4654.768555	3752.287109	71.423851
319.507416	1498.165894	4627.871094	3734.677734	71.460785
319.876190	1503.515625	4568.874512	3701.538330	71.705231
320.244995	1506.859009	4525.035645	3659.631836	71.326935
320.613770	1505.670288	4481.865723	3622.703369	71.132202
320.982483	1507.007813	4499.326660	3623.446533	70.729050
321.351166	1507.082031	4530.311035	3661.118164	71.249519
321.719818	1508.196655	4607.586426	3724.201172	71.498093
322.088440	1499.874634	4720.451660	3828.745361	72.312210
322.457062	1500.766479	4900.116211	3954.911133	72.194534
322.825623	1499.726196	5063.433594	4104.185059	73.082848
323.194183	1498.388672	5194.503418	4208.654785	73.327431
323.562653	1498.388672	5247.703613	4261.706543	73.701942
323.931183	1500.394897	5258.403320	4264.307617	73.547272
324.299591	1509.831421	5219.245605	4245.657715	73.753593
324.668060	1501.806641	5157.352051	4199.664551	73.801788
325.036407	1500.469116	5083.494629	4168.605957	74.466026
325.404755	1490.363892	5022.641113	4116.073730	74.334763
325.773102	1504.927368	4962.381348	4074.092529	74.307999
326.141388	1501.063477	4901.007813	4015.913330	73.967384
326.509674	1507.899414	4817.788574	3959.517578	74.069496
326.877899	1502.995483	4744.303223	3915.456299	74.428635
327.246124	1511.763062	4686.941895	3873.177979	74.371094
327.614288	1510.723022	4640.056641	3844.571533	74.579735
327.982422	1513.917969	4641.617188	3837.661377	74.295616
328.350525	1513.694946	4652.687500	3844.274414	74.246101
328.718628	1516.667114	4691.399414	3879.270752	74.418983
329.086700	1511.986206	4726.544922	3929.350830	75.200516
329.454712	1505.075806	4772.687012	3968.062256	75.375740
329.822693	1497.422729	4818.011719	3998.155029	75.309906
330.190674	1497.348267	4843.497559	4010.786377	75.114342
330.558563	1499.280273	4883.546387	4052.321533	75.438553
330.926483	1495.788086	4958.591797	4111.615234	75.540726
331.294312	1494.970703	5049.687012	4184.357910	75.656876
331.662231	1505.298828	5150.516113	4248.480957	75.254280
332.029999	1507.379272	5223.556152	4311.118652	75.446877
332.397766	1506.339233	5283.443848	4357.557129	75.486862
332.765503	1496.976929	5333.078125	4405.557129	75.821259
333.133240	1501.212280	5335.530273	4420.491699	76.135559
333.500916	1493.336060	5344.297852	4424.355469	76.111359
333.868561	1500.543335	5315.319336	4405.482422	76.149666
334.236176	1494.896484	5320.594727	4390.027344	75.675880
334.603790	1495.490845	5289.907715	4379.253418	76.000153
334.971344	1492.816040	5265.908203	4353.990723	75.831032
335.338867	1499.800415	5234.255371	4332.740234	75.859528
335.706360	1506.785034	5215.308105	4321.669434	75.903114
336.073853	1503.144165	5221.549316	4342.102051	76.348808
336.441284	1504.109985	5253.350586	4363.129883	76.255974
336.808655	1507.750854	5288.272949	4379.253906	75.955200
337.176086	1501.658081	5345.560059	4392.479980	75.205399
337.543396	1495.044922	5374.018066	4404.591309	75.008163
337.910706	1496.902710	5392.891113	4425.470215	75.168793
338.277954	1508.122192	5380.928711	4425.692871	75.334793
338.645264	1517.781616	5331.368652	4420.343262	76.111061
339.012421	1510.797241	5284.335449	4373.235352	75.855545
339.379669	1506.487671	5199.035645	4302.053223	75.708305
339.746796	1499.354614	5119.160645	4218.091309	75.107246
340.113953	1502.401001	5065.291016	4163.626953	74.692902
340.481018	1502.029419	5032.969238	4154.933594	75.133087
340.848114	1503.144043	5041.885254	4160.357910	75.089241
341.215118	1507.379272	5083.866699	4189.855957	75.003105
341.582153	1507.750854	5210.626953	4265.496094	74.475761
341.949066	1510.425781	5384.866699	4390.473633	74.334541
342.316010	1508.568237	5590.239746	4571.697754	75.045959
342.682922	1503.887085	5820.355469	4755.448730	75.329208
343.049835	1501.286499	6120.983887	4980.140137	75.304794
343.416656	1500.617798	6436.696777	5194.726074	74.838921
343.783478	1505.075806	6686.576172	5349.126953	74.187996
344.150269	1501.435181	6816.160156	5442.302246	74.149971
344.516998	1501.806641	6811.107422	5442.080078	74.214546
344.883728	1502.475464	6723.802246	5387.541504	74.407639
345.250427	1501.063599	6610.936035	5298.229980	74.310394
345.617065	1501.435181	6476.447754	5184.249512	74.026230
345.983704	1505.075806	6353.625488	5091.297363	73.964828
346.350281	1509.385376	6212.078613	4971.966797	73.629753
346.716827	1500.915039	6067.708984	4870.023438	73.774040
347.083405	1501.955200	5971.041504	4797.652344	73.744316
347.449860	1507.676636	5906.917969	4748.464355	73.666969
347.816376	1518.301758	5909.146973	4728.402344	73.108948
348.182770	1508.716797	5901.717285	4695.263184	72.536903
348.549194	1501.806519	5952.019531	4720.823242	72.333992
348.915558	1499.651733	6014.507813	4764.736328	72.318687
349.281921	1506.413208	6101.070313	4839.113770	72.534264
349.648193	1508.493774	6151.225098	4871.732422	72.440948
350.014526	1512.506226	6179.236816	4894.320801	72.466461
350.380737	1508.939575	6204.128906	4894.617676	72.109512
350.746948	1511.391602	6234.443848	4911.929688	71.998741
351.113159	1511.094360	6297.006348	4925.081543	71.334099
351.479309	1504.555786	6363.507813	4966.617188	71.251198
351.845428	1507.379272	6493.834473	5036.758789	70.779327
352.211517	1501.360718	6614.576660	5117.971191	70.730644
352.577576	1501.509399	6762.587891	5210.032227	70.489784
352.943604	1492.295898	6870.326660	5295.703613	70.721199
353.309601	1493.558960	7008.826660	5387.541504	70.603691
353.675537	1501.286499	7135.735840	5489.931152	70.790321
354.041473	1506.561890	7293.257813	5578.127441	70.360802
354.407379	1505.521851	7403.968750	5653.173828	70.317696
354.773254	1502.995483	7547.818848	5717.148438	69.715073
355.139038	1502.029419	7685.725098	5807.500000	69.626175
355.504913	1504.109985	7958.416504	5976.613281	69.294868
355.870636	1503.515625	8244.852539	6169.205566	69.210159
356.236389	1503.589844	8545.555664	6361.278809	68.982002
356.602081	1504.035645	8787.783203	6524.373535	68.925201
356.967804	1508.568237	8934.010742	6625.127441	68.905785
357.333405	1509.014038	9006.084961	6670.377441	68.845062
357.699036	1502.252319	8981.935547	6613.462402	68.334579
358.064606	1503.292603	8940.252930	6549.264160	67.849922
358.430176	1502.401001	8898.791992	6488.336426	67.410385
358.795654	1508.196655	8972.424805	6535.890625	67.357185
359.161163	1507.156616	9179.061523	6664.507813	67.223869
359.526581	1506.562134	9567.739258	6911.490723	67.048874
359.892029	1506.636353	10084.366211	7236.936035	66.804390
360.257416	1502.178101	10641.784180	7574.270996	66.437134
360.622772	1506.264648	11099.637695	7854.169434	66.169685
360.988098	1505.744629	11384.588867	7984.793457	65.585091
361.353394	1505.670288	11446.780273	7998.019531	65.308090
361.718658	1500.617798	11234.942383	7826.899902	64.989433
362.083893	1501.212036	10745.881836	7528.277344	65.195030
362.449097	1503.887085	10126.940430	7109.804688	65.010818
362.814209	1507.602173	9511.937500	6691.554688	64.764313
363.179382	1507.453613	8980.300781	6299.904785	64.131531
363.544434	1511.911743	8590.805664	6026.693848	63.778072
363.909546	1507.750854	8344.047852	5824.664551	63.146957
364.274536	1508.716797	8202.500000	5709.792480	62.760857
364.639587	1497.497070	8069.127441	5598.933105	62.411240
365.004517	1500.246216	7976.768066	5538.152832	62.346840
365.369507	1499.874634	7919.035156	5484.061035	62.067097
365.734344	1508.419556	7925.275879	5476.556152	61.839264
366.099274	1508.716797	7913.239746	5444.457520	61.452518
366.464081	1505.818970	7875.419434	5412.878906	61.339169
366.828918	1503.812866	7829.574707	5335.752930	60.576736
367.193665	1501.435059	7739.594238	5271.927246	60.442387
367.558411	1500.617798	7669.675781	5201.339355	59.988438
367.923126	1496.976929	7572.190918	5138.553223	59.941532
368.287781	1497.125610	7519.658203	5084.832520	59.571400
368.652435	1498.537476	7475.894043	5045.154785	59.334209
369.017059	1503.441406	7499.818848	5033.712402	58.873394
369.381653	1501.583618	7564.462891	5037.501465	58.320770
369.746185	1498.983032	7658.753418	5048.349609	57.621735
370.110687	1502.252441	7740.188965	5082.751953	57.398781
370.475220	1505.298828	7829.426270	5105.339844	56.925499
370.839661	1506.264648	7870.589844	5120.943848	56.795956
371.204041	1505.150269	7880.695313	5113.662109	56.599266
371.568451	1501.137817	7868.881348	5088.399414	56.334896
371.932770	1502.252441	7840.052246	5045.675293	55.909351
372.297150	1499.280273	7819.990234	4988.090332	55.196491
372.661377	1499.131714	7812.560059	4968.771484	54.956509
373.025696	1496.828247	7865.686035	4971.297363	54.554039
373.389862	1495.862305	7935.530762	4999.532715	54.407619
373.754059	1502.029419	8035.021973	5028.585449	53.980717
374.118225	1504.927368	8147.516113	5069.080566	53.656090
374.482361	1508.939819	8361.210938	5133.055176	52.889256
374.846436	1508.716797	8576.243164	5223.332520	52.558922
375.210510	1507.750854	8860.970703	5354.922363	52.319550
375.574524	1504.258667	9136.040039	5484.729004	52.156502
375.938538	1507.305054	9452.122070	5616.617188	51.723183
376.302460	1508.791016	9712.405273	5713.507324	51.254436
376.666412	1501.212280	9860.639648	5760.466797	50.951508
377.030304	1499.726196	9830.695313	5701.173340	50.431679
377.394196	1500.543457	9671.539063	5594.177246	50.099571
377.757996	1510.425781	9397.065430	5436.210449	49.777660
378.121796	1505.744629	9092.944336	5283.145996	49.786503
378.485565	1510.351440	8826.495117	5121.166504	49.354076
378.849304	1514.215210	8648.688477	4979.768555	48.574760
379.212982	1515.181152	8563.833984	4880.351563	47.742035
379.576630	1510.500000	8499.488281	4818.234375	47.327801
379.940277	1507.305054	8474.745117	4798.470215	47.236359
380.303864	1504.109985	8450.819336	4770.754883	47.024349
380.667450	1505.001587	8460.850586	4743.188965	46.553448
381.030945	1500.320435	8462.633789	4721.120605	46.260490
381.394501	1507.973755	8520.516602	4720.229004	45.807281
381.757935	1504.778687	8581.370117	4729.962891	45.575390
382.121399	1509.831421	8665.480469	4751.584961	45.303417
382.484741	1509.162598	8809.702148	4797.280762	45.039387
382.848145	1510.945801	8964.326172	4821.355469	44.414875
383.211487	1505.447388	9095.470703	4842.234375	43.962803
383.574768	1503.144043	9167.543945	4836.215820	43.487705
383.938019	1509.014038	9215.022461	4839.856934	43.223972
384.301270	1508.493774	9241.474609	4808.872559	42.679256
384.664459	1507.750854	9252.397461	4774.395508	42.179390
385.027649	1499.354492	9253.437500	4736.575684	41.748600
385.390778	1500.617676	9370.910156	4755.299316	41.354012
385.753876	1498.908813	9471.813477	4787.323730	41.244881
386.116943	1500.320679	9578.735352	4810.729980	40.978451
386.479980	1497.274292	9608.752930	4788.587402	40.575993
386.842987	1498.908813	9626.214844	4760.798340	40.134941
387.205994	1502.772461	9634.461914	4714.507813	39.496532
387.568909	1505.373047	9612.691406	4680.700195	39.166183
387.931793	1507.230835	9555.032227	4619.326172	38.670132
388.294678	1505.670410	9531.627930	4587.078613	38.393028
388.657471	1509.385620	9527.690430	4553.791016	37.968193
389.020294	1508.865234	9607.194336	4550.670410	37.560898
389.383057	1503.812622	9780.764648	4585.443848	37.231476
389.745819	1504.852905	10019.795898	4618.954102	36.572189
390.108521	1509.088257	10268.784180	4658.706055	35.955788
390.471191	1517.781738	10547.864258	4715.770996	35.414841
390.833801	1510.797241	10748.037109	4767.633789	35.257679
391.196442	1502.921265	10902.884766	4790.073242	34.969833
391.558960	1498.091431	10879.627930	4760.352539	34.773209
391.921509	1498.611450	10801.684570	4701.504883	34.428337
392.284027	1500.692017	10729.015625	4649.047363	34.116226
392.646484	1498.908813	10714.377930	4604.762695	33.702614
393.008911	1496.010864	10705.609375	4585.443848	33.545795
393.371307	1493.781860	10730.500977	4573.184082	33.338703
393.733673	1490.809937	10691.195313	4527.041992	33.001137
394.096008	1496.902710	10618.304688	4472.652344	32.623817
394.458344	1495.490845	10474.231445	4399.910156	32.347740
394.820587	1500.097656	10222.717773	4319.143066	32.318790
395.182831	1497.274048	10005.530273	4216.010742	31.954103
395.545013	1497.422729	9755.798828	4112.506836	31.665838
395.907196	1497.497070	9620.715820	4020.222900	31.055742
396.269287	1499.057251	9523.454102	3967.468018	30.761322
396.631409	1502.921265	9481.770508	3928.013428	30.394011
396.993469	1511.020142	9457.547852	3911.518311	30.208138
397.355530	1514.512329	9475.157227	3897.177734	29.930559
397.717499	1521.719727	9522.414063	3894.428467	29.656286
398.079468	1518.376099	9589.211914	3872.806396	29.172073
398.441376	1515.701172	9590.178711	3844.274170	28.838684
398.803284	1508.345337	9551.392578	3816.336182	28.695477
399.165131	1500.989258	9486.229492	3795.382813	28.732931
399.526978	1504.630249	9436.000000	3762.243408	28.464355
399.888763	1509.311157	9404.867188	3735.420166	28.194452
400.250519	1514.958130	9450.192383	3718.479492	27.768827
400.612244	1512.357544	9511.268555	3721.748779	27.621149
400.973938	1499.949097	9614.772461	3729.402344	27.473835
401.335602	1503.218262	9698.958008	3738.690186	27.276022
401.697205	1497.868530	9870.522461	3762.021240	27.042234
402.058807	1501.063477	10056.798828	3786.912354	26.717154
402.420349	1492.741577	10311.954102	3829.116455	26.491877
402.781860	1496.159668	10513.611328	3870.800049	26.333832
403.143341	1500.394897	10709.547852	3898.515381	26.040619
403.504822	1511.985962	10887.280273	3924.001221	25.727354
403.866241	1516.592773	11023.625977	3935.889648	25.447443
404.227631	1521.422485	11104.616211	3943.468506	25.273891
404.588959	1515.998413	11081.507813	3920.731689	25.139626
404.950287	1510.871460	11029.792969	3885.140869	24.942631
405.311554	1508.048218	10922.202148	3837.809814	24.747435
405.672821	1502.475220	10809.039063	3799.097656	24.677450
406.034027	1510.574219	10707.616211	3748.423584	24.332273
406.395203	1508.047974	10568.374023	3698.343506	24.174576
406.756348	1509.831055	10470.145508	3641.204834	23.786819
407.117493	1501.732056	10392.870117	3606.208008	23.669367
407.478516	1501.657837	10426.676758	3588.747070	23.384706
407.839600	1504.407227	10485.154297	3599.149658	23.324812
408.200592	1502.921021	10614.589844	3605.539795	23.076109
408.561554	1504.778687	10745.734375	3612.449951	22.807936
408.922485	1507.750854	10901.918945	3596.177490	22.231098
409.283417	1508.791016	10991.527344	3588.598633	21.932568
409.644257	1505.967407	11091.018555	3583.991943	21.679848
410.005096	1503.589844	11117.468750	3582.728760	21.626431
410.365906	1509.757202	11082.622070	3557.911377	21.395416
410.726715	1509.757202	11027.786133	3532.202881	21.248575
411.087433	1504.704468	10979.637695	3496.166016	21.018211
411.448120	1504.481445	10962.698242	3462.209717	20.698704
411.808807	1513.843384	10923.168945	3422.606201	20.285864
412.169434	1517.558594	10900.655273	3393.256592	19.990181
412.530029	1513.917969	10964.778320	3381.591064	19.761938
412.890564	1503.144043	11049.112305	3378.024414	19.640547
413.251099	1511.837524	11201.656250	3385.232178	19.333641
413.611572	1521.868286	11345.950195	3379.139404	18.905289
413.972076	1523.725952	11521.602539	3386.420898	18.630905
414.332489	1517.855957	11626.518555	3377.430420	18.395851
414.692871	1508.122437	11811.531250	3403.881836	18.399342
415.053223	1507.305054	11974.848633	3395.039795	18.034170
415.413574	1500.320679	12257.421875	3419.857178	17.844366
415.773834	1500.246094	12499.129883	3422.234619	17.474396
416.134094	1501.657837	12799.833008	3452.178711	17.264034
416.494263	1502.698120	13085.006836	3470.605469	16.990631
416.854462	1505.001587	13427.393555	3510.431885	16.820705
417.214630	1509.682617	13843.488281	3534.951904	16.420473
417.574738	1510.723022	14250.742188	3567.571045	16.144779
417.934784	1509.311157	14725.387695	3611.706787	15.907865
418.294861	1505.373047	15273.667969	3663.346924	15.673501
418.654846	1500.543457	15911.926758	3714.244873	15.360785
419.014832	1503.366821	16537.259766	3766.850830	15.055874
419.374756	1496.531128	17145.724609	3823.246826	14.867960
419.734680	1503.961304	17767.193359	3889.598877	14.668902
420.094543	1503.218384	18294.890625	3916.793701	14.373644
420.454376	1513.546387	18636.533203	3931.876953	14.123299
420.814148	1512.952148	18815.083984	3906.836914	13.835778
421.173920	1506.413452	18926.759766	3883.357422	13.644642
421.533691	1500.692261	18981.226563	3852.670166	13.454840
421.893341	1501.286499	18953.140625	3820.051514	13.286641
422.253021	1506.339233	18936.125000	3775.841553	13.020828
422.612640	1508.642578	18938.501953	3737.426758	12.787161
422.972260	1507.305054	18977.734375	3710.380615	12.610312
423.331757	1503.887085	19074.474609	3690.541748	12.444972
423.691315	1503.887085	19221.744141	3672.412109	12.239205
424.050781	1493.335938	19220.330078	3630.430908	12.055597
424.410248	1496.605469	19001.138672	3568.982422	11.839087
424.769653	1500.840698	18661.427734	3484.649170	11.560260
425.128998	1512.432007	18276.984375	3406.854248	11.300166
425.488373	1514.066406	17794.314453	3319.919922	11.092298
425.847656	1515.998413	17358.601563	3247.177490	10.927364
426.206940	1509.014038	16948.896484	3168.862549	10.750396
426.566193	1502.623901	16602.570313	3106.225342	10.619915
426.925385	1485.236938	16173.472656	3041.061768	10.592319
427.284576	1493.261719	15776.472656	2977.235596	10.389638
427.643677	1504.333008	15472.129883	2915.861572	10.105592
428.002777	1522.982910	15285.109375	2869.868164	9.786898
428.361847	1522.685913	15110.127930	2824.543701	9.581330
428.720856	1518.376099	14937.448242	2791.033203	9.483943
429.079865	1508.270996	14794.936523	2757.002686	9.398382
429.438812	1504.407227	14761.203125	2733.820068	9.273831
429.797760	1502.475464	14702.652344	2707.442627	9.128417
430.156616	1500.023438	14602.194336	2670.513916	8.933561
430.515503	1502.846802	14500.770508	2646.142822	8.795990
430.874268	1501.955078	14501.512695	2624.149170	8.632556
431.233093	1501.360840	14614.601563	2601.263916	8.387730
431.591827	1500.543457	14826.737305	2595.096924	8.213550
431.950562	1503.812866	15006.252930	2583.802979	7.998481
432.309204	1509.682617	15116.442383	2576.595459	7.841050
432.667877	1503.069824	15246.101563	2560.397705	7.693557
433.026459	1498.908691	15336.824219	2548.063232	7.581738
433.385010	1504.927368	15445.825195	2535.134521	7.389820
433.743561	1515.478149	15433.937500	2514.106934	7.174851
434.102051	1518.301758	15453.628906	2495.828369	7.014738
434.460510	1516.815796	15463.957031	2489.512939	6.974168
434.818939	1519.193359	15453.480469	2477.252930	6.875555
435.177338	1511.168579	15430.520508	2453.995850	6.773500
435.535675	1505.596069	15450.434570	2421.599854	6.568766
435.894012	1498.017090	15518.940430	2396.634277	6.409115
436.252289	1501.063477	15742.739258	2398.194580	6.299336
436.610535	1498.760132	15808.350586	2391.730225	6.240361
436.968719	1501.137817	16047.679688	2392.993408	6.131049
437.326935	1501.880859	16250.450195	2385.711670	5.992654
437.685028	1510.574219	16568.541016	2389.352539	5.835969
438.043152	1509.756836	16766.333984	2389.501221	5.766329
438.401215	1512.060425	17049.056641	2386.380127	5.627341
438.759277	1504.407227	17390.775391	2392.398682	5.589644
439.117249	1496.456665	17935.041016	2395.296875	5.467869
439.475250	1491.107056	18314.208984	2405.402100	5.434759
439.833130	1488.134888	18730.154297	2402.281494	5.301854
440.191071	1494.302124	18829.943359	2396.485596	5.204212
440.548889	1494.822266	18910.265625	2382.442627	5.096743
440.906708	1505.967651	18763.740234	2374.492188	5.032657
441.264496	1506.636353	18571.890625	2351.755615	4.952281
441.622223	1507.676636	18320.451172	2322.182861	4.844567
441.979950	1494.970703	18083.722656	2290.381348	4.794879
442.337616	1494.153442	17881.023438	2269.874023	4.733794
442.695251	1497.348633	17673.199219	2252.189941	4.666471
443.052887	1506.933594	17580.916016	2233.316895	4.519000
443.410461	1506.859009	17693.185547	2215.409912	4.377466
443.768005	1507.602173	17969.146484	2214.220947	4.292542
444.125458	1500.766235	18256.103516	2205.676025	4.207076
444.482941	1500.766235	18606.591797	2213.626709	4.167355
444.840393	1501.955200	19024.320313	2211.620361	4.050054
445.197754	1506.859253	19474.744141	2226.035156	4.002563
445.555084	1506.562012	19815.494141	2225.886719	3.928818
445.912415	1506.116211	20039.666016	2231.013428	3.911270
446.269714	1506.041870	20149.412109	2223.286133	3.847181
446.626953	1506.264771	20134.701172	2212.809326	3.792828
446.984161	1506.710571	19961.873047	2186.580566	3.683902
447.341309	1498.983032	19720.611328	2166.295898	3.662202
447.698456	1506.339233	19422.582031	2149.726318	3.591083
448.055542	1506.339233	19220.107422	2138.283691	3.567533
448.412598	1513.546387	18906.548828	2117.404541	3.471845
448.769653	1502.995483	18561.490234	2095.039551	3.470670
449.126617	1506.487671	18139.226563	2068.736572	3.380375
449.483582	1509.534058	17885.705078	2049.937744	3.299939
449.840515	1518.227539	17611.750000	2034.779907	3.209691
450.197388	1513.620728	17404.593750	2032.105103	3.262760
450.554230	1511.317383	17235.408203	2040.575562	3.365906
450.911041	1508.791138	17195.730469	2031.436401	3.331722
451.267822	1512.729126	17260.818359	2026.234985	3.260750
451.624573	1507.899414	17256.583984	2011.226074	3.195992
451.981262	1503.143921	17181.687500	2007.733887	3.218347
452.337921	1499.503052	16973.490234	1989.009644	3.163416
452.694580	1499.948853	16651.388672	1979.498901	3.165046
453.051147	1500.097656	16478.857422	1967.461914	3.120180
453.407715	1500.692017	16152.593750	1966.941772	3.182179
453.764221	1506.710571	16058.675781	1954.756226	3.078936
454.120728	1514.140991	15700.833008	1947.177124	3.052411
454.477142	1513.694946	15668.734375	1934.099731	2.970001
454.833557	1512.208984	15581.132813	1933.133789	2.991876
455.189911	1505.967407	15647.484375	1933.356812	3.022232
455.546265	1505.447266	15700.981445	1929.121460	2.984560
455.902557	1503.589844	15775.284180	1920.874023	2.923859
456.258820	1498.983032	16026.651367	1925.926392	2.938829
456.615051	1502.401001	16342.660156	1938.334961	2.937509
456.971252	1502.401001	16694.929688	1952.155273	2.960365
457.327393	1505.744751	17220.695313	1960.328735	2.892685
457.683502	1498.908813	17860.962891	1973.108887	2.898170
458.039612	1503.144043	18770.056641	2001.789673	2.887868
458.395630	1508.865234	19678.705078	2030.247681	2.869494
458.751648	1507.750854	20437.408203	2056.996826	2.901510
459.107605	1507.230835	21064.080078	2065.095703	2.852529
459.463562	1509.905640	21231.630859	2060.562988	2.792136
459.819458	1517.038696	21092.759766	2048.377686	2.714276
460.175323	1513.026367	20493.878906	2032.996948	2.739448
460.531158	1509.385376	19792.240234	2014.643921	2.763565
460.886932	1506.116211	19048.691406	1998.445801	2.806484
461.242676	1508.047852	18415.632813	1972.291382	2.745771
461.598419	1508.791016	17914.832031	1960.477173	2.753170
461.954102	1510.500000	17421.312500	1941.530151	2.709039
462.309723	1507.379272	16974.382813	1939.746704	2.795418
462.665344	1502.921265	16628.353516	1938.334961	2.878686
463.020905	1505.893188	16437.470703	1931.053223	2.847389
463.376373	1510.202759	16414.291016	1923.177368	2.770881
463.731873	1516.147095	16412.580078	1908.762695	2.635635
464.087341	1506.859253	16472.392578	1918.347656	2.749574
464.442749	1505.001587	16586.449219	1935.214355	2.852596
464.798126	1501.138062	16728.144531	1938.780884	2.874122
465.153503	1505.967407	16904.611328	1952.304077	2.898545
465.508820	1502.921021	17087.173828	1949.703491	2.866884
465.864105	1500.692017	17207.767578	1965.009766	2.956106
466.219330	1501.657837	17417.226563	1969.839355	2.941658
466.574524	1505.076050	17437.138672	1976.600952	2.959597
466.929657	1503.218384	17321.226563	1972.440063	2.966377
467.284790	1494.747681	17105.376953	1970.879761	3.050050
467.639893	1493.336060	16872.513672	1965.158325	3.067929
467.994934	1498.240112	16714.992188	1966.049927	3.074308
468.349945	1505.670410	16537.630859	1954.458618	2.985560
468.704926	1503.144043	16411.242188	1947.177124	2.978469
469.059875	1504.333008	16283.441406	1945.542358	2.985358
469.414764	1506.338989	16206.463867	1950.372070	3.020607
469.769653	1504.035767	16143.827148	1952.303833	3.061984
470.124451	1501.658203	16183.726563	1963.003540	3.142237
470.479248	1502.475220	16205.051758	1963.449341	3.135329
470.834015	1509.385376	16310.117188	1965.752808	3.083411
471.188721	1510.871582	16524.703125	1971.548340	3.068349
471.543365	1505.967407	16806.384766	1984.328491	3.126458
471.898010	1501.137817	17052.625000	1998.371704	3.197340
472.252625	1492.370117	17364.767578	2003.647339	3.221172
472.607178	1495.639526	17607.812500	2016.204468	3.230880
472.961700	1498.388672	17668.294922	2029.207397	3.282757
473.316193	1507.899414	17661.162109	2039.238281	3.289359
473.670654	1511.763184	17631.886719	2035.671753	3.250028
474.025055	1514.512329	17764.517578	2035.448730	3.205761
474.379456	1504.630005	17829.607422	2041.838745	3.290717
474.733795	1499.280273	17980.443359	2066.061279	3.438962
475.088104	1506.413452	18289.318359	2084.637207	3.445314
475.442383	1513.026367	18600.423828	2098.234619	3.424794
475.796570	1511.688843	18885.449219	2103.212891	3.404698
476.150787	1501.212280	19218.326172	2115.546875	3.467464
476.504944	1501.509277	19573.566406	2125.057861	3.450346
476.859070	1502.772461	19871.224609	2134.494385	3.439168
477.213135	1500.989258	20073.029297	2148.612061	3.487085
477.567200	1506.116211	20340.296875	2168.079102	3.514689
477.921173	1503.812866	20669.085938	2188.363525	3.571828
478.275146	1507.750854	20942.296875	2201.663818	3.570513
478.629089	1502.698242	21218.923828	2213.180908	3.603543
478.983002	1503.367065	21609.607422	2234.728516	3.637485
479.336823	1503.961426	22184.193359	2256.202148	3.637487
479.690643	1504.704468	22920.458984	2277.824219	3.610052
480.044403	1505.150269	23860.757813	2316.238525	3.628120
480.398163	1500.097656	25132.001953	2373.600342	3.696286
480.751862	1503.366821	26746.009766	2438.615234	3.705034
481.105499	1506.859009	28896.478516	2519.159424	3.695927
481.459137	1506.784790	32073.216797	2638.192383	3.701471
481.812744	1501.286499	36380.839844	2818.525391	3.776536
482.166290	1491.106934	41632.484375	3027.761719	3.828107
482.519806	1504.481445	46764.425781	3265.827393	3.891622
482.873291	1507.305054	50902.792969	3466.518799	3.966382
483.226715	1515.924194	53387.324219	3598.480713	4.014846
483.580139	1505.596069	54081.605469	3632.362549	4.045127
483.933502	1501.435181	53210.703125	3580.350830	4.020392
484.286804	1507.156616	50992.843750	3481.008057	3.988732
484.640106	1507.230835	48098.527344	3351.498779	3.958396
484.993347	1509.608398	45308.457031	3251.264404	3.976488
485.346558	1507.899414	43424.515625	3193.159180	4.020505
485.699738	1505.521851	42648.347656	3182.013672	4.074810
486.052887	1506.859253	42943.109375	3200.292236	4.086839
486.405975	1499.206055	43896.410156	3242.719482	4.112331
486.759064	1498.240112	44851.652344	3289.158447	4.130974
487.112061	1502.624023	45253.550781	3318.656494	4.150844
487.464996	1504.555664	44676.218750	3314.867188	4.193286
487.817963	1511.614624	43323.093750	3268.502197	4.201926
488.170868	1509.608398	41334.308594	3203.784912	4.254085
488.523743	1505.818970	39313.417969	3117.964844	4.264079
488.876587	1500.394897	37529.933594	3050.200928	4.301487
489.229401	1497.868652	36486.203125	3008.145508	4.316515
489.582153	1501.137817	36313.300781	3009.706055	4.333451
489.934845	1500.097656	37100.761719	3054.956299	4.367499
490.287537	1500.171875	38371.113281	3120.119873	4.393563
490.640198	1501.732300	39603.277344	3183.871338	4.414884
490.992798	1504.704468	40138.550781	3219.982422	4.439832
491.345337	1502.846802	39788.957031	3214.929932	4.471813
491.697876	1501.063477	38365.687500	3168.193604	4.522303
492.050354	1500.394897	36255.859375	3086.386475	4.563287
492.402832	1500.320435	33760.480469	2976.715576	4.576528
492.755219	1501.435059	31240.281250	2867.267822	4.592756
493.107605	1499.131714	28995.890625	2772.085938	4.629470
493.459930	1496.531128	27175.328125	2693.473633	4.661210
493.812225	1498.834351	25923.400391	2642.799072	4.683664
494.164490	1500.023315	25160.984375	2603.121338	4.662102
494.516724	1506.413452	24769.927734	2600.966797	4.705021
494.868896	1505.521851	24747.490234	2597.474609	4.698194
495.221039	1501.880859	24960.291016	2615.381592	4.746702
495.573120	1501.360718	25281.873047	2624.000732	4.720840
495.925201	1497.942749	25557.388672	2648.743408	4.783155
496.277222	1504.035645	25646.552734	2657.956787	4.779622
496.629211	1510.277344	25611.478516	2655.727783	4.752669
496.981140	1515.478516	25411.009766	2640.570068	4.708376
497.333069	1515.701294	25178.515625	2641.981689	4.759706
497.684967	1509.311157	24796.750000	2648.148926	4.890352
498.036804	1505.596069	24367.281250	2644.656494	4.982399
498.388580	1506.561890	23870.343750	2624.669189	4.999634
498.740326	1507.825195	23422.892578	2604.979248	5.006392
499.092072	1503.218384	22925.287109	2584.322998	5.046687
499.443756	1501.880859	22503.396484	2564.855713	5.061419
499.795410	1502.624023	22186.794922	2555.122070	5.088422
500.147003	1509.459839	21935.572266	2552.669922	5.107237
500.498566	1508.048218	21675.216797	2550.738037	5.170234
500.850098	1501.286621	21427.494141	2540.410400	5.214860
501.201599	1501.137817	21303.259766	2529.487793	5.193130
501.553009	1505.001587	21280.894531	2527.853027	5.172214
501.904449	1505.967407	21272.423828	2528.075928	5.170924
502.255859	1504.481567	21328.226563	2541.970459	5.233567
502.607178	1500.617798	21414.789063	2546.948730	5.254202
502.958405	1506.561890	21510.638672	2556.682617	5.249534
503.309692	1507.899414	21560.419922	2557.053955	5.232034
503.660919	1507.379395	21600.394531	2553.561768	5.206697
504.012115	1500.543457	21662.882813	2556.162354	5.235597
504.363251	1489.695313	21626.771484	2559.877441	5.314486
504.714294	1490.438354	21551.654297	2566.638916	5.364583
505.065369	1496.159546	21457.882813	2578.750244	5.423333
505.416443	1511.391602	21341.080078	2578.824463	5.383004
505.767395	1513.843628	21268.115234	2580.905029	5.401674
506.118317	1512.506226	21208.224609	2576.818359	5.403774
506.469238	1504.555786	21386.849609	2589.895508	5.458826
506.820160	1495.713867	21547.417969	2591.381592	5.464213
507.170929	1502.772583	21781.916016	2599.703613	5.409159
507.521729	1502.846802	21943.376953	2605.573730	5.394806
507.872498	1497.348633	22183.896484	2636.037842	5.504491
508.223236	1489.695313	22401.007813	2647.331543	5.535933
508.573883	1492.964478	22659.505859	2662.712158	5.526400
508.924500	1505.001587	22940.521484	2669.399414	5.432095
509.275116	1498.537109	23134.447266	2693.845215	5.524649
509.625702	1491.626953	23294.125000	2703.133057	5.556731
509.976196	1489.323730	23369.396484	2709.671631	5.577440
510.326660	1498.091431	23496.750000	2724.606445	5.575408
510.677124	1512.208984	23660.585938	2746.525635	5.572944
511.027557	1515.849731	23807.037109	2761.980469	5.590240
511.377869	1511.465942	24004.164063	2764.061279	5.568898
511.728180	1508.493774	24051.568359	2766.884766	5.582162
512.078430	1507.527832	24060.412109	2776.246826	5.625529
512.428650	1513.769165	23931.791016	2779.367920	5.645452
512.778931	1511.243164	23775.681641	2776.543945	5.683057
513.129028	1509.608398	23635.623047	2777.733154	5.731374
513.479126	1506.338989	23502.992188	2770.599609	5.747514
513.829285	1500.543457	23415.240234	2773.274658	5.807661
514.179382	1499.949097	23232.529297	2763.095459	5.812224
514.529297	1499.206055	23149.384766	2763.615479	5.840180
514.879272	1504.407227	23202.212891	2758.711670	5.780790
515.229187	1504.481445	23403.421875	2767.850830	5.769089
515.579163	1501.435181	23809.634766	2807.528320	5.854767
515.928955	1501.212280	24323.367188	2849.583984	5.908170
516.278748	1500.320435	25030.134766	2897.137451	5.936371
516.628540	1497.868530	25846.646484	2928.567383	5.875855
516.978333	1502.475220	26767.185547	2974.932373	5.828118
517.327942	1505.075806	27664.166016	3019.439453	5.789053
517.677612	1510.871582	28338.759766	3056.665283	5.761891
518.027222	1500.023438	28700.390625	3085.940674	5.830499
518.376831	1496.605469	28775.662109	3097.457764	5.868430
518.726379	1493.856323	28565.681641	3090.844482	5.899078
519.075867	1497.645508	28093.041016	3059.488525	5.872607
519.425293	1500.023315	27480.640625	3031.922607	5.896316
519.774658	1499.874878	26763.767578	2998.634766	5.932419
520.124084	1493.484741	26145.494141	2964.009766	5.965132
520.473389	1491.255737	25588.962891	2924.852295	5.949100
520.822693	1494.970703	25244.275391	2898.846436	5.911229
521.171997	1506.636353	25048.337891	2898.846436	5.913804
521.521240	1514.066772	25052.947266	2910.214844	5.931242
521.870361	1516.295776	25211.062500	2919.280029	5.921072
522.219482	1509.682617	25439.468750	2924.852295	5.913842
522.568604	1511.391602	25725.458984	2943.799805	5.915604
522.917664	1513.174927	26128.998047	2976.343994	5.944019
523.266724	1517.707520	26776.695313	3017.061768	5.935924
523.615662	1517.781616	27680.513672	3065.656250	5.916334
523.964600	1509.459595	28791.710938	3133.642822	5.953259
524.313538	1509.979858	30043.341797	3208.540039	5.952892
524.662354	1500.989258	31299.279297	3284.106201	5.983957
525.011169	1505.596069	32480.541016	3354.098877	5.967735
525.359985	1499.949219	33630.082031	3432.116943	6.013569
525.708740	1505.150269	34923.464844	3511.249268	6.002993
526.057434	1503.664185	36525.214844	3608.140381	6.009089
526.406067	1503.812866	38637.636719	3727.990234	5.989626
526.754700	1491.106934	41484.992188	3892.645264	6.004764
527.103333	1490.884155	44862.050781	4099.949707	6.015668
527.451782	1495.119141	48346.769531	4334.969238	6.061367
527.800293	1504.927368	51010.156250	4537.815918	6.126400
528.148743	1508.419556	52391.292969	4662.792969	6.199283
528.497131	1505.298828	52212.667969	4665.021973	6.231290
528.845642	1504.035767	50577.191406	4534.620605	6.175647
529.193909	1504.407227	47932.531250	4323.897949	6.072808
529.542175	1508.048218	44546.562500	4086.500977	5.991035
529.890503	1509.979980	41197.886719	3870.874268	5.948649
530.238770	1505.818970	38283.066406	3703.024658	5.974361
530.586914	1504.184448	36294.355469	3580.202393	5.967255
530.934998	1500.766602	35199.875000	3530.642578	6.023530
531.283142	1496.679810	35057.882813	3531.385498	6.062672
531.631226	1497.497070	35661.148438	3581.093750	6.098870
531.979248	1502.772583	36920.207031	3646.183350	6.051852
532.327148	1508.122192	38208.316406	3718.777100	6.023551
532.675110	1503.961304	39097.792969	3760.832275	6.003302
533.023071	1501.211914	39136.507813	3774.281250	6.039727
533.370850	1498.983032	38232.167969	3723.606689	6.056169
533.718689	1504.109863	36863.214844	3647.223389	6.060995
534.066467	1501.880859	35244.382813	3540.747803	6.042430
534.414246	1503.069824	33855.964844	3464.661865	6.063111
534.761963	1503.812866	32801.531250	3394.594482	6.041276
535.109619	1507.156372	32285.349609	3373.417969	6.063584
535.457153	1505.893188	32160.521484	3357.071045	6.038820
535.804749	1504.555664	32158.812500	3375.052734	6.101916
536.152344	1506.338989	31945.859375	3352.464600	6.064898
536.499817	1508.196655	31529.541016	3320.068604	6.035279
536.847229	1503.218384	30896.929688	3258.843018	5.972790
537.194641	1502.921265	30144.541016	3206.756836	5.948810
537.542114	1497.719849	29359.828125	3156.156982	5.952303
537.889404	1500.840698	28675.796875	3121.606201	5.964188
538.236694	1498.091431	28346.041016	3111.872314	6.010816
538.583984	1505.521851	28616.060547	3127.624268	5.983291
538.931213	1509.459839	29440.521484	3183.871826	5.994802
539.278381	1511.094360	30883.406250	3278.236328	6.016353
539.625488	1506.116089	32739.708984	3394.965576	6.047493
539.972595	1507.304810	35216.816406	3537.404053	6.022334
540.319641	1511.911621	37516.554688	3674.789795	6.007220
540.666687	1516.369751	39305.542969	3779.928467	5.989966
541.013611	1517.335815	40171.988281	3843.010986	6.016547
541.360596	1508.270874	40183.730469	3848.212158	6.050197
541.707458	1506.933472	39388.089844	3801.475586	6.057212
542.054260	1497.125610	37923.734375	3705.328125	6.062059
542.401062	1503.069702	36270.875000	3592.164795	6.008706
542.747864	1500.320679	34529.960938	3475.509521	5.980050
543.094666	1500.692017	32841.875000	3377.132813	5.987141
543.441284	1495.193726	31213.306641	3276.898438	5.995349
543.787903	1498.983032	29827.414063	3202.893311	6.014842
544.134460	1501.063477	28615.611328	3117.593750	5.961856
544.481079	1502.326660	27791.076172	3081.854248	6.008379
544.827637	1496.679688	27275.193359	3056.368164	6.050343
545.174072	1501.806641	27046.935547	3044.479736	6.039011
545.520508	1506.190430	26943.060547	3014.758789	5.930636
545.866943	1516.592773	26801.585938	3007.699951	5.897202
546.213318	1510.797241	26728.919922	2999.377930	5.902821
546.559631	1509.979858	26491.076172	2986.152100	5.909157
546.905823	1498.908691	26032.181641	2952.047119	5.923133
547.252136	1497.422852	25249.849609	2903.899170	5.921401
547.598389	1496.902710	24289.560547	2855.156250	5.959171
547.944458	1497.794312	23341.976563	2789.472656	5.913146
548.290588	1498.388672	22396.251953	2731.219482	5.899315
548.636658	1494.004883	21584.419922	2675.715088	5.881960
548.982727	1491.552734	20921.863281	2651.492432	5.969743
549.328735	1495.416626	20439.564453	2626.526855	5.970763
549.674622	1497.794312	20016.259766	2608.470947	5.997671
550.020569	1500.692017	19736.138672	2592.050293	5.984818
550.366455	1499.874634	19537.751953	2589.895508	6.042955
550.712280	1510.054199	19522.818359	2589.226807	5.991155
551.058044	1514.586548	19582.482422	2583.134033	5.914067
551.403748	1511.911743	19731.162109	2572.211670	5.819668
551.749512	1499.354614	19890.986328	2583.134033	5.892786
552.095154	1489.843872	19997.685547	2590.564453	5.947320
552.440735	1491.255493	20040.707031	2606.762451	6.013692
552.786316	1494.747925	19956.820313	2598.217529	5.976954
553.131897	1500.394897	19757.615234	2586.923584	5.951227
553.477417	1502.698242	19453.121094	2579.195801	5.997060
553.822815	1500.766235	19111.105469	2564.484131	6.040303
554.168213	1503.367065	18824.818359	2548.063232	6.031228
554.513672	1498.834473	18542.244141	2516.781738	5.972673
554.859009	1499.428833	18272.822266	2499.320557	5.961178
555.204285	1493.707642	18000.576172	2486.392090	6.013766
555.549500	1497.794312	17793.345703	2473.983398	5.990525
555.894714	1494.153687	17647.716797	2475.618164	6.075839
556.239990	1494.822266	17548.074219	2475.915039	6.111489
556.585022	1494.970703	17461.583984	2479.779053	6.167922
556.930115	1502.772461	17403.851563	2459.123047	6.014375
557.275146	1503.589844	17310.304688	2439.729736	5.922419
557.620178	1503.441284	17250.416016	2421.376953	5.829283
557.965149	1505.298828	17116.449219	2420.262451	5.860962
558.310059	1507.973633	17044.599609	2405.401855	5.776210
558.654968	1509.459839	16914.716797	2402.726807	5.798456
558.999756	1501.509399	16929.429688	2388.163818	5.747077
559.344604	1497.942749	16972.748047	2390.169678	5.765675
559.689331	1496.456909	17064.662109	2389.129639	5.733948
560.033997	1496.531250	17087.695313	2403.395752	5.816528
560.378723	1504.630249	17157.462891	2418.033447	5.835386
560.723389	1505.075806	17187.109375	2423.308838	5.855319
561.067932	1511.911743	17235.630859	2420.410889	5.777890
561.412476	1507.379272	17189.486328	2409.265381	5.751052
561.757019	1505.596069	17139.037109	2409.711670	5.783216
562.101501	1498.685913	17112.808594	2404.658936	5.802267
562.445862	1502.995483	17036.500000	2406.367920	5.815638
562.790222	1504.630249	16979.359375	2395.370850	5.756098
563.134644	1510.797241	16913.380859	2394.702393	5.738681
563.478943	1506.413452	16993.626953	2392.621826	5.722194
563.823181	1504.555786	17155.679688	2398.937744	5.714490
564.167358	1505.521851	17420.865234	2404.584717	5.649032
564.511536	1502.847046	17685.085938	2425.835205	5.703711
564.855774	1503.367065	18019.673828	2453.401611	5.752100
565.199768	1499.131836	18343.558594	2476.806885	5.804146
565.543823	1500.246216	18646.267578	2486.689209	5.753189
565.887817	1500.023438	18831.429688	2497.537354	5.755528
566.231812	1496.679688	18821.548828	2495.382568	5.764562
566.575745	1497.348267	18723.246094	2490.775879	5.767058
566.919617	1507.082153	18543.431641	2479.407471	5.707357
567.263428	1509.534180	18291.101563	2461.797852	5.674462
567.607239	1516.221313	18019.599609	2453.847412	5.681419
567.950989	1508.567993	17759.464844	2434.751709	5.699278
568.294678	1512.952026	17659.527344	2440.027100	5.741621
568.638367	1509.682617	17602.537109	2427.469971	5.703074
568.981995	1509.682739	17622.302734	2421.896973	5.661489
569.325623	1512.134766	17664.656250	2406.144775	5.534801
569.669128	1508.196655	17789.333984	2411.123047	5.545843
570.012573	1505.596069	17975.091797	2428.956055	5.606486
570.356140	1500.915039	18270.742188	2447.160156	5.642545
570.699524	1508.419556	18549.228516	2460.385986	5.586392
571.042908	1507.527954	18875.566406	2469.005127	5.535900
571.386230	1498.611694	19083.763672	2479.481689	5.577830
571.729492	1494.896484	19202.720703	2481.636719	5.572340
572.072815	1494.673462	19150.560547	2479.259033	5.576529
572.416016	1503.292603	19031.677734	2461.203369	5.464912
572.759094	1501.435059	18829.054688	2452.361328	5.487922
573.102234	1496.159546	18599.310547	2433.191162	5.478708
573.445374	1494.227905	18369.789063	2440.844482	5.609394
573.788391	1500.543457	18227.869141	2430.665039	5.560492
574.131409	1512.134766	18152.601563	2429.401855	5.512268
574.474365	1513.026367	18085.654297	2413.500732	5.433504
574.817261	1506.487671	18013.134766	2416.250000	5.511491
575.160156	1499.428833	17896.033203	2399.829346	5.491385
575.502930	1503.664063	17685.013672	2387.420898	5.461577
575.845703	1504.853027	17446.875000	2359.482910	5.360863
576.188477	1510.945801	17129.080078	2348.486084	5.362614
576.531250	1505.373047	16816.861328	2332.362549	5.401104
576.873901	1502.772461	16476.255859	2312.969482	5.410879
577.216431	1501.658081	16159.281250	2291.273193	5.387061
577.559082	1500.097656	15817.414063	2273.885986	5.404562
577.901611	1500.989380	15536.253906	2265.564209	5.447527
578.244080	1500.394897	15233.766602	2249.960693	5.457988
578.586487	1505.373047	15005.731445	2233.911377	5.396437
578.928955	1515.032593	14706.886719	2222.096924	5.359856
579.271301	1514.512329	14526.405273	2218.084717	5.407149
579.613647	1520.159546	14354.468750	2207.310791	5.354018
579.955872	1509.608398	14321.551758	2189.849854	5.309433
580.298157	1508.642456	14227.484375	2173.131836	5.224449
580.640320	1506.487671	14134.531250	2167.187500	5.232005
580.982483	1515.849731	13988.750000	2170.010986	5.244660
581.324524	1519.119141	13941.715820	2166.518799	5.211468
581.666626	1517.633179	13896.985352	2157.156494	5.166048
582.008728	1517.038696	13875.585938	2146.159912	5.090576
582.350647	1513.546509	13796.454102	2144.153564	5.134021
582.692566	1507.899536	13757.296875	2144.153564	5.194166
583.034424	1499.651978	13681.805664	2142.519043	5.277122
583.376343	1500.246460	13630.684570	2137.540771	5.253679
583.718201	1499.503296	13583.726563	2132.116699	5.235035
584.059937	1507.156372	13519.305664	2135.534668	5.231189
584.401611	1508.047974	13472.718750	2125.132324	5.157554
584.743347	1515.552734	13430.069336	2125.281006	5.117524
585.085022	1505.596069	13417.809570	2111.534668	5.086700
585.426514	1511.317383	13337.487305	2116.958740	5.121196
585.768127	1507.602173	13319.653320	2118.519287	5.171982
586.109619	1520.085083	13356.805664	2122.531494	5.089640
586.451172	1510.797241	13445.448242	2120.525635	5.108891
586.792542	1505.596069	13482.600586	2121.343018	5.141076
587.133850	1496.605469	13461.647461	2120.822998	5.217011
587.475220	1499.206055	13502.440430	2121.714111	5.186169
587.816589	1499.205933	13551.924805	2108.711182	5.056994
588.157776	1499.577515	13660.703125	2101.949463	4.953258
588.498962	1494.153320	13732.925781	2105.293213	4.993474
588.840210	1499.800293	13845.049805	2121.565430	5.036473
589.181335	1501.657837	13935.773438	2133.825439	5.084138
589.522400	1509.014038	13950.187500	2141.404541	5.083045
589.863403	1510.574341	13903.153320	2133.677002	5.028030
590.204407	1503.812866	13830.188477	2131.447998	5.091806
590.545410	1502.921265	13801.358398	2122.903076	5.041143
590.886353	1499.726074	13723.414063	2120.451172	5.078051
591.227112	1503.069702	13598.809570	2105.070557	4.976966
591.567932	1500.840698	13495.604492	2091.770264	4.926563
591.908752	1498.314453	13425.536133	2089.986816	4.960689
592.249512	1504.109985	13458.600586	2094.519287	4.938808
592.590149	1505.744629	13465.956055	2098.160156	4.953220
592.930786	1512.431763	13572.953125	2085.305664	4.749993
593.271423	1515.181030	13634.104492	2088.203613	4.728329
593.612000	1518.524780	13778.473633	2090.358643	4.664243
593.952576	1516.964355	13903.450195	2107.522461	4.767761
594.292969	1506.190430	14092.773438	2118.296143	4.863160
594.633484	1502.846680	14269.836914	2124.612061	4.870101
594.973877	1500.989258	14482.640625	2133.973877	4.875995
595.314209	1500.469116	14740.098633	2142.370361	4.848332
595.654480	1502.252441	15075.575195	2163.620850	4.872561
595.994812	1502.772461	15408.971680	2178.778564	4.861185
596.335022	1505.818970	15660.190430	2191.707275	4.845770
596.675171	1496.902466	15718.221680	2198.989014	4.936860
597.015320	1492.815918	15616.203125	2189.998291	4.936368
597.355408	1491.552734	15322.335938	2171.348389	4.915092
597.695496	1494.822144	14911.738281	2139.918457	4.808082
598.035461	1491.998657	14399.940430	2120.302490	4.867576
598.375366	1491.775757	13953.604492	2094.742432	4.838509
598.715271	1494.004883	13574.958008	2086.197510	4.901870
599.055176	1498.983032	13253.526367	2070.073730	4.858468
599.395081	1490.289673	12994.059570	2065.689941	5.001841
599.734802	1487.763306	12777.616211	2053.578857	5.011718
600.074524	1488.952148	12673.442383	2050.235107	5.018404
600.414246	1497.645630	12584.055664	2045.702637	4.943503
600.753906	1505.373169	12603.375000	2044.067871	4.853979
601.093506	1502.995483	12654.198242	2044.810913	4.858807
601.433044	1508.568237	12835.422852	2049.714844	4.777554
601.772583	1501.509399	13074.379883	2050.903564	4.747260
602.112122	1505.893188	13383.554688	2064.352539	4.701762
602.451538	1507.973633	13751.426758	2070.445313	4.594061
602.790894	1513.694946	14125.393555	2084.637207	4.527085
603.130310	1510.054199	14560.137695	2095.262451	4.484325
603.469604	1507.305054	14941.831055	2118.073242	4.546257
603.808838	1499.577515	15291.871094	2135.237305	4.608804
604.148010	1502.178101	15509.132813	2144.673584	4.586975
604.487305	1499.429077	15551.411133	2145.119629	4.595014
604.826416	1504.853027	15435.721680	2139.323975	4.554425
605.165527	1498.314453	15136.132813	2122.308594	4.575469
605.504456	1502.623901	14734.452148	2098.011719	4.499664
605.843445	1508.493774	14285.218750	2084.934326	4.511646
606.182434	1504.481567	13862.881836	2072.748535	4.598224
606.521423	1506.190552	13521.238281	2060.785889	4.615839
606.860229	1504.407227	13156.187500	2034.705688	4.551223
607.199036	1512.060425	12981.502930	2018.805054	4.418215
607.537903	1506.190430	12931.868164	2015.386841	4.456597
607.876648	1505.150269	13094.218750	2019.325195	4.436724
608.215271	1510.797241	13289.114258	2026.012329	4.374267
608.553955	1510.500000	13529.335938	2035.671875	4.369574
608.892578	1510.871460	13684.035156	2047.337280	4.406955
609.231140	1502.772461	13749.200195	2053.132813	4.494048
609.569641	1499.131714	13679.726563	2041.987427	4.456726
609.908081	1491.552734	13507.416992	2032.625366	4.502985
610.246521	1495.119263	13293.276367	2013.826660	4.396512
610.584961	1504.035645	13037.377930	2008.848267	4.376985
610.923340	1505.744629	12819.225586	1988.638062	4.268301
611.261597	1502.475220	12535.018555	1975.189087	4.284723
611.599854	1497.422729	12267.379883	1956.093384	4.258798
611.938110	1500.394897	12033.622070	1948.440308	4.253638
612.276245	1501.212280	11833.749023	1929.864624	4.148568
612.614319	1503.664185	11651.335938	1922.434204	4.126760
612.952393	1500.840698	11479.398438	1916.192871	4.162447
613.290466	1502.846680	11341.791992	1923.028687	4.270600
613.628479	1503.738403	11211.909180	1908.762573	4.171993
613.966370	1511.391602	11103.723633	1903.858765	4.091468
614.304260	1520.976685	11023.848633	1897.468750	3.961877
614.642151	1512.877808	10944.121094	1895.016602	4.051839
614.979980	1505.224609	10881.484375	1897.691406	4.185750
615.317749	1502.178101	10788.532227	1898.657593	4.269485
615.655396	1511.243164	10769.436523	1904.527344	4.247958
615.993164	1513.917969	10742.909180	1892.861694	4.106015
616.330811	1504.184204	10731.838867	1898.062866	4.268459
616.668396	1498.091431	10700.929688	1899.771973	4.364747
617.005859	1499.874634	10692.905273	1907.796509	4.437295
617.343445	1508.716797	10693.945313	1895.833984	4.214562
617.680908	1514.066772	10716.383789	1898.657593	4.179282
618.018311	1518.078979	10718.166992	1886.546265	4.005041
618.355652	1513.992188	10730.427734	1890.558594	4.085814
618.692993	1514.215210	10661.995117	1883.053833	4.032001
619.030273	1512.431763	10619.568359	1884.985718	4.090791
619.367554	1516.444214	10553.586914	1875.697876	3.975302
619.704712	1516.444214	10550.019531	1871.016968	3.925055
620.041870	1508.345215	10501.946289	1867.524780	3.993723
620.379028	1508.568237	10467.618164	1858.311035	3.903793
620.716064	1502.995483	10412.559570	1849.469116	3.888783
621.053040	1508.716797	10387.891602	1847.462891	3.815063
621.389954	1503.069824	10340.114258	1858.459595	4.021591
621.726929	1504.481567	10306.901367	1861.283203	4.053449
622.063843	1495.639526	10298.430664	1860.985840	4.150346
622.400635	1493.410278	10332.536133	1855.933228	4.101344
622.737427	1492.890259	10364.337891	1861.283081	4.152567
623.074219	1502.029419	10359.360352	1864.775391	4.095432
623.410889	1504.407227	10353.043945	1862.546387	4.047394
623.747559	1502.921265	10382.690430	1852.738281	3.939483
624.084167	1505.150269	10464.794922	1848.948853	3.837190
624.420715	1512.432007	10603.592773	1850.806519	3.722016
624.757324	1514.512329	10729.015625	1859.648438	3.745575
625.093750	1511.243042	10856.518555	1867.970337	3.817194
625.430176	1507.379272	11023.328125	1872.577148	3.837745
625.766602	1506.784790	11204.776367	1880.156128	3.849986
626.102905	1505.893188	11399.077148	1885.654663	3.838618
626.439209	1506.562012	11497.899414	1890.558594	3.843295
626.775452	1514.215210	11575.843750	1893.159058	3.766228
627.111694	1511.985962	11616.190430	1890.112671	3.742271
627.447876	1503.143921	11573.614258	1891.524414	3.856627
627.783997	1497.868530	11467.585938	1889.741211	3.930630
628.120056	1500.692017	11307.684570	1890.632690	3.976150
628.456055	1503.812866	11105.432617	1880.601929	3.924224
628.792053	1506.339233	10905.039063	1868.861938	3.857158
629.128052	1494.896484	10708.657227	1848.503052	3.837809
629.463928	1498.537109	10584.868164	1842.261719	3.782876
629.799744	1497.719849	10470.813477	1841.815918	3.834754
630.135559	1512.951782	10376.375000	1847.240112	3.771549
630.471375	1510.276978	10267.447266	1844.713745	3.819005
630.807068	1515.032593	10184.970703	1838.769531	3.734017
631.142700	1506.710571	10088.600586	1817.518921	3.621677
631.478333	1507.676392	10035.325195	1816.330078	3.619447
631.813965	1499.280273	9990.223633	1813.283569	3.698097
632.149475	1502.698242	9976.254883	1831.859253	3.884567
632.484924	1503.441284	10006.273438	1827.029663	3.805654
632.820435	1500.171997	10035.176758	1827.326782	3.833094
633.155884	1496.233887	10061.035156	1829.184570	3.887431
633.491150	1493.113281	10059.770508	1834.980103	3.990668
633.826477	1499.800415	10045.950195	1831.785156	3.884612
634.161804	1506.636353	10034.135742	1824.651978	3.729295
634.497009	1513.472046	9970.235352	1815.141235	3.567194
634.832153	1512.357422	9864.725586	1810.162964	3.565522
635.167297	1509.608398	9735.290039	1802.881226	3.565332
635.502380	1501.583618	9609.497070	1798.348633	3.660190
635.837463	1502.326782	9510.079102	1792.404419	3.622460
636.172424	1495.788086	9419.875977	1789.135132	3.701966
636.507324	1499.874634	9333.758789	1784.974243	3.639313
636.842224	1495.267944	9258.491211	1786.831909	3.755708
637.177124	1501.286499	9173.786133	1783.636841	3.680031
637.511963	1497.794312	9131.135742	1787.723511	3.798195
637.846741	1496.085327	9051.186523	1787.797729	3.861132
638.181396	1493.633301	8965.291992	1784.454102	3.892319
638.516113	1507.082031	8861.043945	1780.664673	3.720207
638.850769	1511.837402	8803.832031	1773.457153	3.587767
639.185303	1511.391602	8761.479492	1772.862915	3.606457
639.519836	1501.286499	8725.219727	1770.113647	3.721340
639.854370	1497.571289	8697.208008	1763.203491	3.689522
640.188843	1502.772461	8648.985352	1764.763794	3.666156
640.523254	1499.577515	8629.518555	1773.160156	3.837095
640.857605	1499.949097	8572.603516	1776.801147	3.914401
641.191895	1494.747925	8522.597656	1776.355103	4.007018
641.526184	1501.286499	8470.659180	1757.407837	3.674955
641.860413	1503.218262	8411.811523	1748.417358	3.549190
642.194580	1504.407227	8376.516602	1736.826172	3.382061
642.528748	1503.812866	8324.952148	1745.445313	3.542406
642.862793	1503.664185	8324.283203	1756.070679	3.700639
643.196838	1504.035645	8313.434570	1760.825806	3.771113
643.530823	1506.413452	8290.325195	1755.104614	3.665896
643.864746	1504.853027	8249.236328	1751.612305	3.658737
644.198669	1503.441284	8210.525391	1750.051880	3.676867
644.532532	1494.599243	8159.775879	1753.172485	3.879466
644.866333	1499.205933	8133.027344	1758.002319	3.901166
645.200073	1500.097656	8129.089355	1758.819824	3.902889
645.533813	1506.041870	8166.463379	1763.500854	3.865506
645.867554	1510.500000	8185.856934	1759.116821	3.724397
646.201172	1515.478394	8206.958008	1762.088867	3.685440
646.534729	1517.484497	8213.422852	1753.395630	3.523197
646.868225	1508.716797	8247.825195	1761.494629	3.750909
647.201782	1502.029663	8247.528320	1765.432739	3.904872
647.535217	1496.159668	8268.110352	1768.553345	4.022381
647.868591	1500.543579	8226.425781	1757.408081	3.819046
648.201965	1501.658081	8176.197266	1753.544312	3.773837
648.535278	1505.076050	8108.210938	1744.553589	3.626725
648.868591	1501.658081	8105.089844	1740.095337	3.610808
649.201782	1499.057251	8123.591797	1738.312134	3.611648
649.534912	1501.583618	8149.968750	1744.107788	3.647866
649.868103	1498.462891	8154.500000	1743.364746	3.679394
650.201172	1506.190430	8164.902344	1746.039673	3.602037
650.534180	1502.029663	8190.313965	1747.822876	3.674982
650.867188	1511.763184	8209.410156	1751.686646	3.582205
651.200134	1509.162598	8225.682617	1744.850708	3.509081
651.533020	1503.292603	8192.246094	1734.597046	3.458006
651.865845	1504.109985	8138.154297	1736.008789	3.495587
652.198608	1500.766235	8104.569824	1734.745605	3.543100
652.531433	1509.088257	8066.080566	1736.528931	3.468674
652.864136	1502.178223	8034.501953	1730.287476	3.492008
653.196777	1605.161621	8076.631348	1895.016602	4.478967
653.529358	1611.848999	8030.638184	1907.350952	4.603703
653.861938	1610.065796	7965.177246	1910.991577	4.735177
654.194519	1507.899414	7818.578125	1748.937500	3.819527
654.526978	1502.326782	7777.042969	1740.392578	3.794049
654.859375	1504.630249	7734.244629	1733.408081	3.672424
655.191833	1505.001587	7717.303223	1733.259399	3.674287
655.524170	1503.589844	7727.482910	1731.550415	3.662668
655.856445	1500.692017	7763.743652	1734.076782	3.726375
656.188660	1503.069702	7798.070313	1735.562988	3.693300
656.520874	1491.998657	7815.903809	1739.946899	3.920809
656.853088	1489.769531	7898.825684	1750.200562	4.063485
657.185181	1484.791382	7950.614746	1748.417358	4.077222
657.517212	1495.044922	8054.861328	1752.206665	3.920258
657.849243	1500.469116	8177.386230	1757.185059	3.844827
658.181274	1505.373047	8372.133789	1766.992798	3.809944
658.513123	1501.880859	8583.450195	1775.091919	3.858058
658.844971	1499.354614	8752.042969	1779.252930	3.859235
659.176819	1495.267944	8868.104492	1789.804077	3.994882
659.508667	1497.199829	8924.648438	1798.942993	4.062541
659.840393	1496.234009	8879.249023	1798.422852	4.093028
660.172058	1498.983032	8765.491211	1792.181641	4.034931
660.503662	1504.332886	8633.307617	1784.231079	3.926205
660.835266	1506.264648	8511.154297	1787.649048	4.016971
661.166931	1507.602173	8326.066406	1772.937134	3.891418
661.498413	1504.778687	8133.175781	1766.621460	3.950318
661.829773	1504.630249	7935.308105	1755.401855	3.899614
662.161194	1497.942871	7808.473145	1761.717407	4.179911
662.492615	1497.051147	7665.736816	1755.327515	4.186895
662.823975	1508.716797	7542.542969	1747.971558	3.965225
663.155212	1511.540161	7424.550293	1739.055176	3.847702
663.486450	1511.391602	7347.795410	1735.414429	3.838371
663.817627	1501.137817	7291.177734	1734.299805	4.026949
664.148743	1510.500000	7252.540527	1735.117188	3.911801
664.479858	1510.054199	7175.041504	1734.225586	3.957138
664.810913	1513.843750	7145.692871	1732.145020	3.876192
665.141907	1508.493774	7109.209473	1732.145020	3.993262
665.472778	1510.871460	7106.683594	1737.494995	4.049878
665.803711	1510.797241	7092.937500	1739.575317	4.098393
666.134583	1502.846802	7102.522949	1738.980835	4.216923
666.465454	1502.252319	7101.407715	1736.157349	4.177505
666.796143	1500.023438	7087.736328	1735.562988	4.215312
667.126831	1509.088379	7070.126953	1736.306030	4.085885
667.457458	1507.082031	7065.223145	1735.042847	4.101386
667.788147	1509.608398	7062.622559	1741.878540	4.182776
668.118774	1514.586792	7081.049316	1740.764038	4.063213
668.449219	1512.060547	7095.613281	1751.909546	4.295634
668.779663	1507.305054	7112.701660	1744.256348	4.227200
669.110107	1494.079102	7098.139160	1751.240845	4.588847
669.440552	1499.503296	7092.937500	1751.463867	4.504578
669.770874	1499.428833	7057.940918	1754.361450	4.586346
670.101135	1509.905640	7014.622559	1750.572266	4.372007
670.431396	1500.394897	6956.666504	1743.439087	4.454401
670.761597	1498.611694	6901.459473	1741.135620	4.488817
671.091797	1497.794312	6869.583984	1743.587524	4.575630
671.421875	1501.509399	6819.949707	1737.643555	4.439914
671.751892	1502.475220	6796.247559	1741.953125	4.523767
672.081909	1508.047852	6771.132813	1751.612305	4.627789
672.411865	1508.791016	6760.210449	1755.699097	4.701740
672.741821	1511.837402	6730.786621	1749.606323	4.555877
673.071716	1502.846802	6712.136230	1736.083130	4.477315
673.401550	1504.035645	6689.027832	1732.665161	4.409448
673.731262	1501.732300	6675.802246	1733.928345	4.487687
674.060974	1500.097656	6635.753906	1744.850952	4.765765
674.390625	1500.320679	6601.945801	1752.429688	4.941740
674.720276	1500.692017	6565.760254	1762.163452	5.162249
675.049927	1508.270874	6531.134766	1760.380005	5.019231
675.379395	1509.608398	6490.937012	1757.259277	4.971583
675.708923	1510.945801	6456.162598	1755.624634	4.947788
676.038330	1505.001587	6441.228516	1749.011719	4.943252
676.367737	1498.834473	6425.996582	1749.977661	5.097116
676.697083	1496.753906	6428.300293	1757.853882	5.294485
677.026428	1496.085449	6452.522949	1758.002319	5.284378
677.355652	1500.023315	6498.589844	1766.473022	5.330523
677.684875	1504.927368	6548.150391	1771.153931	5.278897
678.013977	1508.047974	6566.279785	1784.751343	5.470357
678.343079	1512.432007	6602.093750	1786.014282	5.375255
678.672180	1506.710571	6662.650879	1780.738892	5.314808
679.001221	1509.534180	6747.058594	1783.636841	5.233439
679.330139	1503.292603	6843.875000	1785.940308	5.292451
679.659058	1507.082031	6935.416016	1793.519165	5.276704
679.987976	1503.218262	7042.411621	1793.370605	5.238170
680.316772	1505.150269	7088.107910	1797.828613	5.242353
680.645630	1510.648560	7090.039551	1797.159790	5.135170
680.974304	1510.054199	7038.102051	1798.051636	5.209749
681.302979	1506.933472	7012.839355	1797.828491	5.283327
681.631653	1502.772461	6990.251465	1806.076172	5.527196
681.960266	1501.806519	6963.947754	1809.939819	5.641255
682.288757	1508.419556	6903.985840	1815.512695	5.691583
682.617249	1503.887085	6823.516113	1802.063843	5.605217
682.945679	1502.624023	6735.021973	1794.930786	5.586478
683.274109	1507.305054	6641.846191	1790.918457	5.523637
683.602478	1510.648560	6530.689453	1799.166016	5.747313
683.930725	1518.821899	6424.361816	1802.509766	5.783010
684.259033	1513.992188	6328.957520	1791.513062	5.763715
684.587280	1511.243164	6272.264160	1787.723633	5.807168
684.915344	1507.230835	6222.036621	1786.088867	5.914518
685.243469	1508.196655	6186.964844	1791.810059	6.061711
685.571533	1514.363770	6140.228516	1791.958618	6.000929
685.899536	1507.305054	6089.479980	1791.587280	6.204090
686.227539	1502.029663	6052.179688	1796.268188	6.466568
686.555420	1498.685913	6057.603516	1799.091797	6.589413
686.883301	1503.366821	6090.667969	1798.274414	6.428782
687.211121	1504.704224	6125.070313	1801.840942	6.431021
687.538940	1506.264648	6164.005371	1803.847046	6.388986
687.866638	1504.258423	6168.611816	1810.534546	6.566315
688.194336	1502.698242	6152.710938	1807.785156	6.560991
688.521973	1494.896484	6101.368652	1808.379517	6.805274
688.849609	1495.862305	6048.910156	1805.407349	6.798634
689.177063	1495.713867	6001.505371	1803.178345	6.823762
689.504578	1495.193726	5929.134766	1789.655273	6.641079
689.832031	1494.673462	5902.756348	1784.602905	6.577223
690.159485	1496.828491	5854.162598	1786.311890	6.643590
690.486816	1498.537231	5802.150879	1799.314819	6.988954
690.814087	1498.240112	5728.219238	1802.881226	7.201953
691.141296	1509.385376	5654.957031	1795.599609	6.904096
691.468506	1518.896118	5603.540527	1785.345825	6.523204
691.795715	1528.035522	5532.283203	1779.178711	6.271920
692.122803	1513.546387	5491.714355	1774.794922	6.567057
692.449829	1507.825073	5475.590332	1771.674194	6.649817
692.776855	1495.044922	5459.393066	1774.200562	7.041653
693.103821	1494.747681	5430.562988	1777.989868	7.196531
693.430664	1488.580688	5396.309082	1775.092163	7.331919
693.757568	1489.843872	5383.009277	1774.943359	7.323076
694.084351	1489.769531	5405.745605	1781.333496	7.445499
694.411133	1500.469116	5404.482910	1790.324219	7.424541
694.737854	1500.394897	5400.099121	1788.912476	7.398448
695.064575	1507.305054	5381.746094	1790.472656	7.308606
695.391174	1501.137817	5362.649902	1789.060913	7.456226
695.717773	1504.407227	5383.677734	1786.163086	7.263114
696.044250	1500.394897	5419.566406	1780.887695	7.156941
696.370789	1496.233887	5501.447754	1785.123047	7.212827
696.697205	1502.772583	5589.644531	1802.807007	7.341420
697.023621	1506.933594	5716.554199	1818.039063	7.390345
697.349915	1508.419556	5859.438965	1836.465942	7.539529
697.676208	1504.555664	6057.231934	1858.831055	7.781695
698.002380	1504.704468	6242.097168	1883.871460	8.003706
698.328674	1506.785034	6460.622559	1910.768921	8.154968
698.654724	1501.286499	6611.010254	1915.895630	8.114120
698.980896	1491.627319	6714.514160	1918.199097	8.167356
699.306946	1497.645630	6724.618652	1916.787231	8.018821
699.632935	1500.766235	6657.300781	1913.889282	8.011641
699.958862	1501.583618	6525.859375	1901.703735	7.963737
700.284729	1496.382446	6339.359375	1883.573853	7.994905
700.610596	1498.686035	6155.088379	1868.787720	7.948233
700.936340	1505.893188	5942.435059	1855.264648	7.874860
701.262146	1503.812866	5751.773438	1843.227539	7.990062
701.587830	1499.428833	5590.017090	1834.014038	8.179391
701.913513	1495.936523	5487.998535	1827.326782	8.301230
702.239075	1494.450562	5385.387207	1814.249512	8.219074
702.564697	1493.856079	5266.353516	1803.698608	8.213194
702.890137	1498.760132	5151.630371	1802.361206	8.311302
703.215698	1505.224609	5084.609375	1810.608765	8.531750
703.541016	1512.654785	5042.703125	1814.323853	8.545749
703.866455	1509.979858	5013.130371	1808.825317	8.530763
704.191711	1514.437988	4960.300781	1799.983398	8.286615
704.517029	1512.060547	4916.462402	1800.429199	8.470465
704.842163	1508.494019	4868.536621	1805.258911	8.832177
705.167419	1500.840820	4847.360840	1804.664551	9.078796
705.492493	1498.908813	4832.425781	1801.469360	9.076316
705.817566	1504.258423	4825.589844	1793.296265	8.702469
706.142578	1510.797241	4817.119629	1796.119629	8.629600
706.467590	1512.654663	4811.844238	1800.652222	8.729342
706.792480	1509.682617	4814.222168	1806.447632	8.980525
707.117371	1504.555786	4825.590332	1806.819214	9.101483
707.442200	1499.503296	4826.036133	1804.367188	9.164615
707.766907	1501.880859	4835.026367	1806.076172	9.126373
708.091675	1502.326660	4834.729492	1809.345581	9.213140
708.416321	1504.853027	4854.048340	1817.667480	9.339989
708.741028	1501.657837	4853.825195	1822.645874	9.575537
709.065552	1499.577637	4869.428711	1826.880981	9.712694
709.390137	1501.583618	4861.478516	1827.698242	9.706096
709.714600	1509.756958	4898.481445	1835.203003	9.603791
710.039063	1512.877563	4918.320313	1845.976929	9.781382
710.363403	1513.174927	4953.911621	1843.301880	9.594659
710.687744	1502.178223	5006.740234	1849.394897	9.907562
711.012085	1498.314453	5053.996582	1852.886841	9.971993
711.336304	1493.039063	5100.287109	1859.871460	10.169314
711.660461	1496.754028	5090.851074	1861.431763	10.146574
711.984619	1498.165649	5075.099121	1857.047974	10.033239
712.308716	1501.509399	5051.544922	1863.215210	10.188794
712.632751	1495.416626	5010.678223	1863.214966	10.462900
712.956726	1492.741577	4970.108887	1863.363647	10.658123
713.280701	1492.815918	4936.375488	1853.184082	10.464990
713.604553	1497.051270	4907.917480	1842.038696	10.114364
713.928467	1498.685913	4886.295410	1842.112915	10.137739
714.252258	1493.038940	4861.181152	1847.685669	10.529447
714.575989	1500.617798	4853.230957	1858.088013	10.662436
714.899719	1494.673462	4826.259277	1859.054077	10.937152
715.223267	1501.063477	4812.364746	1860.317383	10.849327
715.546936	1501.509399	4792.822754	1855.116211	10.743638
715.870422	1510.276978	4804.191406	1851.623901	10.362956
716.193970	1507.527954	4773.875488	1849.840698	10.479985
716.517395	1511.540405	4748.389648	1859.276978	10.743058
716.840820	1511.465942	4698.235840	1858.088257	10.876917
717.164124	1514.066772	4671.709473	1852.143921	10.706632
717.487488	1499.800415	4635.152344	1841.518555	10.898876
717.810730	1502.549805	4580.837402	1831.264771	10.678501
718.133972	1498.983032	4511.958496	1828.292603	10.929712
718.457092	1499.651855	4450.212891	1824.280396	11.002265
718.780212	1499.057495	4403.550293	1828.738647	11.350731
719.103210	1496.531128	4351.687500	1825.097778	11.507834
719.426208	1506.116211	4284.294922	1810.757324	10.965497
719.749207	1504.630249	4244.765625	1805.778931	10.990285
720.072083	1512.877563	4222.251953	1801.915405	10.668065
720.394958	1508.791016	4197.731934	1810.682983	11.227170
720.717773	1507.825073	4151.144531	1806.893555	11.314126
721.040527	1506.116211	4103.219238	1806.522095	11.566960
721.363281	1499.949097	4082.711670	1805.333374	11.823938
721.685913	1492.816040	4072.234619	1808.231079	12.228146
722.008545	1492.221680	4065.547607	1807.042358	12.233999
722.331055	1495.713867	4045.337158	1799.166016	11.901842
722.653503	1498.983032	4028.098877	1790.844116	11.540045
722.976013	1497.199829	4020.520264	1801.246582	12.049471
723.298401	1494.376343	4016.582031	1809.865723	12.508472
723.620789	1495.490845	4001.052734	1815.884155	12.787283
723.943115	1503.292603	4000.978516	1813.283569	12.411126
724.265381	1507.527832	4002.241455	1808.973999	12.083398
724.587585	1512.208984	4029.510986	1811.649048	11.895278
724.909790	1504.333008	4036.049561	1812.391968	12.167988
725.231873	1496.234009	4049.572510	1817.741821	12.591665
725.553894	1493.410522	4040.879150	1824.057251	12.979423
725.875916	1529.744507	4090.364502	1855.784668	12.732860
726.197937	1539.849609	4097.349121	1854.670288	12.309707
726.519775	1538.214844	4132.791504	1852.812622	12.125207
726.841675	1503.441406	4118.153809	1827.029663	12.375673
727.163513	1496.382446	4163.924316	1833.048218	12.620824
727.485291	1501.435181	4181.682617	1841.295898	12.680199
727.806946	1498.983032	4193.050781	1847.462891	12.935081
728.128662	1504.927368	4183.986816	1848.131470	12.810618
728.450256	1496.754028	4193.571777	1851.995239	13.172606
728.771790	1501.137817	4193.349121	1852.664063	13.057156
729.093323	1504.035645	4196.617676	1858.014038	13.146429
729.414795	1510.500000	4175.441406	1853.927124	12.886854
729.736145	1518.301758	4170.388672	1844.787964	12.310539
730.057495	1513.992188	4162.958496	1835.277222	12.128695
730.378845	1509.608398	4176.407227	1832.676636	12.114458
730.700134	1497.422729	4198.029297	1844.713501	12.859733
731.021301	1500.915039	4226.858887	1856.676392	13.050942
731.342468	1499.280273	4247.960938	1861.803223	13.188980
731.663574	1507.082031	4271.291504	1857.345093	12.671365
731.984680	1505.521606	4276.790039	1857.419312	12.698073
732.305664	1512.357544	4288.752441	1860.242798	12.530107
732.626648	1506.264771	4259.105957	1872.725586	13.312094
732.947571	1500.394897	4245.731934	1877.481079	13.735516
733.268433	1496.382446	4217.199707	1880.155884	14.105079
733.589233	1502.698242	4205.756836	1871.759766	13.653479
733.909973	1508.642456	4166.524902	1873.543091	13.728999
734.230713	1510.723022	4127.219238	1870.050781	13.733167
734.551331	1502.475220	4070.971924	1867.078735	14.195211
734.871948	1505.670410	4022.080811	1854.967407	13.880764
735.192505	1507.082031	3960.112061	1847.388550	13.872905
735.513062	1516.072754	3920.285889	1844.119263	13.644651
735.833435	1512.506226	3885.883545	1843.302124	13.937771
736.153931	1508.493774	3874.812500	1844.788086	14.211707
736.474304	1498.685913	3854.379150	1840.478394	14.509210
736.794617	1494.524902	3840.484619	1842.038696	14.813289
737.114807	1489.546509	3816.856445	1845.159302	15.279992
737.434998	1488.506348	3814.701904	1846.571167	15.392722
737.755188	1489.175171	3824.955322	1837.654907	14.919200
738.075256	1494.301880	3856.237061	1830.373169	14.228642
738.395325	1494.747925	3882.911377	1834.236938	14.215484
738.715271	1498.983032	3909.660400	1849.914673	14.557388
739.035278	1498.611694	3916.273438	1857.642212	14.850321
739.355164	1499.131836	3914.787354	1862.249023	15.031828
739.675049	1498.834473	3893.165771	1851.623657	14.734351
739.994873	1501.658081	3866.639404	1853.852905	14.892076
740.314636	1508.716797	3847.766357	1846.050903	14.421845
740.634277	1508.345337	3819.754150	1837.654785	14.247132
740.953979	1509.682617	3792.262451	1825.023315	13.815101
741.273499	1508.419556	3756.745361	1821.382446	13.919820
741.593140	1502.995483	3735.420654	1827.549683	14.538189
741.912598	1505.001587	3710.900635	1832.156616	14.830916
742.232117	1505.298828	3673.675049	1823.685913	14.683203
742.551453	1504.853027	3638.752930	1816.924438	14.624463
742.870850	1498.760254	3607.917236	1802.509766	14.401465
743.190063	1491.255493	3576.412842	1800.355103	14.823804
743.509338	1492.964722	3553.899170	1804.961792	15.138620
743.828552	1491.627319	3525.515625	1810.088501	15.657752
744.147705	1492.964722	3531.385498	1810.385742	15.571909
744.466797	1491.107056	3522.841064	1798.645874	15.136765
744.785828	1489.621094	3519.868896	1793.890625	14.986817
745.104858	1487.466187	3503.001953	1799.017578	15.457498
745.423706	1491.924316	3480.488281	1805.927734	15.790461
745.742615	1499.949097	3475.881592	1807.190796	15.549200
746.061401	1503.515625	3464.736084	1803.549927	15.298347
746.380249	1506.636230	3458.569092	1795.599609	14.803961
746.698975	1499.726074	3455.373779	1796.342407	15.167166
747.017639	1497.497070	3464.736084	1792.850220	15.013587
747.336304	1489.472290	3467.633789	1797.159790	15.554215
747.654907	1498.462891	3467.708008	1801.915161	15.409574
747.973389	1499.651733	3433.305664	1809.642578	16.031351
748.291931	1504.927368	3429.218994	1810.831421	15.896970
748.610352	1501.657837	3416.810547	1812.094727	16.209511
748.928711	1502.921265	3424.464111	1803.995728	15.668371
749.247070	1502.921265	3427.064453	1800.503540	15.465703
749.565308	1505.001587	3432.785889	1794.262085	15.004817
749.883545	1499.651978	3441.479248	1796.788452	15.301900
750.201782	1494.450806	3434.197998	1799.314819	15.716688
750.519836	1483.825562	3418.148193	1806.001953	16.655773
750.837952	1496.605469	3396.971680	1808.676758	16.421640
751.155884	1499.057495	3392.365234	1808.082397	16.321959
751.473877	1504.109985	3399.795166	1797.531616	15.478395
751.791809	1496.382446	3413.690186	1787.574829	15.187566
752.109619	1500.171997	3404.847900	1788.912476	15.159559
752.427490	1496.605469	3384.860596	1790.844238	15.582575
752.745300	1503.144043	3371.262939	1799.983398	15.889747
753.062988	1502.995483	3368.142578	1795.376587	15.676035
753.380615	1506.190430	3377.875977	1802.212524	15.815803
753.698303	1501.880859	3383.002686	1799.909180	15.843117
754.015808	1495.565308	3379.956299	1802.138306	16.269075
754.333374	1496.159546	3369.628174	1796.639771	16.038712
754.650757	1490.363892	3358.334717	1792.404663	16.169458
754.968262	1484.419800	3363.758545	1798.645874	16.720034
755.285583	1486.500366	3361.380859	1798.868774	16.660711
755.602905	1486.574585	3357.888428	1806.447754	17.093508
755.920105	1497.868652	3355.659180	1800.875122	16.310045
756.237305	1494.302124	3353.876221	1801.692383	16.530144
756.554443	1499.428833	3328.316406	1798.645996	16.360609
756.871582	1506.561890	3322.817627	1804.367310	16.396667
757.188599	1510.425781	3333.145752	1808.750977	16.367033
757.505615	1512.803345	3379.807861	1815.289673	16.201693
757.822510	1509.459839	3398.977783	1819.747681	16.421534
758.139465	1503.589844	3418.445068	1818.781860	16.460358
758.456238	1503.887085	3437.838135	1821.754028	16.436142
758.773010	1494.004883	3465.330078	1826.732422	16.878368
759.089783	1499.280273	3485.020264	1829.333008	16.621145
759.406433	1504.258423	3507.905518	1827.549805	16.135145
759.723145	1512.506226	3518.902344	1829.184448	15.783435
760.039673	1511.837524	3534.951904	1835.054321	15.976200
760.356201	1503.144165	3522.246094	1840.255493	16.696102
760.672668	1497.868652	3520.685791	1836.466187	16.738909
760.989136	1499.800415	3500.103760	1828.664185	16.440695
761.305481	1502.921265	3511.175049	1826.806641	16.127712
761.621826	1499.874634	3517.787842	1832.750977	16.496069
761.938049	1503.218262	3548.772217	1844.788086	16.698158
762.254333	1502.623901	3579.830811	1857.939575	17.105453
762.570496	1509.459595	3643.136719	1869.010742	16.851244
762.886597	1503.738403	3762.912842	1883.796875	16.822893
763.202637	1509.088257	3959.740234	1909.059692	16.321022
763.518677	1510.128540	4196.988770	1948.960449	16.332516
763.834656	1507.305054	4403.996094	1989.083862	16.632040
764.150574	1504.258667	4525.481445	2019.622192	17.058111
764.466370	1504.555786	4524.812988	2030.321777	17.407986
764.782288	1504.555786	4432.603516	2019.547852	17.588240
765.097961	1503.812866	4277.682129	1992.427368	17.614908
765.413696	1506.784790	4112.061035	1954.087280	17.169100
765.729309	1510.054199	3949.784180	1925.257813	17.018425
766.044861	1509.385376	3801.178711	1909.728516	17.468552
766.360474	1502.103882	3685.489502	1896.353882	18.056818
766.675903	1496.902710	3596.697510	1882.087891	18.343943
766.991394	1494.302124	3547.286377	1866.632813	18.136070
767.306763	1491.924316	3500.401123	1862.917847	18.471388
767.622131	1497.571289	3462.952393	1860.168579	18.449209
767.937378	1496.308228	3400.018311	1843.153320	18.219429
768.252625	1496.308228	3352.910156	1825.395020	17.725222
768.567810	1498.760254	3313.306885	1813.803711	17.362103
768.882996	1497.720093	3287.524170	1810.757446	17.490034
769.197998	1502.772461	3254.756592	1814.175293	17.774296
769.513062	1494.747925	3234.249023	1809.717163	18.106873
769.828064	1499.874878	3197.840820	1811.723267	18.365997
770.142944	1500.171875	3173.320557	1805.778931	18.265385
770.457825	1506.784790	3142.633789	1801.469360	18.014168
770.772705	1508.716797	3133.865967	1797.605591	17.776140
771.087402	1505.744629	3121.308594	1785.494263	17.315912
771.402100	1504.332886	3107.488281	1785.271484	17.524103
771.716736	1502.252441	3097.234619	1785.122925	17.735025
772.031372	1496.308228	3086.386719	1784.900024	18.149532
772.345947	1493.856079	3071.674561	1780.367554	18.158709
772.660461	1488.134888	3057.928467	1770.113770	17.962801
772.974854	1496.679688	3047.526123	1765.952759	17.362974
773.289246	1504.630249	3024.789307	1766.547241	17.229578
773.603638	1511.094360	3011.415039	1768.553345	17.160263
773.917908	1515.255371	2990.313232	1769.667969	17.247635
774.232178	1511.168579	2994.771240	1772.788696	17.634109
774.546265	1509.608398	2986.226318	1773.011597	17.838278
774.860474	1500.469116	2979.910889	1772.937378	18.416964
775.174561	1494.747925	2954.201904	1766.250000	18.602989
775.488586	1491.701538	2935.180420	1767.884766	19.133167
775.802551	1492.593140	2911.700928	1764.838257	19.184246
776.116516	1491.107056	2901.521240	1765.061157	19.423664
776.430359	1488.060547	2892.159180	1754.733032	18.992432
776.744202	1487.763306	2894.314209	1761.717651	19.477030
777.057922	1492.667358	2898.846680	1763.055054	19.228537
777.371704	1501.286499	2896.989014	1763.500854	18.787268
777.685303	1505.447632	2887.403564	1755.996216	18.129997
777.998962	1506.784790	2866.227539	1744.256226	17.468292
778.312500	1507.602173	2854.041992	1743.067383	17.487986
778.626038	1512.877808	2861.620850	1747.599976	17.403030
778.939453	1515.998413	2862.438232	1752.949829	17.598366
779.252869	1512.357544	2871.428711	1754.212891	17.795635
779.566223	1506.413452	2856.345459	1753.767090	18.323414
779.879578	1500.097656	2856.791016	1758.893921	19.075516
780.192749	1499.949097	2859.094482	1758.596802	19.030172
780.505920	1505.596069	2864.295654	1756.887817	18.495020
780.819031	1510.871460	2872.766357	1749.308960	17.507776
781.132141	1516.295532	2874.846680	1754.955933	17.567274
781.445190	1507.379272	2867.787842	1755.178833	18.215084
781.758118	1503.292603	2847.428955	1758.002441	18.949703
782.071045	1500.023315	2811.614990	1745.593872	18.723095
782.383911	1497.645508	2794.228271	1738.683594	18.590258
782.696838	1500.171875	2794.748047	1732.442261	17.941809
783.009583	1499.651733	2787.541016	1731.922241	18.034975
783.322266	1510.945801	2783.156982	1726.349609	16.931450
783.634888	1512.580444	2758.191406	1726.795288	17.197573
783.947510	1514.140747	2751.207031	1738.015015	18.097193
784.260132	1500.692017	2729.510498	1738.980835	19.391703
784.572571	1505.150024	2733.448486	1740.244141	19.139820
784.885010	1498.834595	2729.436279	1736.603149	19.321325
785.197449	1511.020142	2735.826172	1738.386353	18.563446
785.509766	1505.447632	2720.445557	1729.470215	18.438105
785.822083	1508.642578	2718.290771	1731.625000	18.433659
786.134277	1502.252441	2722.451660	1726.052246	18.341251
786.446533	1501.286499	2725.869873	1729.990234	18.676044
786.758606	1507.527832	2732.036377	1718.176147	17.202682
787.070740	1507.305054	2731.293701	1723.823120	17.689548
787.382690	1503.069702	2739.318359	1729.990234	18.355574
787.694641	1485.831543	2752.544189	1737.420532	19.861568
788.006653	1486.500366	2787.689453	1745.891113	19.934900
788.318481	1494.970703	2833.311279	1747.080078	18.837460
788.630310	1504.630005	2874.251953	1751.835327	18.049166
788.942017	1509.236816	2895.131104	1759.711304	18.073132
789.253784	1503.366821	2899.366455	1772.119751	19.251648
789.565430	1504.109985	2883.242920	1766.993042	19.061474
789.877014	1507.156372	2857.756836	1762.534790	18.908510
790.188538	1514.735352	2821.719971	1757.407837	18.567356
790.500061	1514.958130	2784.271484	1756.739258	19.048183
790.811462	1507.825195	2748.754639	1748.342896	19.382061
791.122925	1511.317383	2726.018066	1746.634155	19.372408
791.434204	1516.444336	2710.117432	1747.451294	19.352615
791.745483	1518.896118	2692.582031	1747.674194	19.492273
792.056702	1506.636353	2667.690430	1739.872437	20.088305
792.367920	1498.091431	2653.944580	1728.207031	19.908724
792.678955	1494.970703	2639.381104	1722.782837	19.906507
792.990112	1494.524902	2646.068359	1717.581665	19.370243
793.301086	1498.760132	2631.208008	1716.541504	19.231028
793.612122	1504.481567	2630.687988	1714.386719	18.638248
793.922974	1508.716797	2614.341553	1712.454712	18.427402
794.233826	1508.791016	2611.889404	1713.718140	18.577412
794.544556	1503.218262	2609.957275	1713.717896	19.019808
794.855286	1505.447388	2612.483643	1716.987305	19.108671
795.166016	1504.184204	2633.139893	1720.702515	19.178637
795.476624	1507.899414	2645.325439	1728.504272	19.395096
795.787292	1500.543457	2671.925781	1729.247192	19.524260
796.097778	1500.320435	2693.176514	1737.271973	19.864218
796.408264	1494.153442	2725.498291	1732.888062	19.388121
796.718689	1497.125488	2742.736328	1729.841675	18.682898
797.029053	1495.267944	2752.841797	1731.847778	18.812401
797.339355	1497.571289	2741.844727	1728.727051	18.577570
797.649658	1494.747681	2727.058594	1738.015015	19.740744
797.959839	1493.856079	2697.708984	1733.779663	19.929644
798.270020	1495.565063	2667.393555	1733.928345	20.341141
798.580078	1501.137695	2644.656738	1729.841797	20.000025
798.890137	1506.561890	2626.675537	1723.080200	19.330030
799.200195	1502.995483	2627.195557	1725.457642	19.788485
799.510071	1503.738403	2614.192383	1720.256470	19.498158
799.820007	1502.029419	2607.728271	1719.216309	19.642500
800.129883	1507.527832	2593.759521	1720.033691	19.563585
800.439575	1503.961304	2601.041016	1722.560059	19.925512
800.749329	1503.441284	2579.567627	1727.463867	20.817499
801.058960	1500.989258	2569.016846	1720.107910	20.516197
801.368591	1501.955200	2548.880615	1715.649902	20.411646
801.678162	1503.069702	2539.221191	1705.247437	19.512373
801.987671	1505.298828	2523.691895	1701.086548	19.225163
802.297119	1508.419556	2516.038574	1697.817261	18.796558
802.606506	1503.218384	2523.617432	1703.464233	19.624269
802.915894	1501.137817	2533.350830	1710.671509	20.299461
803.225159	1496.976929	2524.137695	1713.494995	21.079277
803.534424	1498.017212	2520.199463	1709.631226	20.702181
803.843628	1499.354492	2508.311279	1703.464233	20.229780
804.152771	1500.989258	2497.760254	1693.359009	19.299294
804.461792	1503.664185	2485.277588	1689.049438	18.885771
804.770874	1501.435181	2488.695557	1695.885254	19.695927
805.079773	1500.617798	2507.791260	1700.492188	19.845081
805.388733	1506.041870	2526.441162	1704.950195	19.493185
805.697571	1511.020142	2534.391357	1699.749023	18.441879
806.006470	1513.769165	2539.072510	1704.430176	18.595572
806.315125	1511.317383	2550.663818	1704.281616	18.565920
806.623901	1509.682617	2555.716553	1707.699341	18.930239
806.932495	1506.413452	2554.899170	1710.077148	19.424557
807.241150	1504.481445	2548.063232	1708.442383	19.544317
807.549622	1501.955078	2540.112793	1705.247437	19.582031
807.858154	1501.880859	2528.001465	1702.423950	19.543814
808.166565	1500.097656	2508.013916	1701.458008	19.977884
808.474915	1496.308228	2489.141357	1696.033813	20.116734
808.783264	1486.054321	2481.562256	1682.956543	19.779072
809.091492	1487.540405	2481.636475	1682.362305	19.597895
809.399719	1496.605347	2484.534180	1680.727539	18.637192
809.707825	1505.670288	2469.153564	1687.563477	18.878708
810.015930	1499.131714	2451.395264	1676.492188	18.625145
810.323975	1489.843872	2432.968506	1678.201172	19.971622
810.632080	1487.540527	2422.194580	1676.269409	20.192379
810.939880	1503.812866	2408.374268	1685.185669	20.050911
811.247864	1508.270996	2397.748779	1675.823608	18.837189
811.555664	1512.134766	2390.467041	1673.668823	18.390997
811.863464	1504.258789	2383.705322	1672.554321	19.136528
812.171143	1498.537231	2389.798340	1676.566772	19.975016
812.478882	1496.085327	2391.581787	1683.996948	20.984072
812.786438	1493.410278	2390.169922	1681.321899	20.954514
813.094055	1499.874634	2381.550781	1684.442749	20.933777
813.401489	1500.246216	2384.374268	1673.297241	19.573072
813.708984	1502.103882	2384.671387	1672.331421	19.287764
814.016357	1502.178101	2381.699463	1673.594604	19.489748
814.323730	1509.311157	2369.959717	1683.848267	20.279718
814.630981	1507.825073	2358.962891	1677.903931	19.982529
814.938232	1501.583618	2344.102295	1671.662598	20.186968
815.245361	1491.107056	2343.656494	1670.994019	21.099886
815.552490	1490.066895	2353.761719	1682.436401	22.272856
815.859619	1500.172241	2364.535645	1688.900757	21.834394
816.166565	1503.292847	2367.879150	1686.820313	21.227200
816.473572	1503.961304	2375.680908	1685.259888	20.797810
816.780457	1508.047974	2383.259521	1677.086548	19.314024
817.087341	1507.750854	2381.550537	1668.467651	18.392864
817.394043	1506.562012	2381.847900	1658.511108	17.359940
817.700806	1501.806641	2381.773682	1670.250854	19.142105
818.007507	1506.636230	2392.844971	1677.755493	19.309137
818.314209	1512.283203	2405.550537	1691.798706	20.096504
818.620667	1502.921265	2426.503906	1690.609741	20.321785
818.927246	1491.701538	2449.537842	1692.690308	20.983624
819.233704	1487.094727	2469.005127	1688.677856	20.529686
819.540161	1492.593140	2505.487793	1693.805054	19.865038
819.846497	1510.202759	2562.478027	1704.578735	18.471970
820.152832	1514.809570	2647.480225	1729.172852	18.925472
820.458984	1512.134644	2743.108154	1757.705078	19.949287
820.765259	1506.636353	2843.119141	1784.379883	20.781677
821.071350	1507.825195	2942.165039	1808.231079	20.943844
821.377502	1512.060425	3087.872314	1838.175171	20.695030
821.683472	1510.723022	3392.959717	1900.589355	20.712929
821.989441	1502.624023	4050.092529	2033.219727	20.828352
822.295349	1500.394897	5111.358398	2249.886475	20.756001
822.601196	1498.983032	6503.123047	2550.069580	21.004339
822.907043	1505.967651	7810.553223	2816.147461	20.781380
823.212769	1502.995483	8592.589844	2979.242188	20.822725
823.518494	1507.082031	8589.171875	2969.360107	20.647551
823.824097	1506.413452	7887.977051	2832.865479	20.785690
824.129700	1513.472046	6866.017578	2623.183594	20.732409
824.435242	1506.190430	5819.389160	2415.061279	21.071852
824.740723	1505.373169	4979.619629	2242.530273	21.217754
825.046082	1499.057495	4360.232422	2114.432617	21.507778
825.351501	1508.122192	3934.923828	2019.993652	21.092430
825.656799	1507.379272	3642.096680	1955.796265	21.005919
825.962036	1516.815552	3464.512939	1922.062866	20.806482
826.267212	1509.014038	3400.464111	1910.099976	21.205210
826.572449	1503.367065	3427.287109	1922.285645	21.774220
826.877502	1494.525024	3574.852539	1952.824219	22.030146
827.182495	1493.558960	3850.292969	2004.316040	21.672243
827.487488	1498.908813	4223.292480	2062.940674	20.703098
827.792419	1499.651855	4525.035645	2123.943115	20.635109
828.097290	1509.831421	4639.981934	2142.667480	20.217434
828.402100	1505.967407	4481.791504	2126.989502	20.868910
828.706848	1510.202759	4172.840332	2055.362061	20.474407
829.011597	1498.314453	3772.275146	1971.845703	20.824074
829.316223	1507.379395	3409.454834	1890.707153	20.153131
829.620789	1508.493774	3106.002686	1834.534180	20.409302
829.925354	1510.723022	2879.601807	1804.292969	21.446014
830.229797	1500.097656	2718.290771	1770.708008	22.214077
830.534302	1500.320679	2613.375244	1748.640259	22.309740
830.838562	1499.280273	2531.270752	1716.169922	21.016632
831.142944	1501.955200	2486.837646	1704.207153	20.535645
831.447144	1500.543457	2441.884766	1686.151733	19.717426
831.751404	1499.057251	2425.909424	1685.037109	20.065752
832.055542	1505.521606	2405.624756	1683.253906	19.745770
832.359619	1497.422729	2401.612549	1685.780151	20.831623
832.663635	1503.812866	2425.018066	1697.148438	20.987244
832.967651	1494.599243	2479.927734	1706.733521	21.529295
833.271545	1499.354492	2593.982178	1727.538208	20.845783
833.575439	1491.329956	2773.720459	1757.705078	20.771763
833.879211	1490.140991	3016.987549	1805.110229	20.628742
834.183044	1488.803711	3273.034912	1862.769165	20.959473
834.486694	1492.221680	3469.045654	1903.412720	20.800589
834.790344	1500.320679	3538.295654	1919.016235	20.544685
835.093933	1500.097656	3459.682861	1908.911133	20.862246
835.397522	1500.469116	3268.130859	1869.084961	20.853302
835.700928	1498.462891	3058.820313	1828.961426	21.180950
836.004395	1502.252441	2876.927002	1779.550171	20.171883
836.307739	1509.534180	2734.637451	1745.816772	19.286749
836.611023	1503.218384	2602.304443	1715.872681	19.348284
836.914307	1499.651855	2493.079346	1698.485962	20.014959
837.217529	1498.537231	2402.578369	1678.870117	19.947420
837.520691	1506.339233	2335.111572	1665.346802	19.185917
837.823730	1505.075806	2284.437256	1652.715332	18.943653
838.126831	1496.085327	2242.159180	1649.074585	20.505913
838.429749	1491.032593	2208.351318	1639.860962	20.747871
838.732727	1489.769531	2176.921143	1634.437012	21.053211
839.035522	1494.970703	2166.593018	1629.235840	19.991167
839.338379	1497.422729	2165.924072	1633.025269	20.284557
839.641113	1502.698242	2178.258545	1626.115112	18.268816
839.943848	1504.407227	2204.413086	1635.105591	18.671038
840.246460	1503.144043	2253.675781	1652.343872	19.879217
840.549072	1500.617676	2303.607422	1679.092773	22.226324
840.851563	1501.880859	2333.551514	1685.334351	22.058430
841.154053	1504.407227	2334.368896	1680.133179	21.172779
841.456482	1500.840820	2296.325928	1671.736938	21.483257
841.758850	1497.125610	2255.459229	1658.585327	21.291384
842.061157	1496.234009	2206.493652	1646.548340	21.163294
842.363403	1494.227661	2170.977051	1635.774414	20.915682
842.665588	1485.459961	2122.234375	1627.749634	22.345381
842.967712	1487.614746	2080.698975	1620.319336	22.375336
843.269775	1495.490845	2049.417480	1610.734375	20.804836
843.571777	1500.914917	2023.485840	1607.316406	20.361158
843.873840	1495.119263	2006.916382	1599.366089	20.368780
844.175659	1492.741577	1988.043579	1594.833496	20.612055
844.477600	1490.066772	1979.350098	1596.468140	21.746370
844.779297	1497.719849	1969.765137	1601.595093	22.005356
845.081116	1498.983032	1964.712402	1594.684937	20.548822
845.382751	1504.109985	1961.517456	1588.592163	18.469786
845.684387	1494.970825	1953.418579	1579.378540	18.411633
845.985962	1496.456665	1945.616821	1581.682007	18.974377
846.287537	1495.342163	1931.202148	1575.143188	18.308867
846.588989	1498.611450	1923.326172	1574.177368	17.792158
846.890381	1495.267944	1911.586304	1570.239258	18.008169
847.191711	1499.949097	1905.790527	1570.685181	17.429487
847.493042	1499.354858	1899.177368	1569.644897	17.580311
847.794250	1507.156372	1894.050659	1576.332153	17.879763
848.095459	1509.014038	1894.050659	1585.694336	19.915066
848.396606	1509.534180	1888.403687	1586.065918	20.200026
848.697693	1501.806641	1885.208618	1574.400391	18.934109
848.998657	1500.171997	1885.505981	1559.911255	15.503242
849.299622	1500.469116	1887.586304	1568.010254	17.447206
849.600464	1498.685913	1880.453125	1568.456055	18.275572
849.901367	1494.822266	1875.846558	1571.279663	20.066278
850.202087	1497.051270	1865.443970	1563.552124	18.051620
850.502808	1495.267944	1876.737915	1571.428223	19.964947
850.803467	1502.995483	1874.583374	1574.177368	19.156137
851.104065	1500.840698	1882.533569	1567.936035	17.578358
851.404663	1501.657837	1874.137573	1570.462280	18.471996
851.705139	1493.930542	1865.221191	1571.948364	21.012600
852.005615	1497.868530	1862.843750	1573.954590	20.846910
852.306030	1506.190430	1861.877563	1571.205444	18.278709
852.606384	1503.589844	1855.264648	1571.948242	19.437958
852.906616	1502.252441	1851.549683	1575.440552	20.952959
853.206909	1500.097656	1852.664063	1571.874023	20.358255
853.506958	1503.292603	1857.791016	1564.740845	17.333855
853.807129	1497.645874	1854.967407	1562.066040	18.028627
854.107178	1500.023438	1847.834595	1555.378906	15.915380
854.407166	1505.818970	1845.085327	1555.750366	14.717462
854.707092	1513.843750	1841.667358	1551.366577	11.446042
855.007019	1511.020142	1839.883911	1556.419067	13.804782
855.306763	1504.407227	1834.385376	1564.369507	18.171591
855.606567	1497.645630	1817.964722	1568.159058	22.013494
855.906250	1496.828247	1812.243530	1566.598633	22.120167
856.205933	1499.949097	1807.116577	1565.632690	21.383642
856.505493	1501.435181	1822.645874	1562.066040	18.875729
856.805054	1505.447388	1828.069824	1566.598633	18.954430
857.104492	1501.806641	1838.323730	1559.985718	17.288595
857.403931	1504.704468	1837.060547	1562.809204	17.482676
857.703308	1499.280273	1827.178223	1555.453125	17.131199
858.002563	1503.069824	1813.655151	1558.128052	17.727247
858.301819	1498.760132	1813.060547	1557.830933	18.794376
858.601013	1499.131714	1816.701538	1560.431274	19.302704
858.900208	1499.057251	1826.806641	1562.066040	19.224686
859.199219	1509.979980	1821.605591	1556.121948	14.806860
859.498291	1508.196655	1821.828491	1556.939331	15.541368
859.797302	1498.834595	1812.466309	1554.115845	17.626167
860.096191	1485.385742	1804.441528	1559.985718	23.381483
860.395020	1491.701538	1803.475586	1559.539673	21.758749
860.693787	1499.949097	1804.367188	1556.344727	18.525715
860.992554	1499.948853	1809.419800	1555.750366	18.031261
861.291260	1499.874634	1807.933716	1543.193237	14.061784
861.589844	1496.828247	1806.744995	1543.861816	15.176195
861.888428	1506.710571	1812.614868	1546.313843	12.946295
862.186890	1504.704468	1809.791382	1559.465454	17.949306
862.485413	1511.837402	1807.710938	1560.728516	16.524328
862.783813	1507.156250	1801.395142	1557.756470	17.196985
863.082153	1497.645508	1793.222046	1554.635742	19.281042
863.380371	1492.816040	1797.085571	1551.663574	19.340593
863.678589	1495.936646	1791.587280	1543.490234	16.084385
863.976746	1508.493774	1806.299194	1543.044556	11.601797
864.274902	1514.215210	1801.395142	1548.542969	11.953398
864.572937	1512.208984	1801.246582	1555.973267	15.141380
864.870911	1507.676392	1791.884399	1550.400513	15.032694
865.168884	1504.630005	1795.971069	1540.592651	12.343830
865.466736	1502.846802	1800.875000	1533.831055	10.396417
865.764587	1496.754028	1794.410767	1540.221069	14.603076
866.062317	1492.964478	1794.856567	1543.564819	16.761068
866.360107	1487.020508	1790.398315	1543.341797	18.564735
866.657715	1489.323730	1792.478882	1542.078735	17.401981
866.955322	1493.558960	1797.159790	1541.855835	15.908018
867.252808	1500.766235	1794.410645	1553.149780	17.839109
867.550293	1504.332886	1799.166016	1559.985474	18.875961
867.847717	1501.955200	1779.029907	1560.654297	21.185295
868.145081	1504.407227	1779.475952	1553.892700	17.990221
868.442383	1505.447388	1774.274780	1546.759766	15.367622
868.739624	1504.630005	1781.927734	1544.604858	14.415860
869.036804	1506.338989	1781.704956	1547.577148	14.975764
869.333984	1509.534180	1781.110474	1545.719604	13.324221
869.631042	1517.261597	1786.237427	1543.267578	9.668520
869.928101	1513.769409	1791.438599	1539.849609	9.392544
870.224976	1510.945923	1790.695679	1543.787720	11.739705
870.521851	1501.212280	1785.122681	1556.864868	19.602165
870.818726	1505.075806	1773.382935	1568.456055	23.622276
871.115479	1504.407104	1775.760620	1569.347778	23.932129
871.412231	1505.373047	1774.720337	1566.970093	22.869005
871.708862	1498.537476	1783.339722	1555.155884	19.879902
872.005493	1498.240112	1786.980591	1553.446899	19.119864
872.302063	1503.441284	1792.107422	1550.177734	16.190485
872.598572	1507.007813	1789.135376	1556.196167	17.434792
872.895020	1508.419556	1788.095093	1552.109497	15.621653
873.191406	1505.893188	1790.026855	1551.440796	16.030346
873.487671	1513.174927	1797.902954	1545.348145	11.299631
873.783997	1505.818970	1809.642700	1550.920776	14.844728
874.080200	1509.311157	1816.553101	1550.772095	13.494556
874.376343	1507.007813	1818.410522	1551.886719	14.411855
874.672424	1517.484375	1814.695435	1558.276733	13.725047
874.968445	1510.871582	1811.574707	1553.521362	14.183352
875.264465	1502.698242	1800.726563	1549.286133	15.632034
875.560364	1497.199829	1798.943359	1540.221069	14.257552
875.856201	1500.692017	1790.026855	1544.827759	15.254210
876.152039	1510.054199	1794.782227	1548.914551	13.648235
876.447754	1507.602173	1788.540649	1553.149780	16.212662
876.743469	1501.732422	1795.525391	1556.641968	18.689877
877.039063	1497.720093	1795.005249	1558.945313	20.594778
877.334595	1504.630005	1792.181641	1558.053711	18.578821
877.630127	1511.391602	1790.546997	1557.087891	16.369480
877.925537	1512.729126	1793.742065	1557.013550	15.758856
878.221008	1514.884155	1802.881226	1555.527466	14.112404
878.516296	1513.174927	1816.701538	1554.190063	13.512863
878.811646	1507.602173	1821.977051	1553.001099	14.441016
879.106812	1499.057251	1832.527954	1555.898926	17.045477
879.401978	1498.537231	1841.221313	1552.778198	15.828272
879.697083	1503.887085	1868.862183	1568.084595	17.589560
879.992126	1505.670410	1892.192993	1573.731567	17.608585
880.287109	1503.144043	1935.288696	1588.295044	19.704283
880.582031	1495.490845	2015.312866	1597.805664	19.682663
880.876892	1497.868530	2171.125732	1638.895142	20.946915
881.171753	1497.719849	2464.398438	1694.399292	20.345898
881.466492	1500.469116	2921.434570	1786.683228	20.142229
881.761230	1495.119263	3509.540283	1898.360229	20.017710
882.055786	1500.097656	4045.931641	2017.616089	20.328051
882.350403	1497.125488	4349.309570	2083.002197	20.541336
882.644958	1496.605469	4328.653809	2072.674316	20.341066
882.939453	1495.639526	4032.260010	2006.619263	20.144114
883.233826	1502.549683	3627.830322	1915.375488	19.424530
883.528137	1502.401001	3222.137695	1835.203003	19.351915
883.822449	1502.921265	2895.874268	1771.822632	19.304411
884.116577	1495.565063	2626.972900	1725.903442	20.358562
884.410828	1502.698242	2426.281006	1687.414673	19.999987
884.704956	1505.521606	2279.384521	1662.894897	20.336069
884.999023	1510.500000	2170.976807	1640.455566	19.676023
885.292969	1501.435181	2094.370850	1619.724976	19.949854
885.586914	1488.729370	2037.529175	1600.034790	20.281607
885.880798	1489.695313	2006.024780	1590.449585	19.513563
886.174622	1496.308228	1977.863892	1589.037720	19.256235
886.468384	1507.750977	1945.988281	1582.944946	17.158278
886.762085	1505.001587	1923.920288	1577.743774	17.364273
887.055664	1503.812866	1907.573730	1573.880249	17.353683
887.349304	1500.320679	1891.004272	1566.672852	16.983608
887.642822	1507.156372	1869.010620	1561.768921	15.092416
887.936340	1513.026367	1843.896118	1559.539673	14.057890
888.229736	1523.502930	1828.515625	1557.756470	11.230202
888.523071	1513.472168	1814.546753	1554.264282	13.548841
888.816284	1510.500000	1810.683105	1546.759766	12.079216
889.109619	1501.063477	1799.909180	1546.685547	15.266095
889.402710	1510.574341	1782.447876	1545.199585	12.735790
889.695862	1507.007813	1758.299438	1552.555298	18.125349
889.988892	1510.277222	1745.890991	1554.041504	18.574587
890.281921	1514.438110	1744.256470	1551.886719	16.294872
>>>>>End Processed Spectral Data<<<<<
