Jaz Data File
++++++++++++++++++++++++++++++++++++
Date: Fri Jun 04 13:26:04 2021
User: jaz
Dark Spectrum Present: Yes
Reference Spectrum Present: Yes
Processed Spectrum Present: Yes
Spectrometers: JAZA3586
Integration Time (usec): 30000 (JAZA3586)
Spectra Averaged: 10 (JAZA3586)
Boxcar Smoothing: 1 (JAZA3586)
Correct for Electrical Dark: No (JAZA3586)
Strobe/Lamp Enabled: Yes (JAZA3586)
Correct for Detector Non-linearity: No (JAZA3586)
Correct for Stray Light: No (JAZA3586)
Number of Pixels in Processed Spectrum: 2048
>>>>>Begin Processed Spectral Data<<<<<
W	D	R	S	P
191.335022	0.000000	0.000000	0.000000	0.000000
191.713211	311.477020	312.814453	317.421234	444.449524
192.091385	633.207764	632.910583	635.659790	-825.097534
192.469528	961.923035	960.808533	952.560852	840.032837
192.847641	980.052917	975.892029	956.053040	576.796936
193.225739	992.610046	980.275879	956.127441	295.784912
193.603790	996.250793	976.857910	977.229309	98.084869
193.981842	998.479980	981.761902	986.665771	70.667267
194.359863	1002.269348	993.427429	990.901062	128.572617
194.737854	1008.362244	1007.024719	988.300476	1499.917847
195.115829	1014.380798	1011.705872	996.919617	652.772339
195.493774	1009.105286	1009.996887	1008.287903	-91.675797
195.871704	1005.092957	1001.600769	1011.705811	-189.361374
196.249603	1006.578918	1002.789551	1002.938171	96.077957
196.627457	1010.442688	1001.675049	1001.600769	100.847206
197.005310	1014.232178	1007.322021	992.015625	321.505798
197.383133	1008.956726	999.074402	993.575989	155.638870
197.760910	1008.808105	996.473816	991.867126	137.348633
198.138687	999.743164	995.730774	993.575989	153.703278
198.516449	996.473816	993.798889	1002.492371	-224.998856
198.894180	987.260254	990.975403	1000.857666	365.999115
199.271866	985.328369	985.774170	996.993896	2616.758057
199.649536	986.740173	987.557434	990.752441	490.941010
200.027191	995.879395	990.380920	990.975342	89.189339
200.404816	1000.931885	998.331360	993.798828	274.292969
200.782410	1001.526367	1013.191895	995.953796	-47.769558
201.159988	993.650208	1033.104980	996.622375	7.533101
201.537537	989.043457	1034.442505	995.210693	13.584506
201.915070	987.483154	1032.733521	982.876404	-10.180582
202.292557	986.071350	1022.628357	981.316101	-13.007764
202.670029	990.752441	1031.767578	983.099304	-18.659300
203.047485	987.037292	1032.659180	985.625549	-3.094443
203.424911	993.501709	1033.030762	981.018799	-31.579077
203.802292	994.393311	1027.532349	974.703125	-59.416889
204.179688	989.415039	1024.857544	977.229309	-34.381683
204.557037	989.935242	1026.046387	982.430481	-20.782394
204.934357	985.105469	1025.080444	986.888672	4.460799
205.311661	991.124023	1022.851379	985.031067	-19.204111
205.688934	988.449036	1025.749146	981.910461	-17.529638
206.066177	986.442871	1022.702637	979.829895	-18.237780
206.443390	980.498718	1022.925598	977.675110	-6.655235
206.820587	974.777405	1023.148438	976.560730	3.686763
207.197769	975.594727	1024.040039	972.919861	-5.521413
207.574921	976.560730	1026.937866	978.641174	4.129739
207.952042	980.944580	1025.972046	985.699890	10.560910
208.329147	978.492676	1032.807861	984.213867	10.533319
208.706223	988.597717	1036.448730	990.306641	3.571342
209.083267	985.254089	1043.804565	983.247864	-3.426489
209.460297	984.139465	1034.962646	989.860840	11.257411
209.837280	970.170593	1031.098999	975.446106	8.658544
210.214264	975.817566	1026.120605	977.898132	4.136065
210.591217	979.161194	1026.937988	974.851746	-9.019961
210.968124	984.585388	1026.640747	977.823914	-16.077559
211.345016	982.727783	1025.823364	974.628845	-18.792967
211.721893	983.470886	1028.572632	972.548340	-24.217569
212.098724	985.774231	1025.526123	968.313049	-43.925411
212.475555	982.579285	1022.702637	969.278992	-33.148510
212.852356	983.768066	1024.411621	973.662903	-24.862894
213.229126	973.960144	1024.040039	983.322266	18.694372
213.605865	967.867249	1021.365051	986.517273	34.861290
213.982590	961.254333	1026.714966	978.864014	26.901176
214.359283	966.975647	1027.458008	969.650452	4.422454
214.735931	972.696960	1023.297058	960.957092	-23.201275
215.112579	980.870300	1020.101990	969.501953	-28.977461
215.489197	983.322205	1018.170105	963.037598	-58.208981
215.865799	985.402649	1020.919373	961.774414	-66.527069
216.242355	981.241699	1023.594238	960.659912	-48.596348
216.618896	989.712341	1033.402222	970.467773	-44.048115
216.995407	986.963074	1032.213379	976.263367	-23.645601
217.371902	984.065247	1022.182617	967.347107	-43.859634
217.748367	973.811523	1014.009216	966.306824	-18.669479
218.124802	970.096375	1014.380676	966.083984	-9.060525
218.501236	968.461670	1019.656250	971.210876	5.370112
218.877609	970.616455	1020.027832	976.189209	11.278281
219.253983	970.616455	1025.080444	976.857910	11.459784
219.630295	977.303711	1029.390015	981.761902	8.559238
220.006592	975.148926	1033.030762	976.560730	2.439114
220.382889	981.464661	1030.132935	978.269531	-6.565117
220.759140	980.052917	1032.659180	969.204651	-20.621626
221.135391	981.464600	1044.770630	970.467773	-17.370899
221.511581	978.269531	1045.067749	967.124207	-16.685062
221.887772	975.446106	1039.049316	965.043762	-16.355061
222.263931	975.297424	1031.470337	964.523621	-19.179714
222.640060	974.182922	1034.219604	965.043762	-15.222627
223.016159	972.696960	1033.179321	974.703125	3.316941
223.392212	977.452332	1025.749023	979.086914	3.384461
223.768265	981.539001	1031.693359	981.761719	0.444064
224.144302	989.489258	1034.888306	977.749451	-25.859148
224.520294	982.727722	1045.067749	972.771179	-15.971349
224.896286	981.687500	1049.674561	970.096375	-17.049017
225.272217	967.718567	1049.377319	977.006409	11.373970
225.648148	967.049866	1046.702271	984.436707	21.828394
226.024048	962.740295	1049.600220	988.597656	29.769035
226.399902	971.210876	1062.603149	985.922852	16.097614
226.775772	978.715515	1067.432861	983.396545	5.276341
227.151581	985.031189	1067.804443	980.870178	-5.026999
227.527374	986.963074	1075.383301	982.504883	-5.042049
227.903137	980.870300	1083.482300	989.786560	8.689296
228.278870	976.263428	1092.993042	996.993896	17.759392
228.654572	967.495789	1100.646118	994.170349	20.033417
229.030273	966.455505	1118.850464	983.990906	11.506549
229.405930	962.814697	1131.407471	979.235413	9.739869
229.781555	968.387390	1125.983521	980.052795	7.402089
230.157181	976.189148	1126.280640	979.161316	1.980237
230.532761	983.470886	1120.039185	975.966309	-5.495110
230.908325	981.390320	1126.429321	971.953918	-6.506113
231.283859	975.074646	1116.546997	973.588562	-1.050441
231.659332	970.839355	1116.992798	981.910461	7.574988
232.034821	967.495667	1112.906128	989.192139	14.920847
232.410263	968.238770	1119.816284	993.501709	16.666679
232.785690	966.604065	1116.621338	982.950684	10.896491
233.161087	967.718689	1106.590454	977.898132	7.330103
233.536469	973.439941	1103.915649	982.207703	6.719842
233.911804	971.953918	1105.698853	986.888733	11.166639
234.287140	975.520508	1118.850342	981.464600	4.147142
234.662430	964.969421	1115.581055	976.189148	7.449442
235.037704	974.108704	1126.949341	981.761902	5.007306
235.412933	977.749512	1133.710938	986.220032	5.431163
235.788162	982.579285	1146.639648	978.046692	-2.762759
236.163345	979.830078	1142.552856	968.610291	-6.895032
236.538513	978.715393	1139.209351	969.799072	-5.555549
236.913635	976.040527	1136.757324	967.941467	-5.039336
237.288742	974.182922	1135.494019	972.028137	-1.335795
237.663834	973.291321	1140.843872	970.987976	-1.374700
238.038879	970.690735	1144.336060	977.526611	3.936689
238.413910	974.183044	1151.915039	976.263489	1.170551
238.788910	972.473938	1156.224609	972.548340	0.040491
239.163879	979.607117	1156.670532	976.263428	-1.888413
239.538834	975.594727	1161.945923	980.052917	2.392360
239.913757	976.634949	1177.995483	986.814453	5.055362
240.288651	977.526611	1202.143677	980.647278	1.389327
240.663528	981.910461	1231.418945	976.932129	-1.995256
241.038361	982.504883	1261.140015	982.207703	-0.106656
241.413177	973.662781	1291.529907	985.774231	3.810224
241.787979	970.319275	1328.755615	988.523438	5.078772
242.162735	968.907532	1368.581909	990.380920	5.372721
242.537476	972.325439	1401.869507	991.198242	4.393682
242.912170	973.885742	1423.194214	993.873230	4.448500
243.286865	971.879639	1427.800903	996.325195	5.361794
243.661514	971.953918	1417.918823	1007.693542	8.013999
244.036148	967.644348	1389.460938	1004.795715	8.807469
244.410751	977.675110	1368.433105	999.074402	5.476354
244.785339	986.145691	1359.665527	993.204529	1.889816
245.159882	993.724548	1374.005859	1003.755432	2.637753
245.534378	985.476990	1403.949829	1007.321960	5.220164
245.908890	980.721619	1468.964722	1005.613037	5.098161
246.283356	972.919861	1549.954712	1002.566589	5.137771
246.657791	972.102539	1637.111816	1005.984558	5.094969
247.032196	970.393555	1702.275391	1010.294128	5.451778
247.406586	970.913574	1749.011719	1019.879150	6.292982
247.780960	971.507996	1759.785645	1023.520020	6.598186
248.155289	974.703125	1744.479370	1024.634399	6.486466
248.529602	971.582336	1691.873047	1016.238281	6.199711
248.903870	975.371826	1628.195435	1003.161072	4.256777
249.278122	971.359436	1558.722534	996.250793	4.237814
249.652344	966.232605	1513.769409	990.752502	4.478219
250.026550	965.043762	1483.899780	986.814453	4.195902
250.400711	967.272766	1475.651978	994.393372	5.334720
250.774857	981.687500	1483.825317	997.291199	3.107453
251.148987	989.117859	1504.481445	1007.990723	3.662048
251.523071	988.449036	1533.162476	1003.012390	2.673581
251.897125	988.077576	1547.948608	1004.424133	2.919701
252.271164	980.795959	1562.660522	996.102234	2.630556
252.645187	985.105469	1557.310669	993.353027	1.441364
253.019165	978.121094	1539.701172	987.185974	1.614174
253.393112	981.018799	1521.273926	992.461426	2.118004
253.767044	980.350098	1500.023438	990.529541	1.958816
254.140930	986.814453	1492.964478	990.678162	0.763352
254.514801	988.820740	1475.800659	989.415039	0.122038
254.888657	984.882629	1478.029663	993.204407	1.687484
255.262466	981.761902	1480.258789	999.743164	3.607096
255.636276	985.625671	1499.726074	1001.972229	3.179643
256.010010	990.306641	1524.840454	1007.024719	3.127600
256.383759	994.616211	1549.286133	1006.578918	2.156725
256.757446	987.111633	1576.035156	1015.420959	4.806962
257.131134	983.247864	1614.375122	1009.699707	4.191206
257.504791	974.554504	1676.120728	1016.758484	6.015680
257.878418	977.006409	1749.011719	1014.752258	4.889325
258.252014	980.647278	1824.280396	1021.588135	4.852922
258.625580	985.179871	1940.044067	1023.074158	3.968553
258.999115	982.356384	2078.841553	1031.916260	4.519886
259.372650	984.511169	2245.354004	1043.730347	4.696793
259.746124	984.956970	2378.281494	1050.566284	4.708832
260.119598	984.213928	2463.803955	1054.429810	4.745631
260.493042	979.161316	2470.714111	1050.937744	4.812195
260.866425	973.514343	2407.705322	1042.021362	4.776701
261.239838	974.851746	2301.749756	1029.538452	4.121395
261.613159	969.947754	2179.818848	1028.721191	4.857826
261.986511	973.217041	2069.776367	1026.566406	4.865160
262.359802	972.845520	1987.671875	1023.965820	5.037344
262.733063	979.384094	1954.087280	1019.953430	4.162225
263.106293	977.898132	1944.353638	1020.622253	4.420702
263.479523	983.470764	1934.694336	1025.674805	4.436816
263.852692	981.316101	1917.233276	1033.105103	5.533503
264.225861	974.777344	1897.617188	1031.619019	6.159430
264.598969	968.461609	1901.183594	1034.591187	7.089956
264.972076	971.730957	1923.623169	1030.653198	6.190012
265.345154	979.978577	1972.217163	1037.711792	5.818481
265.718201	979.012634	2028.315796	1038.752075	5.693249
266.091217	972.473938	2087.237549	1034.368164	5.552228
266.464203	980.052917	2144.302002	1033.996704	4.633355
266.837158	981.613281	2194.679443	1034.442505	4.355016
267.210114	984.436768	2234.059814	1044.176147	4.780592
267.583038	979.532715	2244.759521	1048.337158	5.438111
267.955902	974.034363	2246.096924	1048.782959	5.876173
268.328766	978.046692	2255.384766	1040.832520	4.915365
268.701569	977.452332	2269.948242	1034.665405	4.426558
269.074371	976.412109	2285.031494	1032.213379	4.264133
269.447144	973.588562	2310.443115	1041.203979	5.057799
269.819885	973.365662	2391.507080	1045.290649	5.071778
270.192596	975.891907	2503.258545	1048.857300	4.777202
270.565277	975.000244	2650.526611	1052.498047	4.625281
270.937927	971.508118	2775.503906	1055.916016	4.678941
271.310577	973.885803	2887.404053	1065.575317	4.791672
271.683136	973.365723	2952.567383	1067.804443	4.771556
272.055725	968.535950	2978.127686	1071.891113	5.143093
272.428284	965.935364	2954.721924	1066.689941	5.066133
272.800812	968.090149	2906.573975	1061.786011	4.833461
273.173279	971.433777	2817.039063	1059.556763	4.774747
273.545776	970.244934	2764.878662	1064.460815	5.249866
273.918152	972.994141	2715.021484	1069.067505	5.515032
274.290558	975.148926	2716.507568	1065.501099	5.188602
274.662964	984.733887	2715.021729	1052.275024	3.903463
275.035278	980.052917	2730.922607	1050.046021	3.997619
275.407593	978.789734	2767.627686	1053.835449	4.195222
275.779907	973.291321	2817.113281	1064.609375	4.952650
276.152161	974.925964	2869.645264	1069.067505	4.968627
276.524384	980.572998	2921.136963	1072.708374	4.747866
276.896606	983.768066	2960.294922	1072.634033	4.496067
277.268799	974.480164	2977.904541	1070.182129	4.776919
277.640930	967.198486	2981.025391	1064.163452	4.814960
278.013031	957.539124	2983.328369	1068.324463	5.468750
278.385162	963.929199	2989.198486	1067.655762	5.121618
278.757233	966.009583	2986.821045	1070.256348	5.158659
279.129272	969.056091	3013.867188	1074.937500	5.178053
279.501282	968.684570	3054.733398	1069.661987	4.840607
279.873230	974.182922	3131.413818	1067.507202	4.326115
280.245178	977.377991	3228.750244	1067.284302	3.993400
280.617126	977.452332	3361.603516	1083.185059	4.434816
280.988983	973.960022	3487.175049	1091.506958	4.677154
281.360870	975.074524	3596.474609	1099.457397	4.744902
281.732697	977.452332	3668.622314	1097.971313	4.478312
282.104492	972.102539	3716.176514	1101.537842	4.716903
282.476288	966.678467	3728.436279	1095.519409	4.665179
282.848053	966.604187	3722.343506	1090.466675	4.494710
283.219757	976.114807	3725.612549	1091.878418	4.210355
283.591461	981.018799	3703.024414	1098.788696	4.326585
283.963135	977.898132	3719.965820	1111.865845	4.885646
284.334747	969.724792	3770.863037	1121.005005	5.400670
284.706360	972.473938	3865.301758	1118.404663	5.044570
285.077942	975.371765	3956.099609	1118.404663	4.798590
285.449524	980.572998	4051.653076	1119.667725	4.529180
285.821014	978.195251	4086.278076	1128.435425	4.833854
286.192535	979.978516	4123.354980	1129.698608	4.763034
286.563995	983.693665	4116.593262	1127.618042	4.593967
286.935425	981.687500	4096.902832	1112.460327	4.197875
287.306824	982.950684	4027.132813	1109.636841	4.161583
287.678223	970.319275	3951.121826	1106.367554	4.564149
288.049561	970.467834	3905.128174	1113.500610	4.873912
288.420898	959.248230	3879.494141	1114.912231	5.330510
288.792145	966.678467	3912.632813	1120.930786	5.236073
289.163452	963.260559	4010.340820	1128.286743	5.415879
289.534668	970.690735	4155.379395	1122.268311	4.759573
289.905914	970.839355	4269.434082	1126.206421	4.710099
290.277039	976.857910	4380.517090	1125.760620	4.374783
290.648193	977.749512	4434.832031	1137.648926	4.625270
291.019318	972.622559	4435.872559	1136.460083	4.730745
291.390381	971.508057	4373.086426	1129.401367	4.641766
291.761475	973.142761	4291.354004	1121.376709	4.467285
292.132507	974.480164	4249.447266	1116.101196	4.324350
292.503510	977.006531	4236.146484	1128.584106	4.650846
292.874481	972.771240	4280.579590	1141.066895	5.087830
293.245422	985.254089	4358.374512	1147.308228	4.804280
293.616364	985.328430	4495.017090	1150.800659	4.714726
293.987213	984.808289	4636.563965	1144.781982	4.380734
294.358093	977.303711	4781.529297	1150.057495	4.541102
294.728943	971.433777	4901.824707	1154.441406	4.656219
295.099731	973.811523	5032.672363	1164.992432	4.710211
295.470490	983.842346	5141.971191	1168.187500	4.433368
295.841248	992.312805	5262.193359	1170.787964	4.179863
296.211975	992.015625	5379.962891	1172.422607	4.111421
296.582642	980.647278	5501.968262	1184.236816	4.502878
296.953308	974.405945	5553.014160	1191.741333	4.746757
297.323883	969.724792	5538.302246	1195.902222	4.950719
297.694519	975.223145	5427.739746	1179.332886	4.584143
298.065063	974.703125	5306.774902	1162.020264	4.323962
298.435608	983.322266	5130.156738	1163.952271	4.355853
298.806122	977.898132	4940.016113	1158.751099	4.564553
299.176575	978.715393	4739.770996	1157.933716	4.765107
299.547028	970.839355	4614.124512	1140.695313	4.662165
299.917450	969.650574	4554.459473	1142.775879	4.829415
300.287872	976.189148	4560.106934	1140.175171	4.575608
300.658234	977.006409	4548.589844	1138.020508	4.508199
301.028564	981.464661	4541.605469	1136.980347	4.368245
301.398865	977.006531	4489.296387	1127.246582	4.277553
301.769135	978.343994	4446.274902	1126.206421	4.263708
302.139374	972.251160	4400.281250	1126.132080	4.488903
302.509583	971.136658	4376.132813	1133.265259	4.761492
302.879791	975.074646	4318.919922	1132.596436	4.710798
303.249939	973.365662	4257.396973	1125.834839	4.642745
303.620087	971.507996	4186.363770	1119.890625	4.615530
303.990173	973.662842	4170.908691	1117.958740	4.513131
304.360260	981.316101	4175.887207	1115.060913	4.186628
304.730286	977.675232	4167.937012	1114.912231	4.301747
305.100281	972.176819	4154.265137	1117.141479	4.555645
305.470276	972.251038	4153.521973	1123.605835	4.757683
305.840179	972.548340	4181.979980	1127.320923	4.822430
306.210144	974.108704	4228.122559	1124.943237	4.635338
306.579987	970.765076	4262.004395	1122.862671	4.621286
306.949890	980.647278	4321.223145	1128.881226	4.437377
307.319702	980.127136	4391.662598	1137.426025	4.610795
307.689484	984.288086	4503.785645	1147.754028	4.644582
308.059265	977.600830	4619.623047	1143.741821	4.561779
308.429016	975.669006	4733.603027	1146.268066	4.539703
308.798737	974.405823	4803.150879	1144.187622	4.434398
309.168396	978.269592	4843.868652	1152.732422	4.513216
309.538055	982.207703	4866.456543	1152.063599	4.372941
309.907684	982.430603	4867.719727	1146.416626	4.220690
310.277313	979.532776	4884.140625	1145.079224	4.239771
310.646851	977.823914	4860.363770	1146.565186	4.346157
311.016388	977.675293	4862.593262	1154.738525	4.557708
311.385895	981.687561	4804.117188	1151.617798	4.445608
311.755371	977.898132	4762.729980	1146.416748	4.452473
312.124817	976.560730	4695.708984	1141.066895	4.423222
312.494232	976.114929	4626.236328	1138.763550	4.455978
312.863617	979.235657	4609.146484	1137.426147	4.357972
313.232971	977.303711	4625.047363	1135.197144	4.328523
313.602295	978.195313	4715.622070	1140.992554	4.355865
313.971619	985.476990	4784.277832	1140.472412	4.080114
314.340820	985.922852	4829.603027	1144.782104	4.132999
314.710083	980.275818	4819.869141	1145.004883	4.290274
315.079285	973.960022	4747.126465	1154.887207	4.795102
315.448486	976.634949	4665.021973	1158.082153	4.919419
315.817596	984.362366	4544.279785	1146.416626	4.552191
316.186707	988.671936	4444.565918	1137.351685	4.302208
316.555786	988.226135	4334.746094	1124.051636	4.058709
316.924866	983.545105	4269.657715	1121.971191	4.212457
317.293884	972.845520	4267.056641	1121.153687	4.502084
317.662872	974.628845	4275.081543	1130.961792	4.736712
318.031830	971.136536	4332.442871	1140.175293	5.028960
318.400757	978.343933	4352.059082	1137.797607	4.726353
318.769684	968.015930	4399.761719	1132.596436	4.795825
319.138550	968.090149	4392.405273	1125.834839	4.606606
319.507416	968.907471	4370.188477	1115.506714	4.310119
319.876190	972.028137	4303.241699	1107.259155	4.059512
320.244995	973.885742	4228.939453	1098.342896	3.823505
320.613770	980.572998	4190.970215	1102.355103	3.793366
320.982483	980.275696	4206.425293	1110.528442	4.037405
321.351166	984.362488	4251.081543	1123.828613	4.269303
321.719818	970.839355	4306.288574	1131.556152	4.818445
322.088440	969.353333	4420.640625	1137.351685	4.867701
322.457062	968.238770	4586.707031	1136.237183	4.642805
322.825623	970.913635	4768.525879	1138.466431	4.412056
323.194183	966.678406	4897.367188	1142.404419	4.470616
323.562653	963.854980	4969.737793	1143.073120	4.473874
323.931183	964.746582	4990.616699	1146.416626	4.512566
324.299591	970.467773	4958.592285	1139.506470	4.238551
324.668060	970.244934	4902.345215	1145.004883	4.444443
325.036407	970.616455	4827.001953	1142.478516	4.456558
325.404755	980.275818	4755.151367	1147.011108	4.416975
325.773102	977.452332	4688.056152	1138.317627	4.335286
326.141388	972.919861	4599.338379	1137.723267	4.544523
326.509674	967.867249	4493.753906	1132.967773	4.682525
326.877899	979.978577	4401.841309	1134.602539	4.518707
327.246124	983.693787	4342.102051	1133.116577	4.449214
327.614288	987.483154	4305.173828	1125.537720	4.161164
327.982422	975.891907	4306.362793	1124.720337	4.468690
328.350525	976.412109	4326.275879	1119.296265	4.265372
328.718628	971.062256	4389.358887	1122.713989	4.436471
329.086700	977.452332	4430.819824	1123.382813	4.225744
329.454712	977.006409	4476.293457	1135.345581	4.524898
329.822693	975.668945	4505.494141	1143.593140	4.757295
330.190674	971.656677	4544.800293	1151.840820	5.042735
330.558563	981.316101	4600.229980	1149.388794	4.644286
330.926483	979.607117	4677.059082	1147.977051	4.553675
331.294312	985.625549	4768.748535	1144.484863	4.199158
331.662231	983.545105	4882.580078	1148.051392	4.219154
332.029999	988.597656	4976.424805	1148.422852	4.007826
332.397766	981.018799	5057.414551	1150.651978	4.161352
332.765503	980.721619	5101.773438	1157.264893	4.283937
333.133240	982.430603	5137.290527	1162.837524	4.342070
333.500916	984.213867	5136.175293	1171.456665	4.509743
333.868561	982.727844	5124.212891	1166.478394	4.436828
334.236176	978.938293	5090.107910	1164.620972	4.516541
334.603790	981.836182	5076.956543	1151.171997	4.135063
334.971344	978.046692	5031.780273	1137.648926	3.937166
335.338867	980.498718	4993.588867	1136.831665	3.895575
335.706360	978.789734	4964.982422	1153.847046	4.391592
336.073853	979.681335	4981.477539	1169.673462	4.747671
336.441284	985.031250	5023.532715	1173.388550	4.664040
336.808655	984.734070	5055.705566	1162.614624	4.369487
337.176086	986.665833	5119.383301	1157.339233	4.129811
337.543396	979.235535	5135.357910	1153.921265	4.203094
337.910706	976.932129	5169.537598	1155.407349	4.256905
338.277954	975.223206	5147.543457	1157.413452	4.366641
338.645264	977.452332	5124.361328	1156.893433	4.327105
339.012421	982.207703	5049.835938	1158.676636	4.338374
339.379669	983.396484	4949.750488	1151.469360	4.237465
339.746796	983.842285	4851.150879	1146.565308	4.207655
340.113953	979.235535	4796.018066	1135.642700	4.097880
340.481018	978.715515	4781.826172	1133.636597	4.073536
340.848114	974.925964	4805.008301	1137.946167	4.256311
341.215118	975.223206	4854.939941	1136.162964	4.148235
341.582153	972.399719	4973.749512	1149.537476	4.426950
341.949066	972.325378	5146.132324	1152.732422	4.322362
342.316010	971.879639	5388.210449	1175.766235	4.616651
342.682922	975.966248	5639.725098	1185.202637	4.486433
343.049835	972.622620	5949.790527	1196.050903	4.489065
343.416656	975.446106	6243.954590	1205.041504	4.357882
343.783478	973.439941	6487.072754	1205.858887	4.215351
344.150269	974.925964	6637.982422	1214.106445	4.223523
344.516998	974.703125	6655.740723	1206.899048	4.087210
344.883728	977.972412	6579.505859	1206.973511	4.088186
345.250427	980.795898	6442.268066	1204.001343	4.086910
345.617065	977.898132	6287.718750	1201.549316	4.212029
345.983704	972.994141	6135.770996	1193.821777	4.277304
346.350281	976.932190	6004.403809	1188.843506	4.215067
346.716827	979.161316	5861.667969	1177.252197	4.057155
347.083405	977.229492	5765.074219	1180.075684	4.236691
347.449860	979.309875	5685.941406	1182.824829	4.324005
347.816376	981.687561	5673.830078	1190.106567	4.441873
348.182770	990.678162	5679.923340	1185.722778	4.159403
348.549194	983.842285	5718.040527	1180.670288	4.157578
348.915558	979.978577	5791.525391	1180.670288	4.171043
349.281921	975.000305	5888.490723	1183.865112	4.250844
349.648193	971.582336	5948.527344	1183.567993	4.259353
350.014526	975.223145	5981.369141	1187.208862	4.234509
350.380737	977.155090	5997.195313	1191.295532	4.265712
350.746948	984.585266	6033.455078	1192.855957	4.125095
351.113159	982.281921	6082.197754	1195.902344	4.188704
351.479309	979.384094	6148.476074	1201.326538	4.293645
351.845428	973.960022	6269.736816	1205.115845	4.364909
352.211517	975.446106	6397.092285	1214.552246	4.410213
352.577576	973.588562	6552.757324	1218.713257	4.393570
352.943604	978.938293	6690.588379	1228.001099	4.360610
353.309601	979.607117	6859.998535	1233.202271	4.312555
353.675537	982.727844	7004.145996	1238.700562	4.251037
354.041473	978.641113	7154.906250	1247.022583	4.345368
354.407379	980.127258	7248.007324	1246.205200	4.245103
354.773254	975.074707	7394.012207	1254.081299	4.346616
355.139038	979.532776	7526.716797	1255.493042	4.214946
355.504913	975.594727	7806.095215	1268.718994	4.291402
355.870636	981.761780	8082.798340	1284.173950	4.258705
356.236389	978.938293	8417.161133	1296.656738	4.271430
356.602081	975.743347	8690.149414	1309.882690	4.331368
356.967804	975.891907	8881.702148	1315.901123	4.300751
357.333405	975.891907	8974.431641	1321.771118	4.324280
357.699036	978.938293	8982.009766	1316.941284	4.223416
358.064606	973.514221	8928.511719	1313.151855	4.269487
358.430176	975.520447	8851.534180	1311.963135	4.271738
358.795654	972.176758	8866.098633	1316.347046	4.359941
359.161163	974.108643	9046.059570	1324.966187	4.346626
359.526581	977.972412	9417.052734	1343.170288	4.327461
359.892029	977.675232	9960.354492	1369.027710	4.356745
360.257416	979.458496	10560.051758	1395.182251	4.339228
360.622772	968.090149	11085.223633	1409.596802	4.363950
360.988098	968.833191	11373.741211	1423.863159	4.373224
361.353394	969.130371	11472.266602	1424.457520	4.335154
361.718658	977.229492	11304.788086	1424.829102	4.334031
362.083893	983.916687	10906.375977	1402.092407	4.214437
362.449097	980.944519	10282.456055	1372.074219	4.205012
362.814209	977.898132	9626.734375	1343.170288	4.223368
363.179382	983.024963	9000.065430	1318.501831	4.184547
363.544434	984.362366	8559.599609	1304.830200	4.230466
363.909546	986.145691	8249.385742	1282.613525	4.081757
364.274536	978.343933	8095.207031	1269.833496	4.095759
364.639587	969.501892	7952.025879	1262.403198	4.194777
365.004517	964.077820	7853.500488	1260.099731	4.296759
365.369507	963.632019	7777.711426	1256.087524	4.291930
365.734344	976.932190	7762.777344	1260.099976	4.172918
366.099274	988.820618	7762.702637	1264.557983	4.070596
366.464081	992.238525	7738.703125	1266.266968	4.061808
366.828918	987.631775	7698.281250	1262.477539	4.095665
367.193665	979.086914	7606.518066	1261.437378	4.260330
367.558411	971.582336	7531.546875	1259.728394	4.392494
367.923126	970.764954	7431.312500	1248.880249	4.304826
368.287781	970.913635	7399.436035	1245.016479	4.263855
368.652435	972.251160	7346.755859	1238.329224	4.174098
369.017059	966.678406	7360.427246	1241.895630	4.304473
369.381653	965.563782	7389.256348	1238.180542	4.243926
369.746185	971.062256	7480.946777	1248.359985	4.259641
370.110687	975.000305	7574.048340	1251.852173	4.195331
370.475220	974.331543	7666.852051	1260.619995	4.277738
370.839661	965.712463	7717.898438	1260.842896	4.370887
371.204041	972.474060	7763.222656	1259.431152	4.225707
371.568451	974.554443	7759.655762	1256.310425	4.152568
371.932770	976.857849	7723.544922	1263.443359	4.247796
372.297150	972.548279	7677.849121	1262.774658	4.328312
372.661377	973.365540	7689.886719	1258.985229	4.252494
373.025696	982.281982	7743.458496	1250.068970	3.960656
373.389862	992.535828	7805.649902	1254.378540	3.843216
373.754059	996.028015	7909.450684	1261.214478	3.835820
374.118225	991.718323	8017.486816	1271.468140	3.981768
374.482361	980.795898	8179.169434	1276.074951	4.102025
374.846436	976.263367	8382.536133	1291.084106	4.250731
375.210510	978.046692	8691.634766	1307.207764	4.267289
375.574524	980.350098	9024.584961	1323.405762	4.264615
375.938538	978.046692	9329.078125	1332.024902	4.238737
376.302460	977.898132	9582.375977	1328.309692	4.072433
376.666412	968.313049	9752.158203	1342.278687	4.257425
377.030304	972.028137	9788.121094	1347.405640	4.257867
377.394196	966.529724	9666.709961	1351.492188	4.424764
377.757996	977.749451	9417.052734	1334.476929	4.226978
378.121796	978.046692	9087.296875	1317.609985	4.187357
378.485565	981.167419	8788.154297	1309.065308	4.200057
378.849304	975.520325	8563.090820	1293.536011	4.191272
379.212982	975.743347	8443.983398	1286.180054	4.156758
379.576630	977.600891	8360.170898	1281.424683	4.115420
379.940277	974.703125	8352.740234	1286.328613	4.223691
380.303864	970.765137	8349.694336	1295.022095	4.394363
380.667450	972.176941	8379.637695	1295.616577	4.366404
381.030945	976.783508	8383.501953	1294.130493	4.284583
381.394501	974.034363	8430.683594	1288.557861	4.218027
381.757935	970.319153	8492.875977	1286.923096	4.208728
382.121399	971.136536	8555.883789	1286.923096	4.163442
382.484741	977.972412	8687.473633	1293.536011	4.093178
382.848145	977.303650	8843.286133	1299.108765	4.091099
383.211487	978.641113	8978.072266	1314.786743	4.202119
383.574768	978.566895	9039.074219	1323.034302	4.273520
383.938019	975.594727	9064.560547	1330.464478	4.387084
384.301270	977.600891	9113.600586	1323.108521	4.246653
384.664459	976.040527	9149.265625	1318.798950	4.193674
385.027649	980.795898	9172.374023	1318.130249	4.118063
385.390778	977.377930	9284.868164	1321.102417	4.137525
385.753876	979.012634	9384.359375	1326.080688	4.129134
386.116943	982.059082	9489.274414	1328.309692	4.070082
386.479980	981.687561	9507.107422	1329.275635	4.077079
386.842987	976.040527	9558.301758	1330.910278	4.134921
387.205994	975.074646	9572.196289	1337.597656	4.216795
387.568909	976.709290	9542.030273	1339.752319	4.238522
387.931793	979.532715	9457.622070	1340.941284	4.262854
388.294678	974.405823	9414.749023	1326.600708	4.172756
388.657471	973.365662	9425.522461	1333.882446	4.265382
389.020294	976.412109	9490.909180	1329.127075	4.142523
389.383057	982.059082	9659.056641	1343.467407	4.165131
389.745819	979.755676	9849.197266	1354.835815	4.228904
390.108521	980.127197	10086.297852	1368.507690	4.265025
390.471191	970.690735	10379.125000	1375.714844	4.304904
390.833801	967.124207	10607.307617	1371.925415	4.199103
391.196442	962.963196	10790.985352	1385.151367	4.295759
391.558960	965.415222	10802.426758	1387.900513	4.294854
391.921509	968.907471	10796.408203	1392.061523	4.305815
392.284027	970.765076	10725.077148	1379.801392	4.193389
392.646484	974.108643	10678.639648	1386.042969	4.244763
393.008911	976.560547	10644.905273	1395.702271	4.335196
393.371307	976.412048	10679.901367	1404.692993	4.413680
393.733673	977.898132	10644.607422	1401.052124	4.377436
394.096008	977.452332	10574.094727	1392.210083	4.321905
394.458344	970.021973	10423.706055	1386.265991	4.402982
394.820587	964.895203	10214.246094	1376.309204	4.448031
395.182831	960.288391	9992.750977	1363.603638	4.465175
395.545013	968.758972	9766.276367	1353.647095	4.374963
395.907196	971.359558	9579.254883	1347.702759	4.372070
396.269287	982.579285	9469.213867	1348.297241	4.309340
396.631409	985.179871	9401.747070	1348.668701	4.318730
396.993469	992.238525	9388.967773	1349.040161	4.249293
397.355530	987.557434	9381.387695	1357.139160	4.403017
397.717499	985.848450	9416.532227	1361.745972	4.458684
398.079468	981.241699	9450.414063	1363.380615	4.512116
398.441376	975.891907	9448.928711	1358.105103	4.510935
398.803284	973.439941	9396.842773	1356.841919	4.551629
399.165131	980.275696	9384.062500	1366.798462	4.599388
399.526978	986.442871	9357.461914	1378.984009	4.689287
399.888763	982.727722	9371.132813	1387.231812	4.822181
400.250519	974.182922	9363.553711	1393.027344	4.992560
400.612244	974.554443	9404.569336	1393.770508	4.972898
400.973938	980.498718	9483.479492	1403.652710	4.976537
401.335602	976.857849	9557.484375	1401.795044	4.952286
401.697205	975.446106	9709.731445	1417.918945	5.065931
402.058807	977.526611	9878.546875	1431.739136	5.102926
402.420349	981.538879	10142.692383	1460.642944	5.229735
402.781860	983.396545	10380.759766	1469.336304	5.171022
403.143341	980.052917	10591.630859	1481.744751	5.219661
403.504822	980.201599	10793.139648	1497.051147	5.267021
403.866241	973.737122	10947.019531	1507.676392	5.353697
404.227631	967.124207	11054.758789	1523.577271	5.516190
404.588959	968.907532	11063.824219	1526.103516	5.519570
404.950287	969.576172	10999.551758	1534.276978	5.630131
405.311554	974.926025	10885.348633	1524.246094	5.542852
405.672821	979.012695	10765.275391	1519.119141	5.519027
406.034027	976.337708	10638.959961	1515.998413	5.585034
406.395203	982.950684	10463.160156	1508.939819	5.548286
406.756348	976.857849	10344.276367	1509.905640	5.690444
407.117493	979.681396	10298.208008	1506.339233	5.651729
407.478516	980.424377	10352.821289	1524.543335	5.805548
407.839600	980.350098	10421.327148	1540.592773	5.934160
408.200592	982.653503	10513.759766	1560.431519	6.062025
408.561554	981.687561	10631.901367	1564.518066	6.039560
408.922485	977.972473	10762.004883	1566.375610	6.013913
409.283417	983.025085	10885.273438	1580.864746	6.037414
409.644257	978.938293	10995.315430	1603.824219	6.238642
410.005096	986.294373	11089.531250	1625.000610	6.321798
410.365906	980.870300	11080.616211	1623.737427	6.365181
410.726715	977.155090	11064.418945	1622.102661	6.393682
411.087433	971.879639	10975.848633	1611.254517	6.391212
411.448120	966.455505	10932.901367	1613.186401	6.489082
411.808807	969.947754	10869.447266	1606.053223	6.425632
412.169434	975.520447	10817.583984	1606.127563	6.407265
412.530029	982.430603	10874.425781	1615.638306	6.401213
412.890564	985.848450	10955.713867	1623.960327	6.400406
413.251099	979.012634	11119.996094	1634.214233	6.460927
413.611572	975.891846	11251.809570	1641.867188	6.480933
413.972076	973.439941	11429.765625	1654.647339	6.514787
414.332489	971.433838	11564.625000	1670.919556	6.603163
414.692871	966.901367	11779.359375	1686.448853	6.654800
415.053223	966.901306	11950.627930	1701.234985	6.685651
415.413574	968.907410	12231.416992	1725.755005	6.720062
415.773834	980.572937	12469.557617	1744.627930	6.650327
416.134094	981.538879	12760.526367	1767.958984	6.676466
416.494263	983.990906	13024.598633	1789.432617	6.689378
416.854462	980.275818	13390.687500	1813.655273	6.715163
417.214630	981.167480	13831.972656	1853.481445	6.788011
417.574738	975.297546	14253.120117	1879.338501	6.808654
417.934784	978.343933	14713.871094	1911.214478	6.791662
418.294861	980.424316	15248.627930	1937.889160	6.710479
418.654846	989.712219	15893.426758	1984.774292	6.676604
419.014832	993.501648	16530.498047	2034.037109	6.697146
419.374756	992.089905	17191.792969	2081.887939	6.727272
419.734680	994.616211	17896.033203	2116.587158	6.638324
420.094543	983.916687	18465.712891	2150.841064	6.675082
420.454376	982.653503	18820.507813	2166.147217	6.634731
420.814148	984.585388	18992.146484	2183.385498	6.657204
421.173920	987.408875	19128.271484	2192.970459	6.645557
421.533691	986.517273	19234.820313	2209.465820	6.701711
421.893341	977.006531	19256.812500	2207.533936	6.731621
422.253021	972.325439	19206.583984	2209.317139	6.783888
422.612640	979.978577	19145.134766	2212.066162	6.782698
422.972260	982.802063	19169.283203	2218.827637	6.796398
423.331757	991.346863	19271.302734	2222.691406	6.736037
423.691315	988.746277	19450.966797	2231.459229	6.731113
424.050781	986.591553	19451.708984	2242.381592	6.800878
424.410248	978.938293	19260.677734	2223.211670	6.806099
424.769653	968.164368	18940.951172	2204.933105	6.881341
425.128998	974.034363	18567.953125	2176.177979	6.832722
425.488373	978.566833	18093.455078	2160.054443	6.903274
425.847656	981.613281	17627.503906	2122.679932	6.854945
426.206940	976.634949	17193.798828	2101.949951	6.939036
426.566193	978.715393	16855.201172	2070.296631	6.875459
426.925385	975.520325	16460.726563	2047.040039	6.919635
427.284576	974.108704	16033.932617	2010.557251	6.882208
427.643677	975.223206	15664.424805	1991.833130	6.920798
428.002777	982.133301	15407.559570	1978.384277	6.906215
428.361847	981.836121	15180.492188	1970.136719	6.960522
428.720856	977.155090	14966.127930	1958.842651	7.017581
429.079865	974.182922	14835.726563	1947.623047	7.022595
429.438812	980.498718	14812.989258	1931.350586	6.874047
429.797760	979.607117	14804.742188	1920.502319	6.805686
430.156616	979.755676	14651.828125	1916.118530	6.848727
430.515503	977.303711	14540.374023	1911.808960	6.890071
430.874268	974.703125	14554.120117	1912.626343	6.906948
431.233093	980.572998	14684.817383	1920.502319	6.858673
431.591827	981.241699	14869.163086	1930.830566	6.837516
431.950562	984.288147	15008.109375	1943.759155	6.841723
432.309204	973.662903	15150.770508	1955.201782	6.923407
432.667877	972.622742	15312.527344	1975.263672	6.991964
433.026459	974.034363	15384.229492	1983.288452	7.003750
433.385010	978.269714	15449.764648	1986.929077	6.969974
433.743561	973.365540	15462.694336	1986.854858	6.994729
434.102051	970.839355	15497.838867	1983.957031	6.974032
434.460510	973.439880	15514.928711	1984.105835	6.950223
434.818939	978.195313	15485.355469	1992.278931	6.990228
435.177338	980.795898	15462.768555	1993.913696	6.995717
435.535675	974.480164	15440.031250	1988.935181	7.012903
435.894012	975.371826	15445.901367	1987.672241	6.995601
436.252289	976.263428	15622.147461	1993.096191	6.942789
436.610535	975.000305	15716.957031	1998.668945	6.943913
436.968719	971.582336	16034.601563	1999.337769	6.823037
437.326935	966.529785	16287.973633	2017.170410	6.857321
437.685028	970.987976	16621.148438	2037.083374	6.812042
438.043152	969.947754	16856.615234	2064.203857	6.887889
438.401215	971.136536	17150.257813	2087.980469	6.902996
438.759277	965.043701	17529.201172	2111.608887	6.921965
439.117249	970.616455	18002.804688	2142.370361	6.879644
439.475250	967.867188	18413.550781	2169.936523	6.890354
439.833130	974.331604	18821.994141	2213.998291	6.945821
440.191071	970.987976	19013.546875	2233.539795	6.997632
440.548889	980.573059	19125.373047	2240.969971	6.946326
440.906708	980.795898	19066.302734	2218.976563	6.846259
441.264496	979.830017	18880.693359	2194.605225	6.786126
441.622223	969.650452	18652.062500	2174.543213	6.814075
441.979950	972.622559	18343.855469	2160.351563	6.837333
442.337616	971.953796	18092.935547	2155.893555	6.915139
442.695251	973.216980	17802.560547	2140.290039	6.934751
443.052887	972.399658	17703.218750	2128.475830	6.909860
443.410461	968.758789	17794.685547	2128.847168	6.894648
443.768005	973.068359	18012.912109	2148.908936	6.900536
444.125458	966.604065	18250.308594	2170.753906	6.966966
444.482941	970.616455	18595.964844	2194.382080	6.943214
444.840393	971.508118	19134.734375	2228.487305	6.920462
445.197754	979.086914	19659.906250	2251.521240	6.811448
445.555084	981.761902	20065.080078	2280.499268	6.805616
445.912415	981.093079	20300.767578	2290.678467	6.778507
446.269714	982.727783	20446.101563	2310.517334	6.821991
446.626953	984.436768	20473.816406	2310.963135	6.806406
446.984161	983.916687	20321.720703	2295.731201	6.783678
447.341309	978.120911	20065.748047	2282.802490	6.835222
447.698456	976.783508	19736.511719	2257.762695	6.828346
448.055542	977.080811	19497.554688	2248.994873	6.867610
448.412598	978.492493	19171.142578	2225.440918	6.854133
448.769653	977.155090	18820.138672	2199.360596	6.849782
449.126617	979.978516	18346.158203	2179.521729	6.907352
449.483582	980.424316	18040.550781	2165.330078	6.945468
449.840515	975.743347	17708.937500	2148.611572	7.009231
450.197388	966.901367	17516.419922	2117.776123	6.954128
450.554230	964.895203	17346.712891	2101.281006	6.936872
450.911041	964.003601	17357.859375	2095.039551	6.899145
451.267822	974.331604	17439.220703	2103.955811	6.860807
451.624573	978.121094	17498.960938	2107.671143	6.837122
451.981262	985.328430	17432.681641	2112.352295	6.852312
452.337921	976.709290	17238.826172	2107.522217	6.953664
452.694580	972.102539	16942.208984	2077.355225	6.920760
453.051147	972.176758	16747.238281	2061.826172	6.907418
453.407715	979.309875	16399.054688	2032.773804	6.831915
453.764221	984.065247	16229.496094	2019.845215	6.794036
454.120728	981.018799	15866.082031	1984.551392	6.741877
454.477142	970.616394	15809.835938	1979.424438	6.798255
454.833557	969.204651	15708.932617	1977.938477	6.843639
455.189911	969.799133	15721.786133	1983.288208	6.870187
455.546265	973.885742	15778.108398	1989.604004	6.861004
455.902557	970.987976	15819.569336	1994.062134	6.890047
456.258820	969.724792	16054.215820	2024.823608	6.994594
456.615051	970.839355	16323.637695	2053.207031	7.049970
456.971252	972.325378	16655.994141	2078.172852	7.050949
457.327393	971.508057	17207.025391	2106.110596	6.988398
457.683502	966.752625	17880.800781	2146.754150	6.976458
458.039612	963.780579	18830.166016	2215.335693	7.005084
458.395630	965.935364	19746.244141	2280.944824	7.002066
458.751648	975.966309	20564.912109	2328.870117	6.906466
459.107605	978.418274	21294.492188	2366.392822	6.831903
459.463562	977.675293	21558.562500	2367.284912	6.751943
459.819458	973.885742	21501.794922	2356.139404	6.733533
460.175323	969.947754	20947.421875	2316.015625	6.737928
460.531158	975.000305	20226.984375	2273.514404	6.744833
460.886932	978.046692	19414.039063	2227.892822	6.779381
461.242676	979.681396	18668.187500	2188.958008	6.836511
461.598419	970.542175	18128.304688	2154.258545	6.899014
461.954102	972.919739	17609.671875	2113.318115	6.854694
462.309723	973.662903	17175.150391	2077.578369	6.813668
462.665344	980.572998	16822.285156	2055.064697	6.782674
463.020905	976.709229	16612.304688	2050.755127	6.869236
463.376373	982.579102	16548.478516	2054.098633	6.883762
463.731873	980.647278	16519.871094	2058.259766	6.934790
464.087341	979.978577	16567.425781	2059.225586	6.923822
464.442749	978.566833	16722.792969	2062.346436	6.883663
464.798126	977.749451	16864.861328	2066.135742	6.850749
465.153503	974.182922	17049.726563	2073.491699	6.838393
465.508820	971.582336	17180.869141	2083.820068	6.861732
465.864105	977.675110	17298.789063	2084.042725	6.778751
466.219330	978.418152	17523.406250	2098.457520	6.769659
466.574524	972.771179	17600.830078	2106.853516	6.820293
466.929657	971.433655	17503.193359	2107.002441	6.869014
467.284790	968.833191	17295.443359	2094.965332	6.897525
467.639893	974.331543	17064.212891	2068.439209	6.799973
467.994934	966.158203	16892.947266	2058.705322	6.859808
468.349945	971.656677	16652.947266	2049.491943	6.873383
468.704926	973.142761	16501.667969	2047.263062	6.917079
469.059875	979.978577	16367.254883	2036.191772	6.864198
469.414764	972.622620	16322.153320	2027.126831	6.869944
469.769653	971.508057	16274.749023	2009.888550	6.785363
470.124451	958.876648	16323.565430	2008.922485	6.834150
470.479248	970.170654	16376.989258	2013.455078	6.771576
470.834015	966.232666	16460.876953	2035.151733	6.898635
471.188721	980.870300	16687.427734	2050.755127	6.811707
471.543365	981.836121	16922.818359	2060.043213	6.763742
471.898010	986.220032	17147.880859	2076.018311	6.743108
472.252625	982.950684	17409.052734	2093.107666	6.758493
472.607178	977.823914	17646.968750	2111.757813	6.802592
472.961700	978.418274	17752.033203	2113.540771	6.767310
473.316193	979.532776	17782.498047	2124.092041	6.811651
473.670654	978.864014	17727.142578	2129.813232	6.872045
474.025055	977.823914	17837.408203	2140.067139	6.893664
474.379456	980.127258	17887.787109	2142.741943	6.876260
474.733795	973.588562	18051.845703	2149.726318	6.886755
475.088104	978.566895	18321.712891	2168.970703	6.863828
475.442383	972.473938	18659.568359	2191.335938	6.891251
475.796570	981.910461	18954.921875	2213.552490	6.852731
476.150787	977.898132	19326.955078	2229.750244	6.822433
476.504944	980.350098	19681.156250	2249.886475	6.788672
476.859070	980.870300	20070.056641	2271.211182	6.759538
477.213135	984.734070	20326.103516	2298.554688	6.792800
477.567200	987.111633	20610.980469	2319.953857	6.791945
477.921173	984.288269	20878.767578	2353.241211	6.881070
478.275146	976.040527	21112.968750	2368.770508	6.916298
478.629089	971.136536	21393.908203	2392.398682	6.959203
478.983002	970.690674	21856.218750	2412.089111	6.901423
479.336823	972.919739	22411.632813	2432.225342	6.806871
479.690643	973.960144	23107.107422	2470.639648	6.762163
480.044403	975.446106	23984.771484	2515.295654	6.692285
480.398163	971.805359	25203.630859	2605.945068	6.743774
480.751862	973.885742	26841.783203	2712.643799	6.721683
481.105499	974.108704	29027.398438	2852.927002	6.697320
481.459137	979.755676	32213.203125	3062.683838	6.668903
481.812744	977.972473	36461.609375	3351.052734	6.687816
482.166290	976.560608	41570.738281	3719.148438	6.756112
482.519806	971.582336	46727.792969	4103.516113	6.844828
482.873291	971.953918	51007.031250	4437.135254	6.925504
483.226715	975.446106	53771.917969	4679.808105	7.016306
483.580139	980.647278	54832.656250	4782.717285	7.060220
483.933502	975.223145	54350.656250	4743.336914	7.059640
484.286804	967.718567	52581.953125	4568.651855	6.976628
484.640106	969.056091	49880.750000	4307.997070	6.826468
484.993347	975.297546	46993.644531	4065.770752	6.715741
485.346558	980.498718	44678.222656	3903.344727	6.688783
485.699738	981.910461	43480.390625	3834.912109	6.713185
486.052887	988.300476	43494.433594	3856.979736	6.748859
486.405975	987.706055	44343.050781	3908.546143	6.736978
486.759064	995.953674	45378.457031	3976.904541	6.716500
487.112061	989.786621	45910.542969	4020.223389	6.746183
487.464996	985.477051	45674.550781	4002.910400	6.752060
487.817963	980.795898	44599.316406	3936.929688	6.777245
488.170868	981.539001	42848.894531	3794.416992	6.718547
488.523743	986.591553	40788.402344	3641.650635	6.670699
488.876587	982.207703	38793.675781	3501.664795	6.663208
489.229401	985.476990	37481.636719	3404.253662	6.627482
489.582153	992.758606	37083.074219	3393.108154	6.650952
489.934845	988.523438	37642.648438	3433.454346	6.670275
490.287537	979.904297	38869.832031	3509.614990	6.676472
490.640198	963.334778	40178.378906	3592.536377	6.704574
490.992798	965.043762	40943.101563	3642.839600	6.698164
491.345337	972.994141	40825.406250	3645.811523	6.706789
491.697876	983.322266	39632.328125	3565.713135	6.681649
492.050354	981.836182	37733.968750	3422.234619	6.640154
492.402832	977.898193	35161.906250	3251.709961	6.651683
492.755219	971.731018	32407.650391	3057.259766	6.634223
493.107605	973.811523	29855.500000	2901.446533	6.674246
493.459930	962.740295	27825.031250	2779.292969	6.762464
493.812225	964.226379	26456.375000	2712.718018	6.858942
494.164490	960.957092	25644.544922	2665.015625	6.903610
494.516724	971.879578	25301.861328	2633.437012	6.829258
494.868896	973.811462	25239.744141	2614.341064	6.760628
495.221039	973.216980	25402.763672	2620.582764	6.743333
495.573120	973.960022	25609.250000	2641.461670	6.768753
495.925201	972.994141	25860.392578	2672.000244	6.826773
496.277222	978.046692	26030.470703	2681.585205	6.799895
496.629211	975.817627	26042.955078	2680.396484	6.800054
496.981140	982.430603	25913.443359	2653.647217	6.703364
497.333069	979.235535	25686.150391	2639.827148	6.721161
497.684967	983.470764	25408.185547	2616.496094	6.685955
498.036804	978.492493	24992.908203	2596.805664	6.738924
498.388580	982.059082	24496.492188	2556.905029	6.697359
498.740326	979.532776	24000.521484	2533.425537	6.749896
499.092072	984.585449	23520.156250	2497.760254	6.714606
499.443756	978.418274	23088.607422	2473.240479	6.760785
499.795410	983.322266	22694.501953	2444.262451	6.728977
500.147003	973.514221	22418.837891	2429.550293	6.789527
500.498566	979.681396	22144.884766	2415.507080	6.783897
500.850098	971.359436	21985.060547	2407.853760	6.835989
501.201599	967.198486	21835.935547	2402.058350	6.875643
501.553009	963.557617	21757.769531	2399.606689	6.906004
501.904449	967.421387	21705.164063	2385.489014	6.838100
502.255859	974.034363	21716.679688	2381.328125	6.784544
502.607178	983.470764	21765.794922	2379.396240	6.716888
502.958405	984.585266	21846.634766	2384.225830	6.709028
503.309692	985.551270	21887.576172	2392.399170	6.730678
503.660919	979.086914	21958.087891	2392.622070	6.737858
504.012115	982.579163	21952.740234	2397.600342	6.747785
504.363251	987.631775	21948.654297	2381.699463	6.650761
504.714294	990.158020	21866.029297	2377.092529	6.643721
505.065369	985.476990	21775.156250	2364.609619	6.633737
505.416443	982.282043	21642.970703	2371.742920	6.725143
505.767395	977.155090	21624.468750	2373.897461	6.764766
506.118317	976.783508	21606.414063	2377.166748	6.788213
506.469238	972.696960	21768.318359	2391.730225	6.823711
506.820160	973.662842	21919.970703	2406.367920	6.839893
507.170929	969.799072	22189.318359	2418.330811	6.826412
507.521729	972.102356	22431.470703	2424.943604	6.770196
507.872498	980.127136	22663.296875	2436.089111	6.714710
508.223236	980.424316	22927.664063	2460.460693	6.743610
508.573883	988.746277	23165.953125	2470.937012	6.683396
508.924500	979.755676	23426.978516	2489.512695	6.725808
509.275116	988.672058	23531.968750	2502.069580	6.713293
509.625702	983.173645	23656.873047	2517.078857	6.765130
509.976196	982.504883	23781.849609	2527.184082	6.775104
510.326660	980.052917	24067.244141	2536.769287	6.742770
510.677124	971.656677	24280.568359	2551.332764	6.777133
511.027557	969.724792	24511.947266	2551.406982	6.718491
511.377869	966.455505	24600.740234	2562.775146	6.754254
511.728180	969.947754	24648.218750	2551.406982	6.678947
512.078430	976.486389	24609.583984	2559.579834	6.698629
512.428650	974.851746	24518.708984	2555.196045	6.712342
512.778931	976.560730	24390.240234	2555.344727	6.742998
513.129028	976.263489	24218.078125	2537.735107	6.718372
513.479126	968.535950	24056.546875	2520.497070	6.721935
513.829285	966.306885	23923.396484	2518.490723	6.761240
514.179382	961.700195	23815.062500	2510.688965	6.777946
514.529297	967.495789	23794.703125	2518.862305	6.796129
514.879272	970.765076	23930.007813	2519.976807	6.747660
515.229187	977.377930	24056.099609	2538.701172	6.765206
515.579163	980.721680	24470.412109	2555.790771	6.705363
515.928955	975.891907	24961.478516	2586.403564	6.714498
516.278748	973.217041	25655.462891	2633.511475	6.726675
516.628540	966.901184	26429.031250	2681.584961	6.734251
516.978333	968.684570	27288.490234	2745.782471	6.751942
517.327942	969.353333	28228.791016	2805.224854	6.734811
517.677612	972.919922	28994.037109	2859.020264	6.730996
518.027222	970.616455	29512.076172	2896.394531	6.747301
518.376831	971.656677	29670.710938	2889.929932	6.684099
518.726379	978.046692	29450.703125	2877.075439	6.669658
519.075867	985.551270	28925.529297	2826.178467	6.587790
519.425293	989.117859	28226.787109	2790.067139	6.611980
519.774658	985.477051	27467.859375	2730.104980	6.587881
520.124084	985.179749	26806.568359	2703.504639	6.654657
520.473389	981.687561	26294.025391	2678.241455	6.702478
520.822693	983.099304	25991.015625	2660.111572	6.705925
521.171997	983.173584	25816.626953	2635.220459	6.652506
521.521240	976.263428	25763.208984	2623.034668	6.643704
521.870361	974.703125	25821.015625	2637.077881	6.690629
522.219482	974.777344	26026.757813	2645.102783	6.667439
522.568604	981.093079	26327.087891	2668.730957	6.658401
522.917664	982.356201	26757.078125	2690.204102	6.626057
523.266724	978.195313	27387.609375	2748.680420	6.703992
523.615662	980.275818	28270.103516	2800.543701	6.670133
523.964600	972.399719	29366.515625	2875.143799	6.701192
524.313538	975.594727	30598.677734	2960.888916	6.701849
524.662354	965.935364	31942.812500	3061.792236	6.765875
525.011169	976.857849	33223.199219	3157.494141	6.762430
525.359985	977.303711	34507.222656	3238.855469	6.744877
525.708740	980.498718	35805.218750	3335.151611	6.761441
526.057434	972.696838	37473.242188	3439.769775	6.759003
526.406067	972.325378	39643.402344	3569.725342	6.716647
526.754700	972.622620	42583.042969	3743.891357	6.660035
527.103333	971.953796	45819.667969	3983.666016	6.715419
527.451782	966.381104	49156.597656	4257.174316	6.828758
527.800293	972.102539	51705.328125	4486.026855	6.926278
528.148743	979.830017	53254.613281	4638.347168	6.998627
528.497131	976.263489	53293.031250	4640.799316	7.004515
528.845642	971.210938	52092.300781	4515.302246	6.932738
529.193909	968.610291	49708.667969	4283.849121	6.801877
529.542175	984.585266	46472.261719	4012.718750	6.657042
529.890503	984.139465	42943.035156	3753.922607	6.601182
530.238770	982.802063	39747.718750	3524.623779	6.557016
530.586914	974.851746	37495.378906	3388.872803	6.610039
530.934998	978.715515	36191.074219	3321.182861	6.652401
531.283142	982.281982	36082.738281	3319.251221	6.657945
531.631226	978.715515	36732.070313	3362.718506	6.667914
531.979248	981.761902	37994.695313	3447.646484	6.662224
532.327148	981.390381	39188.667969	3528.041992	6.665358
532.675110	985.328430	40003.765625	3579.830811	6.649427
533.023071	983.916687	40092.562500	3591.496338	6.667527
533.370850	977.675293	39425.250000	3564.227295	6.727478
533.718689	980.350098	38225.261719	3485.614990	6.726462
534.066467	975.891907	36689.941406	3367.548096	6.696681
534.414246	976.783508	35145.781250	3241.382080	6.627642
534.761963	972.251160	33922.535156	3163.884521	6.651333
535.109619	975.223145	33250.839844	3126.212891	6.664442
535.457153	979.161194	32995.386719	3120.119873	6.687106
535.804749	984.733948	32971.015625	3110.534424	6.645976
536.152344	990.306641	32837.566406	3099.092041	6.621560
536.499817	992.832947	32482.177734	3067.736328	6.589223
536.847229	986.740051	31869.255859	3025.606689	6.602010
537.194641	974.925964	31033.718750	2979.018799	6.667243
537.542114	973.588562	30277.095703	2924.703857	6.658299
537.889404	979.607117	29571.890625	2878.264404	6.640453
538.236694	985.551270	29171.771484	2845.199951	6.597723
538.583984	979.978516	29251.273438	2861.992188	6.656977
538.931213	975.891907	29953.060547	2919.799805	6.708413
539.278381	980.350098	31446.990234	3023.377930	6.705786
539.625488	984.808105	33352.187500	3169.382568	6.749309
539.972595	988.820496	35880.933594	3331.362549	6.713672
540.319641	982.802063	38193.011719	3494.159912	6.749110
540.666687	982.207703	40177.636719	3606.505615	6.695418
541.013611	974.926025	41277.093750	3674.269531	6.697762
541.360596	971.656677	41560.261719	3672.114502	6.653241
541.707458	964.300598	40866.871094	3624.412109	6.666517
542.054260	965.935364	39411.058594	3537.106689	6.687900
542.401062	967.867249	37708.113281	3431.522705	6.705604
542.747864	975.297607	35858.195313	3299.337891	6.662406
543.094666	974.257324	33997.210938	3165.964844	6.636921
543.441284	973.885803	32137.265625	3035.563232	6.615706
543.787903	974.554504	30622.453125	2935.552002	6.614289
544.134460	977.823792	29352.546875	2855.453857	6.617263
544.481079	979.384094	28484.765625	2799.503662	6.617322
544.827637	978.343933	27901.568359	2756.036377	6.602821
545.174072	980.944519	27609.257813	2744.965576	6.624607
545.520508	986.665833	27510.880859	2749.200439	6.645002
545.866943	980.127197	27357.593750	2765.621826	6.769015
546.213318	976.114807	27233.656250	2759.528564	6.792006
546.559631	965.786804	26797.724609	2737.609375	6.859038
546.905823	973.439941	26301.304688	2695.702881	6.799874
547.252136	978.120911	25579.009766	2641.833252	6.762814
547.598389	985.774170	24798.236328	2572.583252	6.663775
547.944458	980.870178	23913.291016	2506.082031	6.650898
548.290588	976.560730	22939.630859	2436.460693	6.647067
548.636658	972.622620	22020.132813	2378.875977	6.681329
548.982727	979.681396	21220.560547	2331.470947	6.678512
549.328735	982.281982	20708.169922	2302.566895	6.693158
549.674622	990.158020	20311.318359	2271.656982	6.632619
550.020569	989.340759	20080.978516	2260.288818	6.657092
550.366455	984.808289	19911.941406	2235.843018	6.609742
550.712280	980.350098	19907.333984	2236.363281	6.636098
551.058044	978.938416	19972.498047	2232.871094	6.601883
551.403748	985.031250	20062.330078	2257.985352	6.672612
551.749512	986.294373	20202.759766	2274.852295	6.705489
552.095154	981.241699	20357.755859	2281.762451	6.711841
552.440735	979.161316	20462.373047	2283.694336	6.695677
552.786316	977.898132	20401.000000	2279.161621	6.699565
553.131897	980.498718	20204.619141	2272.399902	6.720209
553.477417	975.817688	19907.927734	2253.750000	6.750079
553.822815	976.412109	19587.535156	2240.449951	6.791841
554.168213	976.040527	19247.822266	2213.403564	6.771989
554.513672	981.984680	18917.695313	2193.639160	6.755542
554.859009	976.932129	18615.804688	2166.667236	6.744961
555.204285	977.972473	18362.876953	2150.915283	6.746904
555.549500	974.926086	18168.279297	2130.407471	6.720512
555.894714	978.566895	18039.289063	2120.153809	6.691316
556.239990	976.114807	17933.927734	2112.500732	6.701253
556.585022	977.006531	17858.658203	2103.064209	6.670304
556.930115	974.183044	17734.572266	2097.045654	6.699502
557.275146	975.594727	17576.755859	2088.352295	6.702890
557.620178	972.994141	17434.167969	2078.321045	6.714751
557.965149	972.919739	17319.666016	2068.438721	6.701756
558.310059	973.142761	17254.503906	2066.656006	6.716350
558.654968	976.486389	17206.951172	2072.897217	6.755265
558.999756	977.972412	17218.095703	2075.275146	6.756739
559.344604	973.588562	17278.207031	2076.760986	6.766012
559.689331	970.096375	17329.548828	2080.698975	6.788752
560.033997	967.867249	17347.976563	2072.674316	6.744809
560.378723	967.644348	17389.660156	2068.067383	6.700902
560.723389	961.848694	17451.927734	2066.210205	6.697128
561.067932	960.139832	17546.587891	2078.469971	6.742433
561.412476	964.300781	17541.833984	2091.250000	6.798051
561.757019	972.028259	17514.564453	2093.999023	6.782338
562.101501	977.749512	17423.320313	2087.980713	6.750944
562.445862	979.309875	17331.333984	2076.017822	6.706864
562.790222	978.121033	17236.003906	2068.364990	6.705940
563.134644	979.755676	17227.533203	2070.222412	6.711483
563.478943	982.950745	17311.568359	2083.894043	6.742416
563.823181	989.860840	17475.630859	2096.005371	6.709693
564.167358	984.956848	17699.429688	2109.008545	6.725021
564.511536	979.458496	17997.531250	2125.280518	6.732972
564.855774	971.582336	18327.955078	2140.364258	6.734022
565.199768	969.724792	18673.017578	2166.890381	6.762389
565.543823	971.359436	18941.546875	2192.598877	6.795919
565.887817	977.006531	19197.966797	2203.224365	6.729710
566.231812	981.687561	19217.804688	2198.766113	6.674001
566.575745	981.390381	19116.603516	2181.899414	6.619768
566.919617	984.808289	18833.882813	2182.270752	6.708821
567.263428	979.978516	18567.060547	2159.980225	6.709480
567.607239	975.223206	18358.865234	2147.497314	6.743547
567.950989	968.758850	18179.498047	2134.940186	6.775894
568.294678	974.034363	18069.603516	2124.909424	6.732008
568.638367	977.452332	17975.984375	2118.667725	6.713612
568.981995	976.337830	17936.751953	2105.590576	6.658167
569.325623	968.535950	17998.943359	2115.101318	6.732460
569.669128	970.839355	18080.750000	2121.788330	6.726797
570.012573	972.771240	18240.945313	2136.723389	6.740447
570.356140	970.913757	18425.291016	2152.624268	6.770281
570.699524	969.055969	18705.710938	2166.593018	6.751764
571.042908	970.690735	19045.869141	2182.865479	6.706295
571.386230	974.331543	19290.250000	2196.908447	6.674942
571.729492	982.059082	19410.544922	2225.292236	6.746258
572.072815	980.573059	19395.091797	2233.985596	6.806654
572.416016	984.065247	19299.759766	2237.106201	6.841351
572.759094	980.647278	19174.263672	2214.666992	6.782707
573.102234	977.675110	19002.474609	2196.016846	6.759253
573.445374	973.439941	18839.529297	2177.441162	6.739030
573.788391	974.183044	18686.986328	2164.289795	6.718907
574.131409	978.046692	18587.865234	2166.964600	6.751450
574.474365	985.476990	18509.921875	2162.432373	6.716077
574.817261	981.018738	18416.152344	2149.131836	6.699766
575.160156	980.127136	18216.052734	2134.345703	6.696586
575.502930	974.480164	17985.937500	2120.896729	6.739085
575.845703	973.737122	17702.027344	2107.670898	6.778540
576.188477	976.709167	17400.582031	2085.602783	6.751718
576.531250	974.925964	17062.728516	2063.237793	6.764825
576.873901	984.288086	16710.830078	2039.758423	6.711395
577.216431	977.377991	16376.617188	2008.625488	6.696743
577.559082	982.504883	16021.820313	1982.693848	6.650496
577.901611	972.102478	15707.965820	1963.077759	6.724922
578.244080	977.823792	15421.976563	1951.561035	6.741394
578.586487	971.508118	15197.135742	1940.267090	6.809956
578.928955	981.093201	14992.653320	1933.505493	6.797332
579.271301	982.950684	14800.730469	1920.428101	6.784574
579.613647	985.551270	14611.926758	1907.945313	6.769181
579.955872	978.121094	14470.901367	1882.831055	6.705141
580.298157	973.068420	14365.836914	1875.029175	6.734685
580.640320	981.167480	14314.122070	1863.883789	6.620560
580.982483	977.749512	14262.778320	1868.119019	6.702052
581.324524	980.127197	14233.578125	1858.236694	6.625516
581.666626	970.690735	14156.004883	1847.388550	6.649047
582.008728	972.473938	14062.682617	1835.202759	6.590642
582.350647	971.285156	13954.645508	1834.014038	6.644881
582.692566	973.960022	13850.769531	1841.815796	6.739680
583.034424	978.789734	13794.448242	1846.496948	6.770680
583.376343	977.006531	13686.709961	1837.432007	6.769832
583.718201	976.263428	13648.073242	1834.014038	6.768967
584.059937	976.337708	13498.054688	1831.859375	6.832303
584.401611	982.579102	13443.739258	1842.261719	6.898897
584.743347	988.969177	13418.179688	1832.528198	6.786907
585.085022	992.684326	13427.467773	1824.874878	6.692441
585.426514	988.077454	13429.101563	1814.918335	6.646083
585.768127	988.449036	13433.411133	1823.388794	6.709058
586.109619	980.275818	13484.012695	1832.082153	6.812414
586.451172	984.065247	13523.764648	1827.921265	6.729476
586.792542	984.065247	13524.209961	1828.292603	6.732198
587.133850	991.569824	13569.979492	1828.738647	6.655601
587.475220	986.071472	13617.756836	1843.896362	6.791057
587.816589	981.910461	13671.032227	1843.004761	6.786083
588.157776	973.217041	13714.796875	1846.199829	6.851449
588.498962	969.056152	13780.406250	1845.011108	6.837336
588.840210	966.975586	13872.838867	1855.487671	6.884562
589.181335	967.867249	13930.348633	1854.521484	6.840158
589.522400	972.919861	13977.976563	1853.481323	6.770916
589.863403	970.765076	13957.838867	1859.499878	6.843225
590.204407	977.006531	13884.354492	1856.007690	6.810083
590.545410	975.371765	13773.643555	1864.924194	6.950567
590.886353	973.068420	13626.003906	1838.769531	6.841899
591.227112	964.895081	13543.528320	1838.695190	6.946702
591.567932	962.220215	13456.817383	1825.692017	6.910761
591.908752	958.802307	13473.164063	1829.778809	6.959816
592.249512	962.294495	13503.479492	1825.543579	6.883314
592.590149	966.604065	13503.331055	1822.868774	6.830050
592.930786	971.507996	13514.104492	1828.961426	6.836331
593.271423	973.291321	13575.479492	1836.985962	6.853529
593.612000	980.572998	13720.815430	1851.995239	6.839919
593.952576	982.727783	13892.528320	1862.546265	6.815121
594.292969	976.857849	14013.938477	1874.063110	6.881949
594.633484	968.164490	14205.268555	1884.614258	6.923340
594.973877	968.684570	14440.289063	1903.041382	6.935750
595.314209	980.052917	14731.480469	1922.062866	6.850270
595.654480	984.213867	15067.700195	1936.477539	6.761562
595.994812	987.631775	15410.831055	1952.898438	6.692459
596.335022	981.761902	15701.280273	1966.792969	6.692006
596.675171	978.566895	15807.754883	1972.514282	6.702642
597.015320	976.709290	15730.851563	1977.121094	6.780549
597.355408	979.235596	15457.046875	1952.824097	6.724694
597.695496	981.984680	15078.250977	1923.103027	6.676366
598.035461	979.458496	14543.643555	1871.239624	6.574528
598.375366	981.390320	14027.684570	1850.137695	6.658959
598.715271	974.108643	13583.206055	1825.543579	6.752544
599.055176	979.606934	13225.140625	1806.150391	6.749755
599.395081	972.028137	13000.004883	1784.602661	6.755704
599.734802	980.424316	12767.065430	1772.862793	6.723192
600.074524	983.396484	12677.381836	1774.943359	6.768837
600.414246	991.346863	12633.394531	1765.729614	6.651603
600.753906	991.569824	12666.756836	1769.667969	6.664545
601.093506	987.260254	12749.157227	1773.308716	6.683008
601.433044	977.823914	12896.127930	1788.317993	6.800415
601.772583	977.972412	13103.209961	1803.772827	6.810592
602.112122	976.040527	13389.721680	1821.308228	6.809162
602.451538	973.737122	13710.411133	1848.280151	6.866338
602.790894	969.130371	14127.028320	1868.564819	6.835700
603.130310	967.124207	14535.247070	1892.416016	6.819601
603.469604	968.461731	14905.573242	1915.895630	6.797922
603.808838	962.740295	15247.067383	1943.907837	6.868840
604.148010	966.009705	15509.726563	1963.375122	6.857707
604.487305	973.216980	15617.167969	1963.152344	6.760029
604.826416	986.219971	15545.764648	1957.282349	6.669593
605.165527	981.761780	15254.348633	1936.031860	6.686035
605.504456	975.223206	14921.770508	1907.945313	6.687836
605.843445	967.792969	14455.817383	1870.719727	6.694285
606.182434	972.622742	13994.620117	1840.924194	6.667959
606.521423	977.155090	13543.007813	1826.955444	6.762775
606.860229	971.359436	13218.083008	1811.797485	6.862554
607.199036	977.526550	13006.542969	1802.063965	6.854570
607.537903	975.074524	12954.828125	1782.150757	6.737002
607.876648	981.390320	12988.859375	1787.574829	6.714025
608.215271	977.526611	13153.512695	1792.255859	6.691279
608.553955	981.761902	13335.257813	1812.466309	6.724448
608.892578	986.145752	13532.976563	1823.017212	6.669983
609.231140	985.179871	13629.718750	1829.184448	6.674854
609.569641	985.699890	13653.346680	1838.175171	6.729548
609.908081	983.396484	13549.770508	1837.654907	6.797971
610.246521	982.876282	13351.827148	1837.208984	6.907075
610.584961	980.498718	13041.242188	1806.373413	6.847627
610.923340	981.093079	12699.597656	1770.039429	6.732483
611.261597	979.904297	12347.625000	1742.398804	6.707541
611.599854	977.972412	12070.476563	1729.841675	6.778174
611.938110	980.201477	11796.225586	1722.931519	6.866941
612.276245	981.538879	11594.046875	1709.557007	6.860001
612.614319	979.309875	11403.089844	1697.000000	6.885123
612.952393	977.229309	11224.614258	1682.139282	6.878926
613.290466	976.560730	11081.136719	1668.244751	6.845255
613.628479	985.997131	10899.763672	1665.272461	6.851839
613.966370	988.672058	10824.123047	1655.018677	6.774947
614.304260	983.842346	10722.774414	1650.040527	6.840568
614.642151	974.405945	10666.452148	1642.090210	6.888992
614.979980	964.375000	10605.821289	1641.124146	7.019166
615.317749	968.833191	10596.385742	1642.238770	6.994566
615.655396	971.805237	10583.753906	1637.334839	6.923982
615.993164	981.093079	10597.127930	1630.944824	6.758001
616.330811	979.755798	10575.506836	1629.087280	6.766865
616.668396	978.195313	10570.007813	1627.452637	6.768870
617.005859	977.080750	10561.983398	1637.929321	6.894682
617.343445	970.467834	10580.856445	1631.019165	6.873305
617.680908	969.501892	10603.816406	1634.808472	6.905593
618.018311	971.433777	10588.434570	1631.464844	6.863169
618.355652	972.771179	10587.915039	1628.343872	6.818127
618.692993	980.127136	10559.903320	1622.919922	6.709893
619.030273	982.504883	10528.472656	1615.861328	6.634806
619.367554	985.476990	10440.794922	1618.015991	6.689769
619.704712	979.235535	10392.275391	1611.180176	6.713502
620.041870	959.471008	10363.520508	1605.607422	6.870831
620.379028	962.368835	10346.133789	1604.641602	6.844511
620.716064	967.124207	10324.585938	1601.446655	6.778788
621.053040	975.446106	10285.502930	1606.202026	6.774995
621.389954	972.474060	10259.050781	1601.297974	6.771321
621.726929	965.935364	10238.098633	1604.121460	6.882818
622.063843	967.124268	10231.039063	1604.641602	6.881727
622.400635	970.319275	10249.020508	1618.536255	6.986074
622.737427	979.904297	10263.956055	1623.365845	6.930827
623.074219	981.464600	10264.475586	1621.954102	6.899588
623.410889	975.891907	10284.537109	1608.505249	6.795976
623.747559	964.746521	10359.954102	1605.681763	6.821938
624.084167	973.514221	10431.655273	1614.078003	6.772618
624.420715	976.857849	10521.116211	1624.034546	6.780796
624.757324	983.990906	10573.351563	1640.455444	6.845759
625.093750	981.687500	10729.609375	1642.312988	6.777091
625.430176	982.950684	10909.793945	1659.848511	6.818862
625.766602	981.910461	11087.229492	1664.380859	6.753576
626.102905	974.777405	11282.051758	1685.185669	6.892300
626.439209	975.966248	11399.078125	1682.808105	6.781486
626.775452	976.337708	11497.456055	1693.433472	6.815775
627.111694	983.247864	11462.531250	1690.015503	6.744427
627.447876	980.350098	11412.674805	1690.981323	6.811821
627.783997	977.377991	11298.545898	1678.869995	6.796634
628.120056	975.669128	11187.239258	1668.616089	6.785900
628.456055	976.412109	11000.590820	1645.285156	6.672597
628.792053	975.223206	10821.670898	1632.950806	6.679847
629.128052	974.182922	10633.983398	1619.056274	6.675845
629.463928	973.291321	10506.256836	1611.105835	6.690620
629.799744	969.873352	10402.530273	1596.171021	6.639674
630.135559	964.077820	10292.264648	1595.948242	6.773776
630.471375	965.192322	10178.061523	1600.406250	6.894855
630.807068	973.439941	10075.299805	1603.750000	6.925069
631.142700	986.591492	9988.217773	1591.712891	6.722357
631.478333	986.442871	9902.249023	1579.973022	6.657055
631.813965	984.511047	9866.956055	1569.273438	6.583349
632.149475	976.189148	9833.593750	1563.477905	6.630484
632.484924	982.281982	9845.483398	1575.514771	6.693212
632.820435	985.105469	9815.686523	1579.304321	6.728876
633.155884	989.192078	9844.515625	1579.155640	6.662248
633.491150	988.672058	9885.901367	1578.858398	6.633372
633.826477	988.523438	9901.133789	1577.669556	6.610253
634.161804	978.641113	9861.829102	1581.087524	6.781872
634.497009	974.777344	9760.925781	1577.298218	6.857622
634.832153	971.953857	9667.824219	1574.028687	6.923687
635.167297	968.610291	9548.716797	1566.227051	6.965144
635.502380	964.969421	9444.098633	1549.211792	6.890358
635.837463	960.957031	9327.889648	1543.787598	6.965881
636.172424	970.616394	9256.261719	1541.409790	6.888943
636.507324	970.319153	9194.887695	1544.976440	6.987082
636.842224	972.325439	9150.083008	1545.422241	7.007994
637.177124	972.548340	9071.842773	1533.682495	6.928185
637.511963	979.607117	9001.180664	1524.914673	6.798012
637.846741	988.597656	8883.484375	1519.416382	6.723576
638.181396	983.396484	8786.221680	1522.091309	6.903843
638.516113	979.829895	8699.881836	1515.255371	6.935517
638.850769	976.783508	8659.387695	1504.332886	6.866804
639.185303	975.520447	8615.401367	1491.998657	6.760292
639.519836	978.566895	8572.156250	1485.980103	6.682126
639.854370	971.953918	8500.379883	1478.104126	6.723188
640.188843	977.155090	8430.461914	1481.744751	6.770011
640.523254	968.833191	8354.895508	1486.723145	7.011719
640.857605	971.730957	8328.889648	1486.946167	7.002910
641.191895	971.953857	8284.381836	1484.271118	7.006117
641.526184	983.545105	8258.672852	1475.726196	6.765257
641.860413	978.715515	8204.432617	1475.503418	6.875275
642.194580	969.056152	8188.605469	1473.942993	6.993329
642.528748	957.316223	8149.373535	1479.292969	7.257684
642.862793	965.861084	8109.324707	1469.782227	7.054297
643.196838	975.743347	8058.575684	1458.488281	6.815704
643.530823	976.189209	8006.118652	1444.593628	6.663003
643.864746	976.263489	7996.458984	1447.565796	6.713521
644.198669	980.795898	7983.902344	1450.389160	6.705500
644.532532	979.086975	7965.995605	1451.355103	6.759329
644.866333	973.885803	7969.412598	1448.605835	6.786051
645.200073	968.535950	7982.489746	1451.578003	6.886873
645.533813	976.412109	8016.297363	1455.367310	6.803452
645.867554	978.195313	7993.263672	1464.060913	6.926028
646.201172	978.121033	8013.400391	1465.844116	6.932533
646.534729	977.377930	8029.672363	1468.147461	6.959005
646.868225	977.452332	8067.937988	1462.649048	6.842926
647.201782	973.365662	8068.532715	1454.178589	6.776626
647.535217	974.628723	8066.229004	1442.215820	6.593534
647.868591	984.362488	8046.019043	1433.299438	6.357388
648.201965	988.300476	8012.062500	1441.026978	6.445641
648.535278	988.672058	7981.895996	1458.933960	6.724536
648.868591	986.814453	7980.187012	1472.011230	6.937951
649.201782	982.802063	7965.846191	1462.351685	6.867343
649.534912	984.808289	7960.645020	1458.562378	6.791358
649.868103	978.418213	7943.555176	1456.704712	6.866865
650.201172	981.316101	7972.607422	1476.097778	7.077114
650.534180	973.811462	7978.031250	1480.110352	7.228484
650.867188	970.244934	7975.728516	1479.515747	7.269603
651.200134	972.919861	7964.657715	1460.494263	6.973579
651.533020	970.467834	7969.189453	1444.890625	6.778707
651.865845	974.034363	7926.837402	1442.290039	6.734776
652.198608	969.576172	7884.558594	1452.395142	6.982215
652.531433	980.127136	7829.425781	1455.441528	6.939607
652.864136	985.922668	7796.510254	1447.862915	6.782679
653.196777	1119.370483	7878.243652	1561.694702	6.544349
653.529358	1124.051636	7847.704590	1571.354004	6.652669
653.861938	1105.550171	7826.974121	1576.480835	7.006413
654.194519	969.056091	7638.245605	1446.228149	7.154873
654.526978	958.282227	7578.431641	1434.562622	7.194406
654.859375	969.056152	7515.200684	1423.268555	6.938625
655.191833	973.811462	7520.773438	1423.937500	6.875342
655.524170	977.155090	7540.166504	1417.547363	6.710217
655.856445	977.080811	7563.868652	1421.559570	6.748035
656.188660	979.607117	7581.775879	1430.475952	6.829102
656.520874	978.641113	7599.236816	1437.609009	6.932426
656.853088	972.102539	7677.849121	1438.946655	6.961852
657.185181	971.062256	7721.538574	1439.912476	6.945439
657.517212	965.861084	7817.314941	1449.794800	7.063226
657.849243	973.960022	7942.663574	1460.271484	6.978507
658.181274	977.377930	8158.513184	1472.085571	6.888989
658.513123	983.396484	8347.539063	1489.026733	6.866112
658.844971	984.659668	8537.084961	1509.014038	6.942861
659.176819	985.922852	8664.811523	1522.834351	6.992047
659.508667	979.384094	8738.296875	1518.227539	6.944832
659.840393	983.470764	8711.918945	1509.534180	6.806844
660.172058	984.808289	8605.370117	1503.515503	6.806679
660.503662	995.953613	8446.436523	1493.558960	6.678833
660.835266	988.597656	8276.431641	1480.704590	6.752444
661.166931	983.693665	8090.006348	1459.156860	6.690716
661.498413	971.062195	7933.896484	1448.457153	6.856331
661.829773	972.251160	7746.950684	1441.398438	6.924990
662.161194	968.833191	7585.937012	1428.544067	6.947312
662.492615	977.377930	7422.099121	1413.460571	6.766509
662.823975	972.176758	7309.753418	1409.968384	6.907871
663.155212	968.164368	7221.556152	1413.980835	7.129195
663.486450	964.375000	7147.252441	1412.271851	7.244149
663.817627	973.960022	7067.749512	1402.612427	7.034250
664.148743	986.888733	6987.650879	1391.838501	6.748305
664.479858	979.235535	6925.683105	1385.819946	6.837433
664.810913	980.647278	6882.958496	1378.166870	6.734982
665.141907	975.371765	6871.292480	1373.560059	6.753623
665.472778	982.653503	6846.400879	1378.761353	6.755199
665.803711	977.006409	6817.794434	1391.244141	7.092155
666.134583	974.331543	6779.974609	1391.987183	7.193960
666.465454	974.257263	6769.646484	1385.894165	7.102835
666.796143	968.833191	6774.550781	1375.640503	7.007011
667.126831	970.467773	6793.274902	1367.913086	6.825665
667.457458	974.331543	6792.234375	1376.234985	6.908047
667.788147	975.371826	6806.352051	1374.971802	6.853049
668.118774	976.932129	6822.698730	1385.077026	6.981888
668.449219	977.526611	6839.862793	1371.479614	6.720069
668.779663	981.761902	6849.744629	1372.742798	6.662952
669.110107	980.647278	6833.546875	1372.074219	6.687744
669.440552	977.898010	6811.033691	1373.040039	6.774093
669.770874	974.108582	6764.371094	1362.414673	6.706191
670.101135	971.507996	6702.700684	1356.247559	6.713080
670.431396	965.712402	6673.647949	1348.891479	6.713094
670.761597	961.774414	6632.187012	1358.179321	6.990759
671.091797	964.969421	6616.806152	1360.036987	6.990074
671.421875	974.480164	6564.050781	1362.414673	6.940327
671.751892	986.888733	6540.496582	1350.749146	6.551785
672.081909	983.693665	6508.695313	1337.003174	6.394741
672.411865	987.408875	6479.346191	1330.538696	6.247883
672.741821	977.823914	6428.150879	1339.009277	6.626857
673.071716	979.012695	6423.173340	1348.965942	6.795414
673.401550	968.164490	6403.557129	1354.538696	7.108488
673.731262	970.839417	6388.919434	1346.291016	6.929606
674.060974	969.130432	6348.869629	1339.975220	6.893360
674.390625	972.251160	6319.148438	1334.476929	6.774504
674.720276	976.932190	6294.480469	1331.653320	6.670764
675.049927	977.229309	6264.313965	1327.418091	6.623476
675.379395	972.028137	6260.970215	1334.031006	6.844523
675.708923	968.090088	6236.078613	1335.591309	6.976120
676.038330	966.604004	6226.642578	1336.185913	7.026220
676.367737	973.439880	6203.088379	1329.424316	6.807044
676.697083	971.730896	6203.831543	1335.591431	6.954387
677.026428	975.669006	6196.475098	1337.746216	6.935274
677.355652	973.365662	6227.088379	1338.489258	6.949807
677.684875	972.622620	6262.457031	1333.362305	6.819489
678.013977	971.805359	6286.456543	1334.996948	6.833780
678.343079	968.610352	6325.835938	1342.427368	6.977810
678.672180	973.439941	6374.207031	1340.643921	6.799108
679.001221	971.359558	6455.048828	1352.532349	6.951028
679.330139	977.006531	6541.240234	1362.191772	6.922521
679.659058	979.607117	6645.264160	1374.674683	6.973023
679.987976	985.477051	6755.752441	1379.875854	6.835008
680.316772	981.390381	6776.631348	1379.355591	6.867104
680.645630	976.635010	6780.494629	1386.563110	7.063026
680.974304	972.102539	6740.891113	1375.194824	6.987469
681.302979	968.164551	6726.625000	1370.959473	6.994837
681.631653	965.935364	6690.662598	1356.916260	6.829686
681.960266	969.650574	6646.750000	1356.990601	6.822851
682.288757	980.498718	6601.202637	1352.606812	6.620311
682.617249	986.888733	6514.342285	1351.640869	6.598918
682.945679	986.665833	6415.965332	1342.947388	6.562201
683.274109	979.309875	6309.638184	1334.625488	6.665924
683.602478	977.080811	6207.472656	1326.972290	6.689585
683.930725	972.548340	6131.609375	1330.167358	6.931862
684.259033	978.492493	6049.728027	1331.430542	6.959607
684.587280	975.074524	5996.080566	1317.164185	6.813170
684.915344	979.458496	5919.028809	1310.848511	6.708883
685.243469	982.504883	5867.537109	1301.114868	6.522168
685.571533	986.591492	5808.169434	1304.755737	6.598757
685.899536	982.207703	5783.798340	1301.040649	6.640152
686.227539	976.040527	5768.566406	1301.783569	6.796897
686.555420	980.498718	5795.835449	1304.978638	6.738468
686.883301	986.071289	5829.717285	1300.594727	6.493526
687.211121	989.117737	5850.225098	1303.789917	6.473261
687.538940	978.789734	5865.011230	1299.703125	6.567721
687.866638	971.433777	5874.373535	1304.978638	6.802956
688.194336	969.130371	5871.697754	1301.263550	6.774679
688.521973	970.021973	5847.104004	1309.659668	6.963953
688.849609	969.204590	5793.754395	1304.458496	6.948916
689.177063	967.867188	5736.689941	1302.080811	7.008305
689.504578	977.972473	5654.288574	1286.700195	6.601943
689.832031	981.687561	5592.021973	1284.693970	6.572330
690.159485	982.802063	5536.890137	1277.783813	6.477296
690.486816	981.836121	5498.252441	1278.972778	6.579036
690.814087	991.049622	5439.107910	1278.006836	6.451292
691.141296	991.718445	5379.294434	1282.687866	6.631667
691.468506	983.247864	5325.870605	1278.006836	6.787580
691.795715	970.319275	5275.567383	1273.920288	7.051882
692.122803	968.981750	5220.657715	1259.653931	6.836650
692.449829	973.811462	5179.122559	1259.728394	6.798948
692.776855	983.024963	5131.345703	1255.493042	6.568153
693.103821	981.613281	5101.550293	1263.443359	6.840641
693.430664	978.343933	5063.804688	1260.545654	6.907464
693.757568	974.183044	5056.671387	1255.641724	6.894292
694.084351	975.000305	5032.895020	1248.359985	6.736490
694.411133	973.885742	5030.739746	1251.480713	6.842617
694.737854	970.987976	5013.649902	1252.520874	6.964047
695.064575	978.566895	5030.294434	1254.898560	6.820095
695.391174	985.105469	5037.427246	1247.022583	6.463384
695.717773	983.322266	5072.275391	1251.109253	6.549036
696.044250	976.040527	5114.776855	1257.053345	6.789822
696.370789	968.684570	5181.648926	1271.468140	7.186948
696.697205	975.297546	5246.663574	1283.579468	7.217408
697.023621	970.839355	5358.043457	1289.152222	7.255484
697.349915	968.387390	5500.110840	1301.337769	7.347103
697.676208	963.706299	5692.033691	1307.950806	7.280471
698.002380	969.056091	5878.459473	1318.204590	7.111832
698.328674	972.994141	6063.622559	1332.024902	7.052779
698.654724	975.297546	6213.119141	1348.074219	7.117017
698.980896	978.641174	6327.248047	1355.132935	7.039062
699.306946	988.003357	6340.770996	1354.241333	6.842030
699.632935	992.164246	6281.403809	1349.486084	6.755637
699.958862	991.272644	6152.636719	1344.953613	6.852470
700.284729	983.545105	5994.223145	1322.811279	6.770864
700.610596	983.619385	5815.525391	1298.217041	6.510839
700.936340	979.235596	5616.914063	1283.505127	6.560815
701.262146	982.281982	5428.036621	1277.412231	6.638473
701.587830	978.418213	5257.437500	1272.285522	6.867632
701.913513	979.681335	5101.179199	1265.301147	6.930000
702.239075	977.080750	4981.923340	1255.121582	6.942616
702.564697	971.805237	4876.339355	1244.199097	6.976347
702.890137	971.433777	4785.689941	1232.830811	6.853159
703.215698	976.486328	4723.498535	1231.493286	6.805608
703.541016	979.532776	4653.133301	1232.013550	6.872842
703.866455	979.384216	4606.322754	1224.583130	6.760493
704.191711	972.251160	4546.360840	1216.038330	6.820920
704.517029	970.839355	4505.048340	1206.453369	6.666669
704.842163	966.529785	4467.673828	1216.781372	7.147709
705.167419	965.266663	4449.098145	1221.090942	7.343187
705.492493	968.684570	4427.625000	1226.069214	7.441141
705.817566	975.594727	4410.832520	1216.707153	7.018799
706.142578	979.607117	4389.358887	1209.796997	6.750928
706.467590	982.504883	4407.488770	1214.032227	6.759954
706.792480	975.520447	4403.327637	1213.363403	6.938633
707.117371	973.811523	4415.067871	1220.570801	7.170616
707.442200	966.975586	4392.925781	1212.546143	7.167954
707.766907	968.535950	4397.160645	1213.660645	7.149359
708.091675	961.774414	4400.355957	1210.317017	7.228056
708.416321	964.672180	4433.643066	1218.341675	7.312529
708.741028	968.981750	4486.026855	1221.462402	7.178772
709.065552	975.223206	4508.614746	1222.651245	7.002565
709.390137	975.743347	4517.902832	1217.301392	6.819514
709.714600	979.161316	4505.271484	1211.803101	6.597689
710.039063	985.179749	4536.924316	1205.487427	6.202802
710.363403	985.031250	4589.530762	1210.242676	6.248064
710.687744	983.247864	4658.334961	1224.434448	6.562745
711.012085	982.059082	4718.594727	1227.257935	6.562198
711.336304	987.334473	4741.256836	1230.453003	6.476387
711.660461	983.619385	4742.371582	1225.326172	6.430506
711.984619	981.836121	4721.120605	1239.963867	6.903132
712.308716	983.470764	4698.606934	1231.493286	6.676001
712.632751	982.802063	4660.043457	1237.586060	6.928672
712.956726	989.043640	4611.227051	1226.366455	6.551927
713.280701	987.854736	4557.877441	1228.521362	6.741319
713.604553	995.433594	4505.122559	1219.159058	6.374510
713.928467	985.328369	4453.259277	1224.508911	6.896924
714.252258	979.829895	4430.076660	1223.468628	7.061487
714.575989	973.885742	4421.531738	1210.837158	6.872847
714.899719	972.845520	4420.194824	1201.920776	6.644968
715.223267	972.994141	4417.074219	1198.725708	6.554191
715.546936	975.074646	4428.591309	1212.546021	6.876219
715.870422	977.377991	4434.386230	1214.032104	6.845634
716.193970	975.966248	4407.711426	1212.471802	6.891699
716.517395	977.155090	4365.062012	1207.939331	6.812000
716.840820	979.235596	4316.170410	1203.481079	6.720104
717.164124	975.743347	4279.687988	1200.880493	6.814193
717.487488	968.907471	4234.958008	1200.732056	7.098010
717.810730	964.820801	4178.859375	1197.165527	7.229058
718.133972	966.975586	4112.581543	1198.280151	7.353260
718.457092	965.712463	4046.823486	1184.236694	7.092384
718.780212	964.300781	4000.161377	1180.150024	7.109985
719.103210	970.170654	3940.421875	1175.914917	6.926830
719.426208	979.458496	3896.360352	1177.772461	6.798788
719.749207	983.099304	3826.292969	1178.738403	6.880963
720.072083	981.241699	3796.051514	1179.109863	7.029540
720.394958	970.913635	3760.683350	1171.010864	7.172535
720.717773	977.526672	3740.175781	1173.760132	7.103090
721.040527	973.811462	3705.179443	1165.363892	7.013059
721.363281	980.572998	3673.377930	1177.475220	7.312160
721.685913	981.241699	3661.043701	1166.701294	6.920645
722.008545	987.854675	3653.539063	1168.410278	6.773330
722.331055	985.551331	3643.210938	1155.481567	6.393981
722.653503	977.080750	3627.012939	1160.311279	6.914536
722.976013	975.000244	3616.164795	1151.469238	6.681484
723.298401	978.864075	3601.972900	1148.720093	6.475370
723.620789	984.733948	3600.709961	1149.165894	6.285682
723.943115	980.127197	3592.833984	1156.670532	6.757105
724.265381	975.817627	3593.131104	1153.847046	6.801991
724.587585	977.749512	3582.580078	1150.280396	6.623497
724.909790	972.919739	3586.740967	1148.497070	6.717266
725.231873	978.418213	3590.827393	1149.908813	6.564462
725.553894	969.724792	3604.424805	1147.976929	6.765557
725.875916	1018.095886	3652.201904	1191.444214	6.580917
726.197937	1016.015442	3677.613281	1203.703979	7.051724
726.519775	1021.513855	3687.124023	1207.864990	6.990937
726.841675	983.619446	3669.811523	1168.038696	6.865453
727.163513	979.309875	3681.848389	1161.723145	6.749701
727.485291	981.316101	3710.975342	1163.134766	6.660856
727.806946	976.560730	3738.615479	1168.187378	6.937829
728.128662	986.591553	3749.166748	1173.611450	6.769767
728.450256	980.647278	3772.720703	1167.741577	6.700909
728.771790	976.189148	3761.798096	1157.785034	6.519073
729.093323	963.706299	3763.061279	1149.611816	6.641013
729.414795	956.498962	3739.135986	1155.481689	7.150869
729.736145	960.511230	3740.101563	1153.772705	6.952876
730.057495	962.666077	3736.089111	1155.035767	6.936182
730.378845	975.223206	3751.990234	1156.670532	6.534482
730.700134	984.436707	3758.380127	1166.404175	6.559884
731.021301	990.083740	3798.429443	1170.639282	6.429249
731.342468	986.963074	3822.726563	1170.862305	6.484999
731.663574	985.328430	3848.212158	1166.106934	6.314559
731.984680	985.179871	3845.165771	1174.948853	6.635312
732.305664	986.963074	3834.168945	1172.125366	6.503298
732.626648	984.659607	3837.661377	1174.205933	6.643751
732.947571	988.151855	3830.156494	1163.357788	6.164871
733.268433	988.151855	3814.701904	1165.809814	6.285328
733.589233	989.117859	3790.776123	1165.141113	6.282824
733.909973	981.538879	3747.606445	1161.277222	6.497973
734.230713	973.811462	3727.544678	1158.156494	6.694368
734.551331	966.083984	3667.805420	1153.698364	6.944253
734.871948	967.124207	3628.350586	1158.899536	7.206276
735.192505	969.353333	3556.796875	1156.670410	7.239465
735.513062	970.022034	3516.524658	1161.797485	7.530935
735.833435	971.359558	3467.261963	1158.751099	7.507967
736.153931	964.449402	3435.534912	1154.961548	7.709654
736.474304	970.170715	3405.145264	1143.147461	7.103842
736.794617	973.737244	3379.138916	1138.912231	6.866836
737.114807	980.795898	3373.938232	1137.871948	6.563590
737.434998	978.046692	3382.259766	1146.268066	6.996941
737.755188	975.743347	3412.872314	1144.781982	6.935974
738.075256	980.498779	3421.045898	1140.695435	6.563965
738.395325	977.600891	3437.541016	1133.339478	6.330991
738.715271	978.789734	3463.696045	1139.878052	6.482672
739.035278	975.223206	3493.565186	1146.936768	6.818516
739.355164	972.176819	3512.661133	1153.995483	7.156850
739.675049	973.068542	3503.076172	1152.138062	7.077826
739.994873	973.365723	3498.915283	1148.348633	6.928508
740.314636	982.504883	3453.144775	1138.689087	6.321609
740.634277	981.761902	3420.749023	1136.385742	6.339674
740.953979	986.220032	3367.176758	1134.008057	6.207086
741.273499	990.603821	3344.440186	1133.710815	6.079734
741.593140	991.123962	3301.715820	1131.481812	6.074541
741.912598	986.071350	3265.678711	1130.590210	6.339638
742.232117	979.830017	3220.725586	1136.980347	7.012836
742.551453	970.987976	3190.187500	1133.042114	7.302369
742.870850	975.891907	3160.094727	1125.314697	6.841067
743.190063	971.210938	3143.673828	1115.283813	6.631776
743.509338	971.805359	3120.788818	1115.358276	6.680038
743.828552	963.557678	3097.828857	1121.971069	7.422365
744.147705	964.820801	3072.120117	1129.995728	7.838228
744.466797	967.867249	3062.163330	1131.556030	7.815933
744.785828	972.474060	3057.631104	1131.853271	7.643511
745.104858	975.817688	3037.495361	1123.605713	7.168338
745.423706	974.628845	3023.451904	1119.593384	7.075503
745.742615	969.947754	2999.452393	1111.122925	6.956140
746.061401	964.077820	3005.024658	1111.494263	7.222944
746.380249	966.009705	3002.126953	1113.129028	7.225484
746.698975	973.217041	3000.417969	1115.952515	7.041013
747.017639	969.576172	2984.071533	1110.231201	6.982147
747.336304	970.616394	2969.433838	1115.655396	7.256241
747.654907	959.842529	2964.083984	1117.290039	7.855716
747.973389	971.433777	2971.440186	1120.484985	7.452537
748.291931	968.313049	2968.096436	1120.633667	7.616856
748.610352	976.560730	2978.350342	1116.992798	7.015326
748.928711	973.811523	2986.375000	1117.364258	7.132830
749.247070	980.795959	2986.597900	1111.345825	6.508612
749.565308	975.594727	2983.774414	1109.636841	6.674807
749.883545	972.771240	2975.303955	1114.763672	7.090642
750.201782	966.975586	2971.588867	1105.178711	6.894254
750.519836	974.405945	2960.294922	1112.385986	6.948024
750.837952	978.418274	2959.106201	1105.104370	6.396065
751.155884	980.647400	2953.458984	1116.398438	6.881095
751.473877	991.792786	2956.282471	1110.974243	6.066790
751.791809	991.049744	2931.093750	1106.218872	5.936419
752.109619	991.272644	2927.230225	1100.571899	5.645747
752.427490	980.052917	2913.707031	1095.445068	5.967569
752.745300	978.343933	2931.762451	1101.909302	6.325596
753.062988	978.789734	2933.917236	1106.887695	6.551898
753.380615	978.343933	2918.090576	1112.608887	6.921778
753.698303	982.802063	2895.874268	1109.191040	6.606597
754.015808	984.808289	2894.239502	1110.157104	6.564720
754.333374	983.396545	2906.871094	1104.361328	6.288868
754.650757	986.665833	2906.127930	1103.989746	6.112333
754.968262	979.607117	2902.264404	1097.153931	6.113769
755.285583	977.229309	2890.524170	1102.132202	6.528157
755.602905	967.049988	2898.251953	1106.813354	7.237118
755.920105	969.576172	2893.496338	1102.652344	6.916928
756.237305	964.969482	2903.675781	1107.704956	7.362408
756.554443	970.393555	2894.239502	1100.571899	6.766568
756.871582	977.600891	2887.923828	1109.265259	6.892257
757.188599	982.356262	2898.772217	1103.989868	6.346931
757.505615	984.213806	2929.310547	1108.373657	6.383223
757.822510	977.080811	2961.037842	1097.896973	6.089656
758.139465	979.384094	2982.510986	1099.085938	5.975749
758.456238	972.251160	2997.000244	1100.869141	6.352293
758.773010	968.015869	3022.708984	1111.568726	6.986584
759.089783	964.672180	3046.337158	1116.101196	7.274418
759.406433	965.118103	3055.402344	1117.141479	7.272857
759.723145	971.656677	3041.433594	1113.129028	6.835150
760.039673	980.721619	3031.253906	1113.129028	6.457222
760.356201	985.254089	3030.362061	1113.351929	6.263622
760.672668	986.294250	3049.235107	1117.438599	6.357155
760.989136	981.836121	3042.399170	1116.546997	6.537576
761.305481	981.613220	3048.640625	1114.466431	6.427259
761.621826	983.099304	3054.436279	1112.980469	6.270402
761.938049	986.814453	3078.956299	1115.581055	6.154774
762.254333	989.786621	3109.865967	1122.119629	6.241889
762.570496	989.638000	3184.540283	1133.042236	6.533513
762.886597	986.591553	3322.000244	1145.896606	6.821292
763.202637	987.408936	3517.416260	1154.812866	6.616737
763.518677	988.226257	3732.671631	1170.862305	6.654753
763.834656	988.746277	3938.861328	1181.636108	6.538383
764.150574	984.436768	4074.315186	1202.738159	7.065048
764.466370	980.573059	4121.869141	1203.481323	7.096060
764.782288	980.498779	4053.659424	1193.673218	6.936651
765.097961	977.972412	3932.546143	1179.184326	6.810184
765.413696	980.721680	3742.553955	1153.401245	6.252355
765.729309	977.080872	3578.642334	1147.605591	6.554707
766.044861	978.715515	3409.231689	1137.351685	6.526851
766.360474	973.291321	3273.629150	1139.135132	7.209541
766.675903	970.765076	3169.085205	1133.636719	7.408914
766.991394	970.690735	3088.838135	1123.085571	7.194723
767.306763	972.548340	3039.204346	1114.243652	6.856260
767.622131	981.538879	2978.647705	1113.351929	6.600194
767.937378	982.950684	2933.397217	1114.540894	6.746671
768.252625	984.585388	2897.063232	1114.169312	6.775709
768.567810	972.399719	2866.747803	1106.516235	7.079824
768.882996	966.083984	2823.280518	1103.023804	7.373469
769.197998	959.693909	2784.568604	1098.119751	7.585498
769.513062	965.117981	2741.399170	1101.240601	7.663348
769.828064	968.015808	2724.829346	1096.411011	7.308414
770.142944	973.588562	2695.851318	1106.516235	7.718200
770.457825	975.891907	2675.046631	1099.828979	7.294043
770.772705	977.377930	2655.727783	1101.463623	7.393315
771.087402	976.486328	2656.470947	1097.005493	7.173825
771.402100	970.096375	2651.418213	1091.061157	7.194624
771.716736	974.034424	2644.359375	1092.918701	7.117434
772.031372	973.662842	2614.787354	1088.311890	6.986005
772.345947	976.337708	2593.685303	1084.894043	6.711998
772.660461	976.783508	2572.286133	1076.646484	6.259029
772.974854	978.566833	2569.982666	1079.246948	6.326449
773.289246	980.647278	2567.530518	1087.643188	6.742519
773.603638	976.783508	2551.258057	1093.141724	7.390288
773.917908	974.480164	2538.775391	1085.191284	7.077381
774.232178	974.777344	2523.171631	1079.618530	6.770962
774.546265	971.210876	2506.750732	1081.773315	7.200233
774.860474	974.628845	2480.447754	1088.014771	7.529851
775.174561	978.269592	2465.364258	1092.472900	7.679626
775.488586	978.864014	2448.497559	1086.900146	7.351229
775.802551	980.870178	2442.850586	1088.906372	7.389715
776.116516	979.607117	2425.760742	1082.516235	7.116057
776.430359	983.247864	2427.692871	1083.036499	6.908441
776.744202	981.984802	2413.352295	1074.120239	6.436882
777.057922	972.994141	2412.312256	1073.748657	7.000156
777.371704	973.291321	2395.593994	1071.370972	6.895835
777.685303	970.393555	2395.668457	1071.519531	7.095191
777.998962	973.960144	2399.680664	1073.228638	6.962690
778.312500	969.130371	2417.661865	1075.160278	7.319820
778.626038	966.752747	2421.005615	1078.652588	7.694662
778.939453	965.861023	2413.649414	1080.510132	7.918914
779.252869	973.588562	2402.727051	1076.572144	7.205991
779.566223	975.223206	2391.507324	1078.206787	7.271392
779.879578	986.294373	2382.145264	1075.457642	6.387736
780.192749	990.752502	2384.151367	1079.395630	6.361648
780.505920	994.170410	2400.646729	1079.692871	6.080619
780.819031	987.483093	2412.386475	1078.949829	6.419154
781.132141	980.127136	2398.789063	1076.200684	6.772124
781.445190	974.851746	2375.160889	1070.107910	6.802510
781.758118	976.486389	2365.798584	1074.788940	7.075627
782.071045	974.480286	2353.092773	1078.949829	7.577876
782.383911	980.498779	2340.758545	1080.584351	7.357828
782.696838	982.579163	2311.854736	1072.262573	6.746788
783.009583	983.619385	2294.393555	1065.798218	6.269488
783.322266	979.384094	2281.836670	1062.454590	6.378005
783.634888	974.182922	2268.759277	1063.420532	6.893190
783.947510	979.012695	2258.579834	1063.792114	6.625633
784.260132	982.207703	2253.378662	1062.974731	6.353751
784.572571	979.830017	2253.972900	1062.454590	6.484718
784.885010	972.548340	2252.115479	1055.618652	6.492064
785.197449	972.176758	2246.171143	1060.151245	6.905406
785.509766	979.829895	2233.465332	1062.306030	6.578957
785.822083	985.254089	2230.864990	1065.501099	6.442382
786.134277	981.984680	2222.320068	1061.860229	6.439835
786.446533	979.309814	2229.156006	1050.046021	5.659593
786.758606	978.641113	2234.728760	1052.572388	5.885837
787.070740	983.990967	2227.818604	1052.646606	5.519707
787.382690	978.938293	2224.103271	1061.562988	6.635642
787.694641	974.257324	2238.295166	1064.312134	7.124376
788.006653	967.718567	2289.341064	1063.792114	7.269363
788.318481	974.405945	2347.743164	1071.742554	7.087597
788.630310	968.238770	2387.718018	1075.234741	7.537692
788.942017	969.947754	2404.213135	1074.640259	7.299382
789.253784	969.724792	2399.977783	1074.491699	7.325061
789.565430	977.526611	2388.014893	1068.621704	6.458408
789.877014	970.319275	2372.634277	1068.250366	6.983531
790.188538	967.049988	2338.157959	1063.717896	7.050350
790.500061	966.604065	2298.257324	1064.683838	7.365263
790.811462	981.836182	2252.338135	1067.804565	6.766490
791.122925	980.275818	2222.988525	1066.392700	6.929750
791.434204	976.634949	2201.143555	1068.918945	7.536411
791.745483	968.833191	2188.958008	1063.048950	7.721814
792.056702	975.446106	2175.732178	1061.265869	7.149942
792.367920	978.195313	2159.831299	1051.829468	6.231543
792.678955	973.885742	2142.593018	1050.863403	6.586565
792.990112	971.359436	2134.717041	1050.863403	6.834009
793.301086	972.399658	2133.751221	1059.185181	7.472804
793.612122	975.891907	2129.739014	1061.191406	7.392617
793.922974	971.730957	2125.057861	1058.145020	7.492590
794.233826	973.588623	2128.698486	1053.686890	6.934255
794.544556	977.675110	2141.552979	1051.383667	6.333014
794.855286	980.275696	2143.707764	1052.795288	6.233246
795.166016	981.018799	2146.531250	1052.646606	6.145607
795.476624	976.634949	2151.063721	1053.909790	6.579782
795.787292	973.885742	2165.255615	1051.829346	6.542351
796.097778	969.501953	2176.178223	1056.287476	7.192113
796.408264	967.124207	2214.221191	1059.408203	7.399906
796.718689	972.102539	2236.809082	1065.352417	7.373242
797.029053	984.139465	2257.019287	1060.894409	6.030023
797.339355	986.517273	2251.595459	1065.872559	6.272758
797.649658	984.362488	2238.740967	1060.894165	6.101163
797.959839	975.074646	2216.970459	1060.819946	6.904388
798.270020	981.018799	2192.376221	1056.807617	6.256520
798.580078	978.195374	2183.088135	1061.414429	6.906760
798.890137	974.331604	2175.880859	1063.123413	7.389777
799.200195	968.981750	2156.116211	1059.705322	7.642232
799.510071	969.130371	2132.785400	1064.535156	8.198717
799.820007	967.198486	2118.296143	1061.860107	8.223596
800.129883	967.941589	2100.389160	1063.791992	8.464004
800.439575	970.319153	2086.345947	1055.915894	7.669774
800.749329	977.675232	2071.039795	1061.562866	7.672431
801.058960	975.223206	2067.919189	1060.671387	7.819941
801.368591	977.006409	2059.448486	1057.996460	7.482160
801.678162	975.743347	2054.469971	1053.315308	7.191068
801.987671	980.498718	2039.981079	1055.321533	7.062204
802.297119	975.594727	2043.101929	1056.064575	7.538108
802.606506	978.418152	2030.916382	1048.039917	6.614905
802.915894	975.668945	2029.950317	1043.358765	6.420470
803.225159	976.263428	2020.291016	1044.324829	6.519119
803.534424	968.164490	2013.232300	1042.541626	7.116967
803.843628	967.644348	2015.461304	1043.284546	7.218837
804.152771	970.690735	2008.253906	1042.467285	6.917800
804.461792	975.594666	2014.718262	1048.262817	6.993216
804.770874	980.647278	2014.346680	1045.067749	6.232031
805.079773	985.179688	2022.743164	1046.479492	5.908053
805.388733	989.637939	2021.776978	1047.222534	5.579151
805.697571	986.220032	2022.000000	1045.067749	5.681488
806.006470	978.195313	2033.591187	1041.426880	5.991265
806.315125	974.851746	2043.622070	1042.021362	6.284757
806.623901	979.235535	2061.380615	1050.937622	6.625922
806.932495	987.111633	2056.104980	1058.665161	6.693542
807.241150	986.517273	2050.755127	1059.036621	6.814205
807.549622	979.235535	2028.167114	1056.881836	7.402418
807.858154	971.805359	2015.461304	1047.965454	7.297433
808.166565	966.678406	2005.207520	1046.628052	7.698354
808.474915	971.879578	1993.987793	1044.621948	7.116895
808.783264	974.331543	1984.254272	1048.188477	7.313127
809.091492	977.898132	1972.663086	1044.919067	6.737364
809.399719	974.554443	1973.851929	1045.364990	7.086033
809.707825	977.526611	1959.808594	1045.067871	6.875954
810.015930	977.898132	1943.536255	1047.222656	7.179141
810.323975	981.167419	1927.189453	1040.609741	6.283397
810.632080	978.269531	1923.846069	1035.036987	6.003476
810.939880	983.247864	1925.703613	1033.253540	5.305891
811.247864	982.207703	1919.462280	1035.408325	5.676219
811.555664	979.012695	1919.313599	1036.151367	6.076637
811.863464	972.919861	1912.031860	1036.820190	6.804335
812.171143	976.114807	1908.093872	1038.454956	6.689007
812.478882	978.492493	1901.703735	1029.835815	5.561384
812.786438	976.783630	1901.778320	1032.733521	6.048672
813.094055	973.960144	1880.899048	1029.687134	6.144514
813.401489	975.743347	1867.524536	1036.671509	6.832187
813.708984	981.538879	1856.602051	1033.848022	5.977756
814.016357	989.489258	1873.691772	1038.826294	5.579834
814.323730	986.517273	1880.453247	1043.210083	6.341932
814.630981	990.678162	1875.326538	1045.587891	6.206955
814.938232	981.836182	1865.964233	1042.987305	6.916546
815.245361	981.316101	1862.174805	1043.581787	7.068748
815.552490	978.938416	1858.905396	1040.163818	6.957693
815.859619	977.675293	1865.964355	1038.231934	6.817223
816.166565	980.721619	1870.719727	1035.854126	6.194677
816.473572	975.520325	1881.716431	1035.259766	6.592330
816.780457	975.371765	1877.927124	1043.284546	7.524500
817.087341	976.932129	1881.270630	1047.148193	7.764357
817.394043	974.628723	1888.403687	1050.268921	8.277771
817.700806	976.337708	1899.994995	1049.302979	7.899604
818.007507	972.251160	1904.750366	1045.810791	7.888439
818.314209	975.966248	1904.081543	1049.005737	7.869657
818.620667	971.062256	1916.415894	1043.284546	7.639711
818.927246	974.331604	1936.477539	1043.581665	7.197459
819.233704	976.114929	1976.229492	1045.216431	6.909359
819.540161	970.319275	2020.365234	1046.108032	7.217661
819.846497	974.628845	2074.011719	1055.247192	7.333055
820.152832	973.960022	2150.320801	1057.476318	7.099547
820.458984	983.024902	2238.964111	1068.398804	6.797614
820.765259	976.114746	2352.869873	1071.445190	6.924284
821.071350	977.377930	2453.995850	1070.182129	6.284916
821.377502	985.848450	2632.768311	1080.584473	5.752315
821.683472	987.557434	2994.102539	1105.252930	5.865579
821.989441	987.111633	3688.089844	1165.289551	6.596792
822.295349	985.922852	4808.203613	1247.245483	6.836824
822.601196	991.272644	6238.531250	1339.529419	6.636928
822.907043	986.442932	7583.929688	1426.166382	6.665014
823.212769	977.898132	8389.594727	1475.429077	6.712780
823.518494	976.486328	8365.371094	1484.048340	6.869264
823.824097	976.040527	7673.093262	1437.014648	6.883239
824.129700	975.743347	6619.927246	1367.095703	6.933728
824.435242	975.743347	5585.187500	1289.003540	6.796051
824.740723	981.167480	4721.640625	1231.641968	6.696332
825.046082	983.099304	4073.275391	1185.351318	6.545000
825.351501	978.641113	3601.453125	1154.589966	6.708405
825.656799	971.508118	3291.461914	1126.800781	6.693782
825.962036	972.399719	3101.544189	1108.968140	6.414239
826.267212	975.891907	3004.876221	1098.788696	6.057059
826.572449	975.743347	3017.730713	1101.017700	6.134923
826.877502	969.353271	3157.122803	1126.949341	7.203504
827.182495	962.814636	3440.216064	1153.549683	7.698997
827.487488	965.638184	3799.989990	1179.184204	7.534210
827.792419	974.480164	4104.407715	1194.416382	7.026879
828.097290	977.823730	4204.791016	1195.382202	6.741887
828.402100	977.006409	4059.974854	1187.208862	6.818183
828.706848	976.114929	3729.253662	1167.369995	6.946801
829.011597	977.749512	3335.077881	1148.125610	7.227508
829.316223	979.904297	2958.808594	1127.915405	7.479447
829.620789	982.207703	2657.733887	1098.788696	6.957874
829.925354	979.755676	2429.253174	1083.407959	7.150911
830.229797	986.071350	2268.536377	1066.169800	6.245663
830.534302	982.504883	2141.255615	1058.368042	6.546978
830.838562	988.151855	2055.658936	1049.377319	5.735368
831.142944	985.105469	1997.851563	1045.885132	6.001471
831.447144	988.374756	1958.322632	1041.649902	5.492579
831.751404	981.464600	1934.545532	1037.563232	5.886030
832.055542	981.613220	1916.118530	1034.293823	5.637272
832.359619	983.842285	1922.285645	1035.259888	5.479031
832.663635	981.315979	1950.372192	1034.591187	5.497639
832.967651	984.659668	1998.743164	1036.968750	5.158262
833.271545	982.653503	2096.674316	1044.176147	5.522576
833.575439	989.192078	2255.310547	1059.630981	5.563374
833.879211	983.099304	2501.252441	1074.714478	6.034647
834.183044	981.538879	2754.921875	1096.187988	6.464994
834.486694	980.647278	2947.663086	1113.203369	6.738944
834.790344	985.254089	3001.681396	1122.416870	6.802268
835.093933	980.795898	2927.898682	1113.649292	6.823132
835.397522	982.059082	2755.887939	1097.748413	6.522012
835.700928	976.411926	2560.694580	1084.671143	6.833327
836.004395	979.755676	2366.393311	1075.234741	6.885653
836.307739	973.811462	2211.546143	1059.036743	6.885586
836.611023	969.427673	2083.374023	1054.058472	7.597386
836.914307	963.260437	1981.876465	1038.974976	7.433079
837.217529	966.306824	1899.548950	1037.934692	7.675165
837.520691	964.226379	1824.131836	1029.910034	7.638474
837.823730	959.916809	1776.652344	1032.064819	8.833705
838.126831	960.065430	1728.281250	1027.160889	8.733933
838.429749	966.604065	1692.170288	1021.736755	7.598575
838.732727	978.715393	1652.343872	1018.467468	5.901187
839.035522	984.065247	1626.189453	1015.643860	4.917836
839.338379	982.207581	1626.932251	1014.157898	4.955653
839.641113	977.229309	1637.111816	1009.625427	4.909377
839.943848	972.473938	1682.213501	1008.659485	5.098426
840.246460	979.161194	1730.733276	1015.272461	4.804764
840.549072	983.693787	1796.565430	1027.755249	5.420470
840.851563	982.207703	1827.104004	1040.089478	6.850755
841.154053	980.201599	1841.815918	1040.758179	7.028270
841.456482	983.693787	1816.107056	1035.259766	6.194757
841.758850	978.789795	1768.924805	1026.046265	5.980810
842.061157	978.492493	1700.120605	1024.783203	6.414760
842.363403	969.130371	1645.136719	1022.331238	7.869877
842.665588	975.297546	1598.103027	1026.789307	8.267712
842.967712	971.210938	1553.818481	1023.297058	8.940173
843.269775	968.238770	1522.611328	1021.885254	9.676973
843.571777	965.861084	1508.493774	1018.541687	9.708336
843.873840	972.325378	1497.720093	1017.204285	8.541941
844.175659	977.898132	1482.339233	1013.712097	7.099732
844.477600	976.040527	1468.741821	1005.761719	6.032294
844.779297	971.582458	1465.621094	1002.269470	6.211460
845.081116	975.817688	1457.596558	996.770996	4.349154
845.382751	981.316101	1449.200195	999.891785	3.970146
845.684387	985.254089	1439.763794	1000.337585	3.318630
845.985962	981.761902	1424.011719	1006.058838	5.493939
846.287537	975.371887	1413.683594	1001.526367	5.967096
846.588989	970.170654	1400.234741	996.622375	6.150646
846.890381	964.077820	1397.857056	984.882507	4.796146
847.191711	972.399658	1387.231812	990.083740	4.262949
847.493042	969.724792	1379.875977	991.346924	5.271747
847.794250	975.594788	1369.696289	1001.749329	6.636499
848.095459	978.046692	1368.879028	997.513977	4.980981
848.396606	980.870300	1365.461060	997.365479	4.289021
848.697693	986.294373	1362.711914	996.250916	2.645079
848.998657	979.458496	1357.807983	995.210632	4.163383
849.299622	988.969238	1356.544800	999.074402	2.749139
849.600464	987.483154	1353.201172	1004.572754	4.672890
849.901367	995.804993	1345.845093	1006.207336	2.971758
850.202087	989.340637	1343.170288	1003.458191	3.989929
850.502808	979.978516	1349.857544	1005.018555	6.769792
850.803467	973.216980	1344.136230	1011.780090	10.396632
851.104065	977.600891	1338.637817	1006.876160	8.108664
851.404663	986.294250	1332.990723	996.325195	2.893293
851.705139	981.018738	1339.157837	985.848450	1.348558
852.005615	975.223145	1336.037231	990.306641	4.180407
852.306030	970.542175	1329.349976	994.690491	6.730154
852.606384	972.251038	1328.161133	1002.269348	8.434239
852.906616	973.365662	1327.120972	1002.046448	8.107521
853.206909	974.257324	1326.749390	1002.120850	7.904724
853.506958	972.696960	1320.953735	1007.693542	10.049074
853.807129	972.176758	1316.272705	1003.606873	9.134113
854.107178	972.102539	1310.551392	1006.727539	10.230497
854.407166	978.715515	1306.316040	994.244690	4.740278
854.707092	973.217102	1304.829956	1001.006165	8.379972
855.007019	971.582336	1311.368652	999.000000	8.069090
855.306763	972.399719	1313.969238	997.736877	7.417863
855.606567	971.730957	1307.579224	996.028015	7.234534
855.906250	974.480164	1299.851685	992.535706	5.549208
856.205933	968.090149	1288.632202	995.879333	8.669435
856.505493	973.514221	1294.576294	993.575989	6.248563
856.805054	975.000305	1289.152344	992.684387	5.629148
857.104492	978.418213	1293.313110	983.693787	1.675344
857.403931	984.585266	1290.043823	989.043518	1.459528
857.703308	978.121033	1300.297729	992.907227	4.589467
858.002563	983.916565	1298.514404	1003.086731	6.093546
858.301819	978.492615	1301.114868	1001.377747	7.093476
858.601013	984.585388	1298.439941	997.365479	4.071979
858.900208	981.910461	1307.430664	1001.006287	5.866249
859.199219	987.483215	1312.706177	995.433594	2.444593
859.498291	986.294373	1308.470825	992.387207	1.891148
859.797302	990.901062	1303.938354	993.798828	0.925694
860.096191	989.117737	1293.461792	998.851501	3.198277
860.395020	990.901062	1285.659912	998.554260	2.596427
860.693787	989.043518	1275.703369	992.684326	1.270079
860.992554	983.396484	1276.743652	983.619446	0.076006
861.291260	983.470886	1292.272827	990.752441	2.358002
861.589844	986.665833	1297.102539	991.346863	1.507886
861.888428	990.306641	1291.827148	996.399414	2.020683
862.186890	990.083740	1286.328613	991.718445	0.551809
862.485413	982.504883	1284.396851	990.975403	2.805812
862.783813	984.213867	1287.220337	995.433594	3.702801
863.082153	981.093079	1285.882935	999.966064	6.192131
863.380371	984.139465	1293.164551	994.319031	3.294090
863.678589	984.659668	1293.164551	992.015625	2.384389
863.976746	984.436768	1283.430908	988.969238	1.515906
864.274902	978.195313	1280.458862	994.021790	5.235986
864.572937	970.096375	1281.944946	988.672058	5.956636
864.870911	973.737122	1279.641479	990.975403	5.635187
865.168884	976.040527	1280.904663	989.340759	4.362675
865.466736	978.864075	1274.960449	991.867004	4.391452
865.764587	976.263428	1279.567261	992.015625	5.193537
866.062317	979.978699	1266.489868	996.102295	5.627563
866.360107	982.653503	1270.873779	995.730774	4.537249
866.657715	981.167419	1267.158569	995.062012	4.858399
866.955322	973.662842	1267.530151	992.684265	6.472793
867.252808	967.272766	1261.883179	999.668762	10.996216
867.550293	968.535950	1259.356812	998.108398	10.168613
867.847717	972.028259	1254.229980	1000.560364	10.110536
868.145081	977.972412	1255.047241	993.130066	5.470599
868.442383	979.161316	1253.932739	991.346863	4.434794
868.739624	978.195313	1260.471313	983.322205	1.816269
869.036804	975.371826	1256.607544	984.882568	3.381769
869.333984	964.672180	1253.784058	988.449158	8.224144
869.631042	969.427551	1253.115356	990.306702	7.359904
869.928101	970.467957	1256.013184	988.523438	6.323160
870.224976	982.504883	1265.598267	987.557434	1.784765
870.521851	984.288147	1271.171021	984.733948	0.155395
870.818726	985.625549	1275.554810	984.956848	-0.230643
871.115479	973.514221	1274.366089	982.579163	3.013091
871.412231	965.341003	1275.629150	983.916687	5.986591
871.708862	956.796143	1275.777710	986.145691	9.201017
872.005493	962.145813	1282.836426	983.545105	6.672878
872.302063	959.693848	1287.740601	986.071472	8.040812
872.598572	967.495667	1291.827148	979.086975	3.573908
872.895020	969.873474	1281.573364	980.572998	3.432636
873.191406	978.269592	1277.858276	985.848450	2.529754
873.487671	980.870300	1271.765259	999.297302	6.334589
873.783997	980.573059	1282.539185	1005.315735	8.193858
874.080200	971.953918	1280.012939	999.445984	8.924285
874.376343	967.570068	1282.242065	989.935120	7.107417
874.672424	976.114807	1272.211304	990.381042	4.818103
874.968445	977.972412	1273.474243	992.015625	4.752327
875.264465	973.662903	1280.161499	992.684387	6.206059
875.560364	964.003601	1293.090210	994.467590	9.257134
875.856201	967.867249	1288.929199	990.455261	7.035406
876.152039	976.783630	1274.663208	993.724609	5.687191
876.447754	982.653503	1268.718994	986.740234	1.428600
876.743469	983.768066	1274.365967	991.198425	2.556921
877.039063	982.430664	1280.235840	986.294373	1.297395
877.334595	978.343933	1274.291626	990.083740	3.966852
877.630127	976.783630	1270.947876	986.517273	3.308914
877.925537	982.802063	1271.691040	988.746277	2.057612
878.221008	992.015625	1273.771484	991.718445	-0.105474
878.516296	993.130127	1281.796265	999.594482	2.239388
878.811646	979.532715	1296.582520	1000.486084	6.608857
879.106812	974.628723	1323.628662	999.148621	7.025760
879.401978	976.932129	1337.523315	996.028015	5.295716
879.697083	988.746277	1362.860474	1003.755371	4.011902
879.992126	993.575989	1391.392944	999.520203	1.494208
880.287109	992.461426	1446.228149	999.074402	1.457351
880.582031	987.334656	1512.283325	991.272644	0.750166
880.876892	981.316101	1652.492676	1000.560364	2.867243
881.171753	977.675232	1897.765991	1027.235107	5.386412
881.466492	972.251160	2307.991211	1060.894165	6.636247
881.761230	973.885742	2846.016846	1097.748413	6.616132
882.055786	970.170654	3407.894531	1126.131958	6.397825
882.350403	970.467834	3792.856445	1158.230835	6.652627
882.644958	963.037598	3884.100342	1156.150269	6.611042
882.939453	969.799072	3682.814209	1146.268066	6.504534
883.233826	977.006409	3317.022217	1115.729614	5.928302
883.528137	982.504883	2918.982422	1094.479126	5.782367
883.822449	981.241699	2568.273682	1073.302734	5.800830
884.116577	977.229309	2282.505371	1049.600220	5.544490
884.410828	980.127197	2054.024414	1037.786133	5.369130
884.704956	979.607117	1866.484375	1027.978149	5.454084
884.999023	976.263489	1737.123413	1025.674805	6.494141
885.292969	971.879578	1623.514526	1027.309448	8.506276
885.586914	973.142761	1562.660522	1022.033936	8.293418
885.880798	974.480286	1510.648560	1016.832703	7.899090
886.174622	975.669128	1486.203125	1001.972168	5.152064
886.468384	980.424500	1457.373657	992.907227	2.617203
886.762085	989.043640	1431.665039	995.953613	1.561148
887.055664	990.678223	1412.123413	1003.978333	3.155834
887.349304	983.099365	1394.736328	1006.950500	5.794216
887.642822	976.635010	1370.513672	1003.829773	6.904350
887.936340	976.114807	1342.575928	996.919617	5.677221
888.229736	979.384094	1308.396606	994.170410	4.494150
888.523071	981.687500	1287.220337	988.820618	2.334648
888.816284	980.647278	1280.087280	980.498718	-0.049612
889.109619	978.938293	1275.554810	984.511047	1.878774
889.402710	975.223206	1257.350708	988.003235	4.529877
889.695862	975.446106	1239.815308	992.684387	6.520533
889.988892	977.080811	1222.948364	985.699890	3.505578
890.281921	982.133423	1221.982422	983.024902	0.371684
>>>>>End Processed Spectral Data<<<<<
