Jaz Data File
++++++++++++++++++++++++++++++++++++
Date: Fri Jun 04 12:54:52 2021
User: jaz
Dark Spectrum Present: Yes
Reference Spectrum Present: Yes
Processed Spectrum Present: Yes
Spectrometers: JAZA3586
Integration Time (usec): 40000 (JAZA3586)
Spectra Averaged: 10 (JAZA3586)
Boxcar Smoothing: 1 (JAZA3586)
Correct for Electrical Dark: No (JAZA3586)
Strobe/Lamp Enabled: Yes (JAZA3586)
Correct for Detector Non-linearity: No (JAZA3586)
Correct for Stray Light: No (JAZA3586)
Number of Pixels in Processed Spectrum: 2048
>>>>>Begin Processed Spectral Data<<<<<
W	D	R	S	P
191.335022	0.000000	0.000000	0.000000	0.000000
191.713211	424.640045	428.652374	414.163422	-261.110779
192.091385	846.753845	859.013672	837.466003	-75.758347
192.469528	1283.133667	1284.322388	1267.232910	-1337.636108
192.847641	1300.743530	1286.997437	1287.591797	95.676147
193.225739	1322.068359	1296.508179	1300.520508	84.302422
193.603790	1320.879517	1312.483276	1306.241821	174.336304
193.981842	1316.569946	1320.507935	1308.099243	-215.102295
194.359863	1311.517334	1326.526489	1313.226196	11.385467
194.737854	1320.433716	1328.755615	1315.529663	-58.929489
195.115829	1324.743164	1333.882446	1318.576172	-67.477859
195.493774	1330.464478	1333.882446	1322.811401	-223.907150
195.871704	1333.287964	1328.012573	1320.136353	249.301178
196.249603	1341.015503	1325.783569	1321.622437	127.318481
196.627457	1339.083618	1321.325317	1308.916870	169.874069
197.005310	1337.448975	1324.074585	1309.585449	208.334930
197.383133	1336.260132	1323.703003	1304.978638	249.113434
197.760910	1337.746216	1323.257202	1314.489380	160.513596
198.138687	1332.767944	1327.120972	1320.879517	210.527451
198.516449	1331.504761	1324.891846	1324.594604	104.494858
198.894180	1329.275757	1324.594604	1320.953857	177.774597
199.271866	1323.405762	1314.043579	1314.192261	98.411888
199.649536	1314.786621	1314.340820	1309.288208	1233.379028
200.027191	1305.350220	1314.266479	1303.566895	-20.000822
200.404816	1308.693726	1323.405762	1304.235718	-30.301773
200.782410	1306.984863	1334.402466	1314.860962	28.726431
201.159988	1308.470825	1347.999878	1323.925903	39.098022
201.537537	1319.021973	1351.120605	1334.699829	48.842754
201.915070	1320.730835	1354.910034	1327.120728	18.695267
202.292557	1328.607056	1349.931763	1323.182861	-25.436195
202.670029	1321.696777	1358.328125	1315.381104	-17.241173
203.047485	1324.445923	1354.315674	1318.724731	-19.153797
203.424911	1316.644165	1357.807861	1324.074463	18.050610
203.802292	1313.523438	1351.194946	1324.743164	29.783056
204.179688	1312.409058	1339.603638	1325.560547	48.360699
204.557037	1314.340820	1338.266357	1320.507813	25.775774
204.934357	1311.665894	1337.300415	1325.560547	54.202896
205.311661	1305.201538	1348.891724	1317.758667	28.741304
205.688934	1300.371948	1336.185913	1316.941284	46.265015
206.066177	1294.873535	1337.968994	1308.099365	30.689613
206.443390	1302.229492	1342.129883	1315.306763	32.774792
206.820587	1311.814575	1350.749146	1313.003296	3.053124
207.197769	1314.340820	1357.807861	1321.919556	17.435591
207.574921	1309.808350	1355.132935	1316.272583	14.262091
207.952042	1303.566895	1349.931763	1325.486206	47.275692
208.329147	1304.681519	1337.448853	1322.885620	55.555637
208.706223	1313.077759	1336.111450	1331.058960	78.064781
209.083267	1313.077759	1348.148438	1323.405762	29.449110
209.460297	1318.798950	1357.064819	1319.764893	2.524292
209.837280	1305.944580	1354.687134	1315.306763	19.207411
210.214264	1301.635010	1349.783203	1318.278809	34.567856
210.591217	1299.034546	1337.449097	1312.780396	35.782925
210.968124	1302.378052	1341.387085	1308.990967	16.952267
211.345016	1308.842407	1343.096069	1306.018921	-8.242874
211.721893	1307.505005	1352.532593	1303.046875	-9.900886
212.098724	1305.573120	1352.086670	1306.241821	1.437648
212.475555	1302.675415	1353.349731	1309.139648	12.756430
212.852356	1304.161377	1352.458130	1311.814453	15.845943
213.229126	1305.350220	1356.098999	1317.535767	24.011507
213.605865	1304.458496	1352.681030	1316.421265	24.807425
213.982590	1309.362549	1356.173218	1325.040405	33.492058
214.359283	1309.659668	1347.479858	1326.452148	44.400837
214.735931	1311.220093	1341.461304	1324.669067	44.472340
215.112579	1301.189331	1335.740112	1319.170532	52.042820
215.489197	1299.034546	1342.055786	1310.997192	27.806374
215.865799	1299.703247	1345.102173	1313.820801	31.096668
216.242355	1297.325562	1344.582153	1314.489502	36.320732
216.618896	1293.758911	1341.164185	1316.495728	47.962631
216.995407	1295.319336	1343.764771	1315.975464	42.637924
217.371902	1300.148926	1345.770874	1317.981567	39.087856
217.748367	1297.028198	1343.616089	1313.523560	35.406971
218.124802	1300.074585	1346.142456	1315.975464	34.516201
218.501236	1296.433960	1348.074219	1321.845337	49.208462
218.877609	1302.303711	1352.755371	1325.411987	45.802807
219.253983	1296.136719	1351.938110	1326.972290	55.259502
219.630295	1302.155151	1357.807983	1317.387207	27.369776
220.006592	1306.910522	1352.903931	1316.198364	20.193853
220.382889	1313.597778	1354.241333	1316.495605	7.129857
220.759140	1318.278809	1349.931763	1324.891724	20.891937
221.135391	1308.470825	1357.956421	1321.548218	26.426664
221.511581	1302.749634	1357.064819	1307.356323	8.481402
221.887772	1295.913818	1357.287720	1301.040649	8.353438
222.263931	1305.944702	1350.080444	1308.842407	6.565439
222.640060	1308.025024	1354.018555	1323.703003	34.087357
223.016159	1309.436890	1356.619019	1323.925903	30.708691
223.392212	1306.464722	1357.510742	1316.198364	19.068367
223.768265	1308.470825	1349.411743	1313.820679	13.067253
224.144302	1308.025146	1348.520020	1317.758789	24.036728
224.520294	1308.470947	1357.584961	1323.703003	31.013664
224.896286	1302.006714	1370.885254	1321.325317	28.047348
225.272217	1302.006714	1379.801636	1329.647217	35.529957
225.648148	1308.768188	1379.801392	1329.721558	29.497993
226.024048	1314.043579	1373.485718	1333.436646	32.625114
226.399902	1316.569824	1362.711914	1322.068359	11.916528
226.775772	1310.774292	1361.597290	1322.365601	22.807211
227.151581	1307.356323	1365.683960	1323.257202	27.261312
227.527374	1293.164551	1384.631226	1331.133301	41.511021
227.903137	1293.015991	1398.674438	1329.944458	34.950794
228.278870	1296.731079	1412.197388	1330.835938	29.536633
228.654572	1310.031250	1420.890991	1334.476929	22.050997
229.030273	1309.585327	1435.454102	1333.585205	19.067381
229.405930	1306.910522	1448.977417	1329.275635	15.742662
229.781555	1302.823853	1453.138306	1331.727661	19.228895
230.157181	1296.879761	1451.578003	1344.879272	31.027832
230.532761	1295.839478	1445.410767	1353.498413	38.549469
230.908325	1295.913696	1437.311890	1349.783203	38.097733
231.283859	1301.040527	1427.503906	1345.250854	34.958996
231.659332	1296.136719	1414.277954	1338.637817	35.974823
232.034821	1297.845581	1410.934204	1332.619263	30.749054
232.410263	1298.514282	1407.590820	1333.733765	32.288780
232.785690	1299.331665	1412.940552	1332.916504	29.561806
233.161087	1296.433960	1418.364746	1345.399414	40.158401
233.536469	1301.114868	1417.473022	1343.913452	36.781765
233.911804	1303.789917	1419.256348	1349.783325	39.832710
234.287140	1300.594849	1418.438965	1339.455078	32.975960
234.662430	1303.789917	1429.955933	1341.684204	30.035257
235.037704	1302.006714	1435.008423	1341.238281	29.497040
235.412933	1312.854858	1436.717407	1343.095825	24.414940
235.788162	1297.251343	1435.082886	1342.798828	33.045765
236.163345	1301.858032	1437.088867	1341.981445	29.670313
236.538513	1295.616577	1442.884644	1348.520142	35.923309
236.913635	1300.000366	1450.166138	1354.018433	35.972290
237.288742	1291.975708	1453.212524	1364.049438	44.700542
237.663834	1286.997437	1458.785522	1372.148438	49.567467
238.038879	1291.529907	1458.116699	1368.581909	46.253368
238.413910	1300.966309	1468.964844	1370.439453	41.353424
238.788910	1313.597778	1468.370239	1364.049316	32.597233
239.163879	1314.786621	1478.104004	1364.123657	30.209299
239.538834	1312.334717	1478.772583	1359.145386	28.125011
239.913757	1305.721802	1495.936646	1367.318726	32.382816
240.288651	1300.223267	1508.345215	1379.950195	38.307796
240.663528	1298.960327	1529.298706	1394.885132	41.645168
241.038361	1301.040649	1541.484253	1403.578491	42.645279
241.413177	1309.288208	1571.651245	1420.668091	42.452583
241.787979	1310.551392	1610.140015	1432.407837	40.674591
242.162735	1307.950806	1656.876343	1456.481812	42.568111
242.537476	1300.074707	1675.006226	1471.491089	45.719383
242.912170	1300.074829	1676.789429	1491.626953	50.848076
243.286865	1295.913696	1665.941284	1486.871704	51.606426
243.661514	1297.771362	1655.390503	1479.589966	50.841408
244.036148	1296.359741	1646.994141	1463.763672	47.743156
244.410751	1299.257324	1641.421509	1461.460083	47.404949
244.785339	1299.257446	1636.963257	1461.980347	48.184811
245.159882	1297.325562	1650.189087	1466.586914	47.967937
245.534378	1295.170776	1678.275513	1487.540405	50.213326
245.908890	1290.563965	1730.956055	1517.707397	51.577545
246.283356	1291.827148	1793.964844	1564.146851	54.232079
246.657791	1297.102539	1862.992188	1596.245483	52.862415
247.032196	1304.458618	1920.130859	1624.034668	51.906849
247.406586	1302.898071	1966.570190	1637.706177	50.447819
247.780960	1307.876587	1974.817749	1652.195313	51.626553
248.155289	1313.226440	1975.709351	1655.093140	51.603851
248.529602	1318.056030	1928.229858	1636.220215	52.143204
248.903870	1310.105591	1877.183960	1606.201782	52.214333
249.278122	1302.155151	1814.621094	1578.709961	53.965500
249.652344	1301.040649	1775.983765	1557.830688	54.067535
250.026550	1304.087036	1756.293457	1546.685425	53.647709
250.400711	1299.851807	1741.878540	1540.146851	54.362106
250.774857	1297.325562	1741.061523	1541.409790	55.006638
251.148987	1304.978638	1754.658691	1549.286133	54.329182
251.523071	1309.882690	1771.896973	1549.806030	51.929855
251.897125	1315.455444	1790.844116	1561.620239	51.781796
252.271164	1306.464722	1793.741821	1557.236328	51.463860
252.645187	1298.662964	1794.931030	1565.038208	53.675678
253.019165	1299.851807	1788.912476	1563.552124	53.919754
253.393112	1298.737183	1778.287109	1563.923462	55.298992
253.767044	1297.697144	1760.008667	1550.994995	54.789433
254.140930	1299.257324	1736.677734	1541.187134	55.308304
254.514801	1303.418335	1718.250610	1534.499878	55.704811
254.888657	1312.631958	1716.095703	1539.552368	56.243073
255.262466	1300.966431	1722.931274	1539.478149	56.524075
255.636276	1295.245117	1747.228516	1549.657593	56.288013
256.010010	1289.746704	1772.268555	1560.282837	56.067127
256.383759	1302.303711	1798.571655	1581.979126	56.355728
256.757446	1302.526733	1826.509399	1599.960449	56.764038
257.131134	1311.442993	1860.763062	1618.387573	55.877182
257.504791	1309.882690	1901.332397	1645.433716	56.733654
257.878418	1315.752563	1956.539063	1687.414673	58.000927
258.252014	1311.443115	2031.956421	1737.346191	59.111065
258.625580	1306.984863	2133.454102	1790.695435	58.527355
258.999115	1300.520508	2256.276367	1853.778442	57.886951
259.372650	1303.269653	2378.578857	1933.579712	58.616634
259.746124	1300.000366	2486.614990	2010.185913	59.849720
260.119598	1304.235718	2543.679443	2053.429932	60.446003
260.493042	1300.074707	2545.462646	2048.302979	60.079937
260.866425	1304.904419	2502.367188	2028.984375	60.467846
261.239838	1308.025024	2416.175781	1971.771362	59.896755
261.613159	1309.882690	2321.439941	1919.536499	60.268837
261.986511	1304.087158	2227.075439	1860.688843	60.304306
262.359802	1299.554565	2161.020508	1825.097656	61.005672
262.733063	1297.102661	2133.156982	1807.933716	61.100224
263.106293	1298.142822	2118.519287	1789.878296	59.940224
263.479523	1302.303711	2111.980469	1792.033081	60.484554
263.852692	1305.127319	2108.339600	1788.838013	60.222023
264.225861	1301.932251	2105.144775	1792.701782	61.100830
264.598969	1298.291504	2114.061279	1790.472656	60.333340
264.972076	1299.777466	2131.002197	1795.971069	59.694279
265.345154	1303.864258	2167.113037	1819.079224	59.683254
265.718201	1300.223267	2210.728760	1852.069702	60.608799
266.091217	1305.573120	2258.728516	1892.044434	61.529453
266.464203	1305.424438	2308.808350	1921.765503	61.426247
266.837158	1313.151978	2347.966064	1957.876587	62.303425
267.210114	1304.235718	2380.213379	1974.594727	62.302315
267.583038	1310.402832	2390.541504	1990.272583	62.942822
267.955902	1301.783569	2405.402100	1985.517212	61.953804
268.328766	1302.749512	2389.129883	1996.588379	63.867027
268.701569	1293.981812	2403.024170	2002.532593	63.888523
269.074371	1292.272949	2419.742432	2010.705933	63.720837
269.447144	1295.170776	2463.878174	2035.597168	63.354301
269.819885	1302.229614	2532.608398	2065.689697	62.050816
270.192596	1308.768066	2613.747070	2121.119873	62.250183
270.565277	1311.442993	2737.089111	2183.831299	61.192486
270.937927	1304.309937	2847.577393	2250.183594	61.290325
271.310577	1307.653442	2934.437500	2317.947510	62.103760
271.683136	1304.458496	2992.616455	2366.392822	62.904915
272.055725	1313.151978	2996.406006	2388.312500	63.873932
272.428284	1309.437012	2981.619873	2380.956299	64.079071
272.800812	1299.331665	2935.626221	2336.226318	63.368458
273.173279	1293.981812	2876.704102	2294.765381	63.231785
273.545776	1289.598022	2841.781982	2263.781006	62.762081
273.918152	1304.012817	2807.454102	2246.839844	62.711262
274.290558	1303.715698	2797.943359	2254.270264	63.615108
274.662964	1307.430786	2797.794922	2250.629395	63.286453
275.035278	1300.743408	2814.810303	2267.793457	63.871025
275.407593	1303.269653	2844.976807	2282.802490	63.535595
275.779907	1307.430664	2886.363525	2303.978760	63.115292
276.152161	1311.220215	2931.316650	2334.145752	63.139793
276.524384	1308.322388	2975.526611	2364.535400	63.352348
276.896606	1306.316162	2998.634766	2392.770508	64.199158
277.268799	1304.830200	3004.430664	2397.377197	64.282578
277.640930	1307.430664	3003.984619	2402.429932	64.542557
278.013031	1306.093140	3007.253906	2399.234619	64.258560
278.385162	1302.006470	3010.968994	2410.677490	64.873924
278.757233	1295.839478	3017.210693	2408.076904	64.613457
279.129272	1299.851807	3044.033936	2430.590576	64.829170
279.501282	1301.932251	3075.240967	2447.680176	64.610741
279.873230	1305.052979	3142.262451	2487.506592	64.361397
280.245178	1300.297607	3229.121826	2548.211914	64.698189
280.617126	1299.034546	3337.752197	2626.601074	65.117722
280.988983	1301.412231	3441.033203	2703.727295	65.540344
281.360870	1298.440063	3537.775391	2770.153564	65.720993
281.732697	1297.028320	3619.954346	2810.797607	65.166489
282.104492	1296.136597	3657.179932	2828.704346	64.910614
282.476288	1297.325317	3658.443359	2826.326904	64.757523
282.848053	1299.851685	3638.975586	2825.063721	65.204414
283.219757	1300.891968	3636.969482	2841.930420	65.966919
283.591461	1302.452393	3626.269775	2846.908936	66.462044
283.963135	1295.839478	3662.678467	2855.453369	65.894386
284.334747	1295.467896	3707.408447	2889.558594	66.091629
284.706360	1293.758911	3793.897217	2950.635498	66.271400
285.077942	1301.040649	3872.806396	3027.984375	67.150124
285.449524	1294.204834	3949.263672	3078.138672	67.189995
285.821014	1294.427734	3972.817627	3082.076904	66.743423
286.192535	1291.604248	4002.835938	3094.039795	66.480324
286.563995	1296.359497	4000.607422	3102.510010	66.789383
286.935425	1295.096558	3988.124268	3103.253174	67.142143
287.306824	1296.285278	3911.889648	3057.631104	67.339912
287.678223	1298.662964	3856.534180	2998.634766	66.460419
288.049561	1297.696899	3808.534424	2977.087158	66.885666
288.420898	1299.926147	3807.197266	2984.368896	67.182320
288.792145	1302.155151	3832.608643	2997.594727	67.001411
289.163452	1306.761841	3916.496826	3052.132813	66.879242
289.534668	1297.696899	4027.579102	3114.918701	66.567772
289.905914	1293.684692	4122.537598	3186.249023	66.902176
290.277039	1295.988159	4208.877441	3242.347656	66.818863
290.648193	1300.594849	4249.224121	3274.966553	66.958961
291.019318	1296.508179	4258.585938	3293.468018	67.417542
291.390381	1291.975708	4208.431641	3269.988281	67.822472
291.761475	1296.582397	4126.996094	3241.307373	68.708153
292.132507	1305.870239	4090.067627	3212.849609	68.492966
292.503510	1305.127319	4095.565674	3202.447266	67.993614
292.874481	1309.065308	4156.419434	3229.419189	67.443451
293.245422	1304.904297	4233.174316	3279.053467	67.416908
293.616364	1302.898193	4345.297363	3372.229248	68.016418
293.987213	1296.582520	4482.312012	3447.646240	67.521858
294.358093	1288.632202	4586.261719	3539.113037	68.245415
294.728943	1293.238892	4688.427246	3592.090820	67.709114
295.099731	1297.399780	4763.918945	3669.514404	68.429298
295.470490	1302.006714	4871.286621	3731.333984	68.062111
295.841248	1306.018921	4955.100098	3806.379639	68.520287
296.211975	1302.823853	5066.331543	3870.205811	68.217789
296.582642	1301.709351	5171.172363	3952.087158	68.494720
296.953308	1296.508179	5220.955078	3993.919922	68.733551
297.323883	1291.901489	5207.803223	3985.449219	68.784866
297.694519	1294.724976	5113.513184	3909.586670	68.473602
298.065063	1293.758911	5003.545410	3817.302490	68.023949
298.435608	1300.817749	4873.887207	3721.303467	67.742485
298.806122	1295.839478	4701.059082	3619.434326	68.236267
299.176575	1297.771362	4553.122559	3516.970459	68.170815
299.547028	1290.786987	4430.819824	3444.822998	68.599159
299.917450	1298.142822	4389.582031	3409.380615	68.293037
300.287872	1299.851929	4382.077637	3406.185547	68.338074
300.658234	1305.796021	4389.433105	3421.268799	68.603165
301.028564	1299.331665	4372.121094	3414.878906	68.847778
301.398865	1299.851807	4353.173828	3402.173096	68.853569
301.769135	1297.251099	4301.013184	3364.650391	68.827003
302.139374	1298.365845	4275.081543	3353.579102	69.042984
302.509583	1288.632202	4232.654297	3329.579346	69.325134
302.879791	1284.322632	4192.308105	3297.777588	69.238831
303.249939	1287.889038	4135.317871	3257.134033	69.158714
303.620087	1289.746460	4085.089111	3228.304688	69.349571
303.990173	1295.244995	4064.729736	3207.871338	69.060722
304.360260	1297.696899	4069.262451	3212.329346	69.081268
304.730286	1305.350220	4063.912842	3219.462158	69.388023
305.100281	1308.842407	4046.749268	3228.973389	70.131348
305.470276	1302.898315	4046.303467	3227.784424	70.164116
305.840179	1299.480347	4073.498047	3242.719482	70.051437
306.210144	1295.468018	4113.621582	3262.707031	69.805954
306.579987	1295.913696	4158.054688	3290.198486	69.678070
306.949890	1295.988159	4187.181641	3329.430420	70.332283
307.319702	1296.359497	4263.118652	3383.745361	70.359123
307.689484	1302.898193	4344.851563	3444.970947	70.417671
308.059265	1306.613403	4446.645996	3515.633057	70.350204
308.429016	1304.978638	4526.967285	3587.483643	70.841492
308.798737	1304.830078	4600.007324	3646.703125	71.069717
309.168396	1302.898315	4644.812012	3679.842529	71.125252
309.538055	1306.167603	4654.693848	3699.606689	71.477379
309.907684	1306.018921	4653.431152	3719.520264	72.100517
310.277313	1298.737183	4667.474121	3731.408203	72.213150
310.646851	1296.731079	4694.148926	3730.665283	71.640701
311.016388	1298.960083	4679.288574	3718.628174	71.580849
311.385895	1310.477173	4629.653809	3680.585205	71.406502
311.755371	1315.827026	4560.478027	3649.898438	71.935974
312.124817	1306.316284	4514.484863	3617.725342	72.047623
312.494232	1306.390503	4473.617676	3602.864502	72.507401
312.863617	1304.235718	4458.163086	3583.397461	72.264244
313.232971	1307.653564	4471.686523	3606.282471	72.648705
313.602295	1300.743530	4547.920898	3656.362549	72.543594
313.971619	1299.034546	4624.750000	3735.123779	73.250084
314.340820	1297.919922	4648.154785	3764.027344	73.609985
314.710083	1301.263550	4631.288574	3759.123291	73.809052
315.079285	1299.331665	4575.561523	3712.832764	73.667023
315.448486	1303.418457	4512.775879	3663.272705	73.530426
315.817596	1305.573120	4390.770508	3588.524414	73.996925
316.186707	1304.755859	4286.747559	3516.079102	74.155914
316.555786	1304.458618	4211.032227	3446.160156	73.684753
316.924866	1303.492676	4186.289551	3423.572266	73.542458
317.293884	1307.282104	4173.286621	3426.395752	73.939651
317.662872	1306.464722	4185.025879	3444.302734	74.267586
318.031830	1307.653687	4208.877441	3475.287109	74.714447
318.400757	1310.105591	4244.245605	3506.122314	74.843620
318.769684	1310.402710	4275.527344	3533.168945	74.963669
319.138550	1296.359619	4273.446777	3533.242920	75.136642
319.507416	1300.743530	4254.202637	3519.051025	75.108803
319.876190	1298.811523	4193.273926	3490.295898	75.713005
320.244995	1309.882690	4146.834473	3455.002197	75.613541
320.613770	1300.372070	4092.593750	3420.080078	75.914749
320.982483	1296.136597	4101.807129	3414.358643	75.497894
321.351166	1297.325439	4136.877930	3455.299561	75.996979
321.719818	1293.461792	4205.236816	3510.134766	76.127892
322.088440	1293.684692	4306.288574	3609.254639	76.862732
322.457062	1292.570190	4453.259277	3722.714844	76.886543
322.825623	1291.455688	4601.344238	3848.137939	77.243752
323.194183	1294.724976	4736.649902	3953.945068	77.259682
323.562653	1295.393677	4797.652344	3998.600830	77.184677
323.931183	1296.508179	4824.104004	4009.968994	76.920975
324.299591	1297.845703	4788.364746	3983.443359	76.939781
324.668060	1297.771362	4735.758301	3942.205078	76.918083
325.036407	1299.183105	4672.006348	3898.143555	77.055931
325.404755	1306.093262	4596.143066	3838.181396	76.961998
325.773102	1296.805420	4533.952148	3797.760498	77.258011
326.141388	1290.638306	4450.584473	3750.355469	77.840477
326.509674	1286.031616	4377.768066	3680.882568	77.459747
326.877899	1299.108887	4296.926270	3623.892334	77.549202
327.246124	1313.523560	4268.765625	3592.907959	77.130203
327.614288	1309.288208	4230.945313	3575.967041	77.581955
327.982422	1299.183105	4242.091309	3580.796875	77.529221
328.350525	1292.644409	4243.948730	3573.143799	77.270905
328.718628	1297.920044	4288.678711	3607.322998	77.217957
329.086700	1303.566895	4318.251465	3626.938721	77.068489
329.454712	1306.018921	4372.714844	3668.919678	77.050385
329.822693	1305.647461	4412.244141	3699.012451	77.041382
330.190674	1308.025024	4464.107422	3726.653076	76.633865
330.558563	1302.823853	4502.224609	3744.634033	76.320854
330.926483	1302.675293	4574.446777	3796.274658	76.215576
331.294312	1296.805298	4641.394043	3856.979736	76.546761
331.662231	1301.857788	4732.266113	3941.759521	76.955910
332.029999	1300.966187	4802.036621	3997.189209	77.011398
332.397766	1303.269653	4872.847168	4049.423828	76.932190
332.765503	1300.148926	4919.359863	4075.578369	76.686035
333.133240	1297.399780	4953.910645	4089.844482	76.369110
333.500916	1297.771362	4963.272949	4089.770264	76.169632
333.868561	1298.811523	4956.660645	4077.584717	75.967407
334.236176	1303.715454	4920.846680	4057.596924	76.134399
334.603790	1297.399780	4873.589844	4031.888428	76.463745
334.971344	1300.594849	4836.958496	4006.848389	76.526443
335.338867	1297.994263	4821.651855	3982.403076	76.182449
335.706360	1307.356445	4823.287109	3975.344482	75.882843
336.073853	1305.796021	4837.404297	3981.362549	75.760567
336.441284	1298.662964	4871.806152	4001.201416	75.634773
336.808655	1291.381226	4898.852539	4023.046143	75.722435
337.176086	1287.889038	4934.814941	4047.789063	75.677437
337.543396	1303.269653	4937.267090	4058.934814	75.830132
337.910706	1308.619507	4959.706543	4048.978271	75.055977
338.277954	1312.483276	4949.007324	4035.603516	74.882500
338.645264	1294.427612	4933.255371	4001.721436	74.400169
339.012421	1283.728149	4878.791504	3962.861328	74.522560
339.379669	1281.796265	4803.002441	3905.128174	74.500954
339.746796	1288.186279	4707.448730	3845.759766	74.798981
340.113953	1296.730957	4641.542480	3808.237305	75.086632
340.481018	1300.743286	4611.598145	3775.989502	74.761536
340.848114	1307.207764	4618.730957	3777.327393	74.591644
341.215118	1306.093140	4668.365723	3793.376709	73.976265
341.582153	1307.579224	4767.782715	3878.007813	74.285477
341.949066	1297.845581	4938.901855	3985.895264	73.826103
342.316010	1300.520508	5145.983398	4137.918457	73.785599
342.682922	1297.919922	5392.520020	4284.369629	72.936295
343.049835	1308.025024	5683.489746	4498.732910	72.922722
343.416656	1307.876465	5968.291504	4691.102051	72.594940
343.783478	1308.768066	6191.274902	4845.131348	72.429253
344.150269	1309.882690	6312.312988	4911.187012	71.991096
344.516998	1307.059204	6329.105469	4898.926758	71.521996
344.883728	1301.709351	6249.750000	4845.131836	71.612640
345.250427	1297.473999	6143.349121	4771.794922	71.696457
345.617065	1295.244995	6000.242188	4686.718262	72.082367
345.983704	1294.873535	5876.304688	4592.354004	71.974899
346.350281	1290.563965	5729.334473	4479.116699	71.834145
346.716827	1295.765137	5615.576660	4371.674805	71.204720
347.083405	1301.783691	5520.692871	4287.489746	70.769623
347.449860	1304.532837	5468.755371	4224.109863	70.110977
347.816376	1301.412231	5445.423828	4207.020020	70.115822
348.182770	1292.941650	5466.451172	4202.561523	69.716377
348.549194	1296.136597	5505.980469	4226.486816	69.607101
348.915558	1299.108765	5576.047363	4267.650391	69.408096
349.281921	1300.891968	5640.616699	4314.089844	69.432922
349.648193	1297.176880	5680.591797	4335.786621	69.320602
350.014526	1298.737183	5701.842285	4328.579590	68.811493
350.380737	1298.439941	5732.603516	4319.291504	68.126747
350.746948	1300.520508	5783.426270	4321.520508	67.389328
351.113159	1292.644409	5845.617676	4357.482910	67.315102
351.479309	1298.662964	5906.769531	4380.962402	66.888634
351.845428	1301.486450	6014.806152	4448.875000	66.776474
352.211517	1308.545288	6135.993652	4506.088379	66.236710
352.577576	1309.436890	6258.295410	4593.914551	66.368385
352.943604	1304.681519	6377.625000	4649.492676	65.934326
353.309601	1301.337891	6511.890625	4720.674316	65.623299
353.675537	1292.050049	6655.666504	4803.745117	65.472527
354.041473	1296.731079	6801.746094	4886.741211	65.213448
354.407379	1294.353394	6903.986328	4930.431152	64.818459
354.773254	1301.560669	7048.058594	4976.350586	63.948338
355.139038	1295.987915	7186.707520	5053.625000	63.789101
355.504913	1299.851807	7431.980957	5193.760742	63.500114
355.870636	1293.461792	7667.892578	5352.842773	63.682251
356.236389	1306.241821	7926.614746	5516.753906	63.599319
356.602081	1312.928955	8150.414063	5647.452637	63.393532
356.967804	1317.164307	8338.994141	5729.705566	62.840328
357.333405	1312.706177	8439.749023	5749.842285	62.257744
357.699036	1302.155151	8440.045898	5731.414551	62.052776
358.064606	1307.579224	8382.610352	5678.511230	61.779686
358.430176	1303.864136	8329.112305	5608.368652	61.271919
358.795654	1304.755737	8397.098633	5621.669434	60.867245
359.161163	1299.405884	8580.625977	5702.734375	60.475147
359.526581	1302.006470	8944.710938	5878.534668	59.881004
359.892029	1301.932129	9422.625000	6127.226074	59.419731
360.257416	1301.189087	9957.530273	6414.107910	59.065594
360.622772	1289.820923	10384.326172	6661.685059	59.067142
360.988098	1290.118164	10643.344727	6791.863281	58.821896
361.353394	1284.322388	10748.706055	6818.537109	58.474117
361.718658	1291.604126	10601.734375	6705.968750	58.155632
362.083893	1296.062378	10217.217773	6451.110840	57.784538
362.449097	1300.817749	9601.620117	6090.594238	57.702568
362.814209	1299.034546	8987.136719	5721.458496	57.522961
363.179382	1289.746582	8425.037109	5378.402344	57.301884
363.544434	1291.084106	8028.929688	5127.110840	56.932541
363.909546	1292.124390	7761.217285	4921.738281	56.106998
364.274536	1301.635132	7631.707031	4809.615723	55.417706
364.639587	1305.052979	7533.255859	4693.108887	54.398609
365.004517	1306.836304	7474.928223	4641.022461	54.055389
365.369507	1306.241821	7380.935059	4584.032227	53.958122
365.734344	1301.263550	7353.740723	4564.044434	53.908188
366.099274	1300.371948	7344.823730	4539.599121	53.590088
366.464081	1299.406006	7356.118652	4502.373535	52.882935
366.828918	1306.984985	7312.502441	4452.367676	52.374882
367.193665	1302.303833	7218.880859	4386.758301	52.132416
367.558411	1300.966309	7144.578125	4326.275879	51.771229
367.923126	1289.300781	7066.782715	4251.824707	51.277077
368.287781	1295.690796	7045.458496	4194.611328	50.418045
368.652435	1307.876465	7012.244629	4137.473145	49.604034
369.017059	1309.139648	7037.061035	4128.333496	49.218445
369.381653	1307.356323	7065.742188	4127.367676	48.972252
369.746185	1296.953979	7129.865723	4153.299316	48.969460
370.110687	1293.758911	7208.106934	4161.918457	48.494942
370.475220	1296.656738	7293.927246	4175.218262	47.997860
370.839661	1298.440063	7351.139160	4177.224609	47.561996
371.204041	1306.241821	7379.375000	4175.516113	47.245373
371.568451	1301.263550	7363.919434	4158.203613	47.123573
371.932770	1299.554565	7344.972656	4117.262207	46.608978
372.297150	1303.864136	7317.257813	4065.696289	45.928009
372.661377	1304.681519	7322.458984	4046.674805	45.564884
373.025696	1299.777588	7361.170410	4027.578857	45.002880
373.389862	1292.941650	7408.798340	4045.485596	45.006680
373.754059	1288.111938	7507.917969	4033.077148	44.132652
374.118225	1292.272949	7606.963379	4070.005859	43.988426
374.482361	1294.724976	7787.222656	4101.658691	43.233494
374.846436	1298.662964	7982.638672	4172.840820	43.001022
375.210510	1290.415405	8287.428711	4257.397461	42.403549
375.574524	1292.198730	8560.044922	4365.284668	42.283310
375.938538	1286.180054	8864.389648	4466.782227	41.970364
376.302460	1288.483398	9067.235352	4536.255371	41.751839
376.666412	1291.232666	9207.444336	4565.827637	41.365681
377.030304	1301.412109	9201.351563	4545.988770	41.070904
377.394196	1315.083984	9096.287109	4460.838379	40.427608
377.757996	1308.396606	8890.691406	4338.164551	39.958458
378.121796	1304.978638	8619.040039	4197.137207	39.542442
378.485565	1298.885864	8326.139648	4084.717773	39.643253
378.849304	1295.319336	8121.138184	3973.709229	39.239101
379.212982	1288.780640	7982.786621	3896.211914	38.951733
379.576630	1279.864380	7946.081543	3837.512695	38.367313
379.940277	1282.539307	7930.106934	3810.317627	38.025616
380.303864	1288.111938	7932.558594	3770.714600	37.363571
380.667450	1294.353394	7946.007324	3743.371094	36.818176
381.030945	1289.895264	7964.285645	3702.504639	36.147259
381.394501	1283.802490	8002.626465	3689.279053	35.802048
381.757935	1290.341187	8062.662598	3674.269531	35.201050
382.121399	1291.901489	8130.352051	3690.690430	35.077961
382.484741	1306.836304	8260.233398	3718.851318	34.688297
382.848145	1297.474121	8375.922852	3745.748779	34.587730
383.211487	1302.526733	8488.713867	3751.247070	34.075375
383.574768	1290.266724	8571.338867	3736.163818	33.592537
383.938019	1290.340942	8618.149414	3718.777100	33.140003
384.301270	1292.941650	8648.093750	3709.043213	32.849102
384.664459	1296.508179	8683.981445	3693.439453	32.445885
385.027649	1301.486450	8710.953125	3661.637939	31.853188
385.390778	1300.594727	8824.636719	3662.009766	31.384926
385.753876	1301.412231	8908.524414	3669.142578	31.125221
386.116943	1296.805420	9016.114258	3682.294189	30.902882
386.479980	1295.690918	9059.878906	3659.186279	30.440987
386.842987	1302.600952	9074.516602	3632.660156	29.980499
387.205994	1308.991089	9073.922852	3599.372803	29.496485
387.568909	1308.842407	9017.006836	3575.223877	29.402348
387.931793	1301.189209	8978.071289	3543.125244	29.203733
388.294678	1307.504883	8968.634766	3501.367188	28.636276
388.657471	1310.922974	8972.202148	3464.884521	28.114906
389.020294	1302.749634	9034.245117	3438.061279	27.618351
389.383057	1293.313110	9188.719727	3455.745117	27.388483
389.745819	1291.009888	9393.202148	3481.528320	27.036121
390.108521	1296.731079	9633.347656	3518.679688	26.652885
390.471191	1286.254517	9865.022461	3566.382080	26.578730
390.833801	1285.437134	10057.467773	3588.524414	26.254896
391.196442	1282.464966	10190.097656	3616.090576	26.198044
391.558960	1288.186157	10226.729492	3600.115234	25.864721
391.921509	1290.192505	10209.194336	3573.143311	25.596481
392.284027	1300.669067	10171.893555	3521.206055	25.030785
392.646484	1302.080933	10118.619141	3484.723389	24.756231
393.008911	1300.743530	10113.565430	3455.225342	24.447128
393.371307	1299.703247	10118.024414	3422.383545	24.071251
393.733673	1306.539063	10087.633789	3399.349609	23.833139
394.096008	1304.681519	10013.554688	3352.835938	23.518017
394.458344	1302.749634	9871.338867	3316.799072	23.505032
394.820587	1303.343994	9664.257813	3238.929688	23.150408
395.182831	1310.031250	9446.030273	3186.397705	23.062521
395.545013	1305.424438	9225.871094	3112.541016	22.815842
395.907196	1297.102661	9080.163086	3060.677734	22.659145
396.269287	1288.483521	9013.588867	3026.126953	22.493460
396.631409	1285.362793	8947.682617	3011.935303	22.533287
396.993469	1293.387451	8912.908203	2995.514404	22.339029
397.355530	1295.616577	8912.313477	2982.065430	22.141474
397.717499	1304.978638	8962.765625	2975.898438	21.819878
398.079468	1304.532959	9010.467773	2980.430664	21.748144
398.441376	1305.721802	8984.982422	2977.161377	21.765631
398.803284	1306.464722	8951.768555	2971.217041	21.774836
399.165131	1304.904297	8922.270508	2960.443359	21.733746
399.526978	1306.316162	8911.125000	2946.548584	21.568359
399.888763	1305.721680	8908.079102	2921.211670	21.249855
400.250519	1302.229492	8918.852539	2910.883545	21.120306
400.612244	1302.675293	8944.264648	2907.242920	20.997826
400.973938	1299.628784	9026.739258	2934.065674	21.151981
401.335602	1297.176880	9120.065430	2946.845947	21.087723
401.697205	1300.371948	9304.707031	2981.768311	21.006071
402.058807	1301.857910	9492.990234	2993.879639	20.656750
402.420349	1304.755737	9731.577148	3031.922607	20.496067
402.781860	1300.074707	9919.859375	3053.173096	20.338076
403.143341	1294.502075	10077.678711	3092.999268	20.476614
403.504822	1295.913818	10235.051758	3127.550049	20.490078
403.866241	1297.771362	10343.459961	3146.869141	20.441759
404.227631	1300.520630	10463.903320	3155.785156	20.246502
404.588959	1302.526733	10489.910156	3152.218750	20.132957
404.950287	1298.514404	10439.532227	3129.630615	20.031864
405.311554	1297.325562	10312.771484	3095.599854	19.946592
405.672821	1295.765259	10175.163086	3058.002686	19.846363
406.034027	1299.703247	10073.888672	3026.126953	19.676170
406.395203	1306.390503	9908.639648	2991.204834	19.585743
406.756348	1307.281982	9822.077148	2949.594971	19.287758
407.117493	1307.059082	9782.028320	2926.263916	19.105732
407.478516	1300.817749	9859.080078	2912.740967	18.834702
407.839600	1300.446289	9929.221680	2906.350830	18.611036
408.200592	1297.622681	10052.416016	2904.344971	18.352488
408.561554	1304.607178	10166.692383	2919.130859	18.218328
408.922485	1308.248047	10294.641602	2934.214600	18.093649
409.283417	1307.505005	10365.155273	2943.056641	18.057129
409.644257	1306.613403	10462.640625	2930.425049	17.734894
410.005096	1304.978638	10521.116211	2925.223633	17.580521
410.365906	1303.789917	10516.436523	2906.573486	17.397646
410.726715	1292.495728	10472.225586	2890.969971	17.413086
411.087433	1289.152222	10383.433594	2859.391602	17.266228
411.448120	1285.585693	10345.093750	2831.825439	17.067591
411.808807	1290.340942	10294.567383	2795.416992	16.715218
412.169434	1287.889160	10271.459961	2772.160156	16.522060
412.530029	1291.084106	10317.007813	2762.872314	16.306234
412.890564	1297.845581	10415.458008	2769.782471	16.143885
413.251099	1307.059204	10566.664063	2776.990234	15.874663
413.611572	1312.409058	10719.132813	2783.602783	15.639811
413.972076	1316.198364	10880.147461	2793.188232	15.443305
414.332489	1313.374878	11003.637695	2789.027100	15.228196
414.692871	1313.597778	11204.627930	2789.992920	14.926606
415.053223	1308.693726	11385.925781	2786.500732	14.664810
415.413574	1309.659790	11659.286133	2808.642822	14.483451
415.773834	1309.659668	11847.495117	2814.141602	14.276954
416.134094	1304.384277	12131.479492	2834.500244	14.132284
416.494263	1299.034424	12411.972656	2835.540283	13.826279
416.854462	1295.616455	12819.448242	2864.295654	13.612479
417.214630	1296.508179	13214.961914	2891.564453	13.383080
417.574738	1300.594849	13598.437500	2920.319580	13.170804
417.934784	1305.721802	14018.323242	2945.062500	12.895399
418.294861	1310.922974	14511.098633	2979.539063	12.640862
418.654846	1310.551514	15098.536133	3025.755615	12.439847
419.014832	1303.418335	15698.307617	3076.875732	12.320048
419.374756	1298.960205	16325.570313	3115.587646	12.089403
419.734680	1297.325562	16968.437500	3160.020264	11.886168
420.094543	1297.622925	17468.419922	3199.103516	11.758732
420.454376	1304.681519	17762.955078	3215.450195	11.609776
420.814148	1299.183105	17932.664063	3205.568115	11.461131
421.173920	1306.613403	18086.173828	3185.208984	11.195738
421.533691	1301.337769	18183.732422	3160.020264	11.009590
421.893341	1307.653442	18218.060547	3139.884521	10.834932
422.253021	1300.148926	18204.314453	3106.299561	10.684648
422.612640	1299.331665	18198.148438	3086.609375	10.576348
422.972260	1300.223267	18192.501953	3052.801514	10.375026
423.331757	1300.149048	18210.630859	3040.913086	10.293994
423.691315	1306.018921	18328.996094	3030.510498	10.130376
424.050781	1302.823853	18360.500000	3016.615967	10.047044
424.410248	1308.990967	18213.083984	2981.322266	9.893055
424.769653	1299.405884	17915.798828	2916.307617	9.730762
425.128998	1300.149048	17536.408203	2857.237061	9.590190
425.488373	1297.251221	17109.984375	2781.151123	9.384209
425.847656	1303.715576	16696.416016	2726.538330	9.243490
426.206940	1304.607300	16273.039063	2670.588623	9.125748
426.566193	1312.111694	15910.516602	2617.461914	8.941731
426.925385	1318.353149	15492.860352	2556.682373	8.736313
427.284576	1322.662720	15127.290039	2500.063721	8.529032
427.643677	1317.536011	14812.023438	2451.172607	8.400739
428.002777	1309.139648	14591.641602	2412.238037	8.304899
428.361847	1303.567017	14398.604492	2380.956299	8.227463
428.720856	1303.567017	14204.301758	2358.665771	8.178595
429.079865	1303.046753	14103.918945	2332.659912	8.043304
429.438812	1302.600952	14080.143555	2312.449463	7.903307
429.797760	1297.474243	14049.010742	2298.703125	7.851830
430.156616	1292.793091	13902.559570	2280.424805	7.832276
430.515503	1289.449463	13796.379883	2254.344482	7.714883
430.874268	1287.591919	13778.250977	2230.864746	7.551826
431.233093	1290.935547	13907.090820	2220.759766	7.370108
431.591827	1296.582520	14081.405273	2223.806152	7.252534
431.950562	1304.012695	14250.741211	2213.255127	7.022951
432.309204	1305.796021	14386.937500	2203.447266	6.862178
432.667877	1303.418213	14534.207031	2193.862305	6.730091
433.026459	1301.189087	14599.666992	2188.215088	6.670132
433.385010	1298.960083	14655.096680	2183.237061	6.620754
433.743561	1301.709351	14622.403320	2175.880859	6.562507
434.102051	1298.514282	14653.089844	2156.710938	6.426237
434.460510	1300.297607	14713.203125	2142.816162	6.281403
434.818939	1299.034546	14730.440430	2123.497314	6.138320
435.177338	1302.080933	14718.848633	2117.478760	6.077454
435.535675	1305.201660	14670.625977	2110.940186	6.028530
435.894012	1304.681519	14646.106445	2095.559814	5.927990
436.252289	1302.749634	14806.601563	2093.776611	5.857788
436.610535	1297.325562	14895.913086	2078.916016	5.747585
436.968719	1294.130493	15168.083008	2083.894287	5.692421
437.326935	1296.731079	15418.631836	2091.175781	5.625622
437.685028	1298.960083	15733.526367	2099.125977	5.543401
438.043152	1300.669067	15986.898438	2105.516113	5.480284
438.401215	1302.972534	16245.843750	2099.423584	5.329973
438.759277	1306.316162	16580.279297	2097.120117	5.177464
439.117249	1310.922852	17076.027344	2109.825439	5.067537
439.475250	1309.436768	17483.429688	2121.045410	5.017985
439.833130	1306.761963	17900.044922	2135.311768	4.993284
440.191071	1299.777466	18022.867188	2123.646240	4.926534
440.548889	1298.737183	18116.267578	2119.336670	4.879429
440.906708	1298.737183	18020.789063	2107.670898	4.837526
441.264496	1299.628906	17846.251953	2091.175781	4.783737
441.622223	1295.170654	17550.005859	2068.810547	4.759445
441.979950	1289.449341	17254.800781	2045.107910	4.733116
442.337616	1284.396851	17044.300781	2030.470581	4.733999
442.695251	1288.929321	16889.677734	2013.603638	4.645125
443.052887	1290.489624	16810.617188	2005.876343	4.609413
443.410461	1299.034546	16924.968750	2007.882446	4.536355
443.768005	1296.359619	17115.705078	2012.414917	4.526453
444.125458	1304.830200	17400.658203	2018.433472	4.433467
444.482941	1300.000366	17722.312500	2025.492188	4.417720
444.840393	1299.406006	18217.392578	2041.764648	4.387985
445.197754	1289.078003	18656.150391	2045.702637	4.356662
445.555084	1290.712524	19001.658203	2060.711670	4.347589
445.912415	1292.049927	19237.048828	2061.380371	4.287158
446.269714	1293.015991	19362.546875	2066.358643	4.279816
446.626953	1298.737305	19373.244141	2050.829346	4.161065
446.984161	1290.340942	19192.169922	2038.643677	4.180035
447.341309	1301.114990	18986.945313	2029.504517	4.118492
447.698456	1298.068481	18693.300781	2017.467407	4.135610
448.055542	1306.539185	18478.568359	2002.755493	4.054362
448.412598	1300.520630	18126.964844	1980.761841	4.042692
448.769653	1303.789917	17744.900391	1959.139771	3.986043
449.126617	1304.830200	17308.595703	1939.003540	3.962651
449.483582	1304.161499	17031.669922	1939.598145	4.040288
449.840515	1300.669067	16817.900391	1922.954468	4.010286
450.197388	1304.830078	16626.349609	1916.118530	3.989738
450.554230	1308.545166	16485.025391	1897.691406	3.881969
450.911041	1307.133423	16419.341797	1895.908325	3.896022
451.267822	1303.121216	16493.271484	1899.028931	3.922988
451.624573	1301.189331	16564.751953	1902.967163	3.942578
451.981262	1297.102539	16534.882813	1903.338501	3.978506
452.337921	1297.176880	16387.984375	1886.917603	3.907947
452.694580	1291.975708	16051.096680	1877.406860	3.966572
453.051147	1293.684692	15859.471680	1865.443970	3.925358
453.407715	1293.833374	15529.195313	1853.332642	3.930348
453.764221	1296.210938	15444.563477	1841.890137	3.856839
454.120728	1296.731079	15109.234375	1831.487671	3.871540
454.477142	1295.467896	15028.839844	1829.035767	3.885192
454.833557	1296.879639	14900.148438	1820.193726	3.846973
455.189911	1298.142822	14926.377930	1815.215454	3.794127
455.546265	1300.000366	14986.338867	1822.274048	3.816022
455.902557	1297.771362	15038.945313	1830.670532	3.878120
456.258820	1296.953979	15269.653320	1846.496948	3.932976
456.615051	1295.839478	15565.602539	1855.116211	3.919313
456.971252	1293.536133	15915.198242	1869.382202	3.938308
457.327393	1297.845581	16440.443359	1883.425415	3.867103
457.683502	1298.142822	17044.970703	1898.286011	3.811200
458.039612	1303.566895	17978.287109	1920.056641	3.697152
458.395630	1293.015991	18833.138672	1960.700317	3.806611
458.751648	1295.393677	19601.873047	1991.907349	3.804739
459.107605	1294.056274	20207.812500	2021.702759	3.847181
459.463562	1301.783569	20406.275391	2029.430298	3.808773
459.819458	1300.149048	20271.193359	2044.959595	3.926039
460.175323	1301.932251	19698.466797	2020.365234	3.905262
460.531158	1301.114868	19034.869141	1997.925903	3.929292
460.886932	1301.337769	18316.808594	1962.260620	3.884247
461.242676	1297.325562	17619.626953	1948.960449	3.992298
461.598419	1303.567017	17086.876953	1924.960571	3.937030
461.954102	1300.074707	16582.955078	1911.734741	4.002256
462.309723	1296.731079	16224.592773	1897.171387	4.022280
462.665344	1291.529907	15956.954102	1888.775269	4.072473
463.020905	1291.529907	15822.541992	1881.716431	4.061565
463.376373	1291.232788	15761.390625	1890.930054	4.144372
463.731873	1294.799194	15723.199219	1894.199219	4.154307
464.087341	1293.090332	15751.731445	1903.561401	4.222188
464.442749	1298.291382	15886.665039	1893.159058	4.077683
464.798126	1290.489746	15990.093750	1899.771973	4.144889
465.153503	1290.563843	16136.098633	1903.561523	4.129172
465.508820	1294.056152	16277.719727	1912.031860	4.124330
465.864105	1300.594727	16398.982422	1917.976196	4.089056
466.219330	1304.458618	16594.917969	1920.279663	4.027486
466.574524	1300.371948	16643.140625	1929.716187	4.101895
466.929657	1296.805420	16534.437500	1931.945190	4.168231
467.284790	1295.467896	16326.983398	1935.957520	4.260978
467.639893	1297.028320	16088.546875	1938.855103	4.339154
467.994934	1300.371948	15914.454102	1934.694336	4.340487
468.349945	1301.412109	15716.585938	1927.858398	4.345742
468.704926	1304.532837	15587.448242	1923.251587	4.331880
469.059875	1296.433960	15477.108398	1926.743774	4.444850
469.414764	1297.028320	15435.276367	1929.864746	4.476060
469.769653	1296.211060	15418.187500	1925.555054	4.456487
470.124451	1299.629028	15518.718750	1935.734497	4.473602
470.479248	1295.022217	15575.930664	1938.409302	4.505225
470.834015	1292.124390	15623.335938	1950.520874	4.594144
471.188721	1292.347290	15817.637695	1952.675659	4.546060
471.543365	1294.873535	16086.984375	1971.102539	4.571552
471.898010	1300.669189	16310.859375	1976.972656	4.505629
472.252625	1306.316162	16526.115234	1997.108398	4.538774
472.607178	1308.396606	16696.044922	2007.065063	4.540450
472.961700	1300.817749	16793.232422	2011.077515	4.584565
473.316193	1299.257446	16802.742188	2021.776978	4.660369
473.670654	1300.520508	16750.359375	2024.303345	4.684727
474.025055	1304.087036	16867.757813	2042.284668	4.743082
474.379456	1303.789795	16966.431641	2040.872681	4.705994
474.733795	1304.309937	17108.423828	2062.569092	4.797859
475.088104	1302.006592	17350.947266	2080.104736	4.848284
475.442383	1298.588623	17685.162109	2093.776367	4.852678
475.796570	1293.907593	18008.007813	2103.435791	4.843385
476.150787	1296.062500	18396.166016	2125.577881	4.850938
476.504944	1296.582520	18684.533203	2146.605713	4.888576
476.859070	1296.359497	18981.521484	2161.317627	4.890869
477.213135	1296.730957	19186.521484	2175.732178	4.913424
477.567200	1294.353394	19450.669922	2195.719727	4.964478
477.921173	1301.040527	19764.302734	2218.530518	4.969274
478.275146	1298.885864	20039.966797	2235.991943	5.000278
478.629089	1306.316284	20320.083984	2259.620117	5.013756
478.983002	1297.251099	20719.164063	2284.957275	5.085525
479.336823	1295.765137	21259.791016	2319.805420	5.129428
479.690643	1294.353394	21907.931641	2353.018799	5.135767
480.044403	1303.344116	22753.498047	2394.405029	5.086494
480.398163	1310.031372	23886.244141	2455.036133	5.071731
480.751862	1310.551392	25531.828125	2541.004639	5.080051
481.105499	1311.963135	27669.814453	2654.241699	5.092519
481.459137	1306.241821	30815.791016	2816.593018	5.118178
481.812744	1306.539063	34931.792969	3030.287842	5.126352
482.166290	1303.344116	39897.363281	3290.867432	5.149822
482.519806	1300.669067	44787.750000	3564.450195	5.205641
482.873291	1298.291382	48945.207031	3819.679932	5.291820
483.226715	1292.570190	51703.769531	3988.421631	5.347723
483.580139	1300.594849	52695.125000	4065.696289	5.380147
483.933502	1306.613403	51953.578125	4043.553955	5.403957
484.286804	1313.597778	49816.332031	3958.106201	5.452287
484.640106	1307.356445	46908.863281	3796.720459	5.458951
484.993347	1302.229614	43996.941406	3639.570313	5.474544
485.346558	1300.148926	41926.570313	3523.880859	5.473610
485.699738	1303.418335	41045.566406	3488.586914	5.498365
486.052887	1296.582397	41389.515625	3508.128906	5.516050
486.405975	1299.926147	42308.117188	3554.122314	5.496942
486.759064	1297.102661	43244.480469	3609.254639	5.512029
487.112061	1310.699951	43626.324219	3633.848877	5.490050
487.464996	1305.052979	43235.046875	3640.536133	5.569959
487.817963	1304.607178	42071.535156	3593.725830	5.615136
488.170868	1297.325562	40258.031250	3510.729248	5.681118
488.523743	1299.405884	38223.769531	3396.749023	5.680107
488.876587	1301.040527	36395.328125	3309.369141	5.722665
489.229401	1307.950684	35259.390625	3252.527344	5.727523
489.582153	1307.579224	35020.136719	3252.007080	5.767666
489.934845	1301.263550	35588.550781	3281.282471	5.774790
490.287537	1292.347290	36748.714844	3346.668945	5.793943
490.640198	1291.604248	37937.929688	3419.857178	5.807548
490.992798	1297.399780	38531.605469	3474.543945	5.847161
491.345337	1293.833374	38232.246094	3473.057861	5.899616
491.697876	1299.257324	36966.644531	3419.485596	5.944445
492.050354	1288.632080	35090.871094	3315.610107	5.996579
492.402832	1288.186279	32666.896484	3187.364014	6.052440
492.755219	1281.424683	30129.531250	3039.724365	6.095026
493.107605	1292.049927	27807.943359	2905.013428	6.083006
493.459930	1297.399780	26052.763672	2809.608643	6.108611
493.812225	1307.282104	24816.884766	2750.760986	6.139954
494.164490	1311.740356	24123.791016	2705.733643	6.110776
494.516724	1309.585449	23778.357422	2672.222900	6.064584
494.868896	1304.532959	23764.537109	2671.703125	6.087132
495.221039	1298.068481	23942.419922	2696.000000	6.173423
495.573120	1294.873535	24145.412109	2723.046143	6.250061
495.925201	1293.387329	24340.162109	2734.563232	6.253265
496.277222	1296.433838	24487.650391	2746.154297	6.251162
496.629211	1302.600952	24556.900391	2750.240967	6.225258
496.981140	1301.486450	24481.632813	2741.250244	6.211194
497.333069	1305.572998	24227.294922	2736.049072	6.240701
497.684967	1300.743286	23833.937500	2728.098633	6.334456
498.036804	1298.514282	23381.431641	2712.718018	6.404062
498.388580	1288.631958	22929.671875	2687.009521	6.461693
498.740326	1297.548340	22530.515625	2659.443115	6.414058
499.092072	1297.399780	22086.560547	2642.279053	6.469137
499.443756	1306.316040	21672.320313	2623.926514	6.469656
499.795410	1297.919922	21341.376953	2609.511719	6.543740
500.147003	1304.384277	21104.423828	2591.456055	6.500350
500.498566	1302.080933	20857.146484	2575.109619	6.509969
500.850098	1302.526733	20638.248047	2564.261230	6.525407
501.201599	1299.777466	20472.107422	2547.766113	6.509322
501.553009	1295.096436	20387.849609	2543.084961	6.536451
501.904449	1295.987915	20373.138672	2544.050781	6.542187
502.255859	1286.105835	20416.232422	2567.530518	6.698464
502.607178	1289.077881	20517.431641	2581.276611	6.720278
502.958405	1291.232666	20571.970703	2584.843018	6.709341
503.309692	1301.709473	20638.324219	2585.734863	6.640383
503.660919	1301.560913	20715.300781	2594.205322	6.658400
504.012115	1308.693848	20688.998047	2601.487061	6.670655
504.363251	1304.978638	20651.996094	2598.589111	6.686356
504.714294	1306.687622	20541.359375	2581.350830	6.626904
505.065369	1298.811523	20549.830078	2588.632568	6.700014
505.416443	1304.458618	20448.482422	2597.697510	6.755314
505.767395	1300.743530	20434.437500	2609.660156	6.840899
506.118317	1301.932373	20356.865234	2606.167969	6.844608
506.469238	1301.114990	20504.802734	2604.012939	6.784624
506.820160	1302.303833	20642.927734	2620.508301	6.815729
507.170929	1304.681519	20899.718750	2631.282227	6.770085
507.521729	1298.365723	21170.775391	2659.368896	6.848707
507.872498	1300.743530	21424.519531	2674.080811	6.824451
508.223236	1299.777466	21643.044922	2704.396240	6.904588
508.573883	1302.675293	21776.123047	2717.696289	6.911494
508.924500	1301.709351	21939.958984	2747.268799	7.004273
509.275116	1297.251221	22103.500000	2752.469971	6.994143
509.625702	1299.257446	22311.470703	2768.742188	6.993479
509.976196	1303.715576	22494.626953	2764.358154	6.892778
510.326660	1309.362549	22707.802734	2779.516357	6.870378
510.677124	1310.625732	22846.453125	2788.729492	6.863464
511.027557	1301.189331	23031.687500	2810.277588	6.944563
511.377869	1302.378052	23151.390625	2818.525391	6.939203
511.728180	1299.257324	23168.775391	2827.441406	6.987736
512.078430	1303.864136	23074.634766	2821.422852	6.970624
512.428650	1302.675293	22947.281250	2823.280518	7.025331
512.778931	1305.052979	22827.802734	2812.803711	7.005382
513.129028	1305.127319	22663.072266	2806.933838	7.031606
513.479126	1306.910522	22550.132813	2801.806885	7.037051
513.829285	1306.910522	22443.134766	2798.834961	7.058614
514.179382	1304.235718	22381.984375	2786.723633	7.033426
514.529297	1300.149048	22353.750000	2775.281006	7.006554
514.879272	1297.251221	22483.929688	2783.602783	7.015501
515.229187	1302.006714	22700.447266	2805.819336	7.027674
515.579163	1297.176880	23095.291016	2836.283447	7.060733
515.928955	1301.189331	23562.210938	2859.837158	7.001690
516.278748	1305.275879	24191.033203	2901.223877	6.973542
516.628540	1307.876465	24941.267578	2948.777588	6.943147
516.978333	1306.018921	25831.861328	3021.446045	6.994366
517.327942	1301.709351	26734.119141	3092.479248	7.041291
517.677612	1298.811523	27384.937500	3138.546875	7.052544
518.027222	1288.260620	27780.226563	3157.419922	7.055570
518.376831	1292.793091	27773.687500	3154.298828	7.029618
518.726379	1292.495728	27529.603516	3143.748047	7.055855
519.075867	1299.257324	26945.882813	3120.788330	7.102420
519.425293	1297.548462	26346.111328	3077.024414	7.104104
519.774658	1308.991089	25710.302734	3036.677734	7.080302
520.124084	1311.665894	25168.708984	2987.192383	7.023194
520.473389	1307.133423	24682.250000	2970.325439	7.115224
520.822693	1304.012817	24324.037109	2943.502686	7.122016
521.171997	1296.285278	24142.291016	2935.180420	7.173662
521.521240	1297.474121	24113.240234	2908.580078	7.061371
521.870361	1287.591797	24227.666016	2920.319580	7.117361
522.219482	1293.758911	24428.431641	2929.756104	7.071625
522.568604	1298.588623	24691.833984	2961.632080	7.109075
522.917664	1306.910645	25091.212891	2983.328369	7.048421
523.266724	1302.229492	25742.103516	3029.990479	7.069435
523.615662	1295.393677	26656.474609	3091.587158	7.082480
523.964600	1287.889038	27725.615234	3166.781982	7.106863
524.313538	1292.792969	28940.166016	3250.447021	7.080796
524.662354	1290.638184	30190.607422	3332.922852	7.066737
525.011169	1297.176880	31469.876953	3421.194336	7.039535
525.359985	1295.468018	32678.263672	3509.094482	7.053631
525.708740	1301.263550	33952.628906	3601.304443	7.044241
526.057434	1303.492554	35522.269531	3718.108154	7.056406
526.406067	1305.127197	37582.093750	3854.825195	7.028421
526.754700	1303.566895	40353.808594	4049.498291	7.031791
527.103333	1307.059082	43569.480469	4278.202637	7.030225
527.451782	1306.910522	46917.562500	4532.688965	7.072423
527.800293	1303.566772	49573.363281	4744.823242	7.129212
528.148743	1300.000366	51118.191406	4879.311035	7.184746
528.497131	1303.195313	51113.062500	4885.478516	7.191915
528.845642	1304.235718	49604.644531	4775.138672	7.186073
529.193909	1297.919922	46928.707031	4578.459473	7.189312
529.542175	1293.536011	43509.515625	4331.105469	7.195307
529.890503	1293.610352	40068.484375	4073.200928	7.168535
530.238770	1295.393677	37094.218750	3860.694580	7.165880
530.586914	1297.845581	35050.078125	3714.095703	7.158785
530.934998	1297.399780	34026.484375	3634.740234	7.141478
531.283142	1299.406006	33945.199219	3615.793213	7.095515
531.631226	1304.755737	34600.996094	3648.337891	7.038578
531.979248	1307.653564	35762.417969	3727.916016	7.024464
532.327148	1307.059204	36972.957031	3808.385986	7.013216
532.675110	1301.858032	37806.414063	3865.153320	7.021851
533.023071	1299.183105	37905.089844	3869.462891	7.021489
533.370850	1300.074707	37146.976563	3821.240234	7.033147
533.718689	1301.635132	35838.582031	3734.083252	7.043032
534.066467	1308.322388	34203.699219	3633.328857	7.067882
534.414246	1308.396606	32800.191406	3543.496826	7.097404
534.761963	1306.464844	31772.585938	3470.160156	7.101972
535.109619	1303.269653	31257.076172	3428.476318	7.094946
535.457153	1299.703125	31045.384766	3401.801514	7.066903
535.804749	1295.616577	30925.685547	3394.965576	7.085198
536.152344	1297.251221	30806.056641	3370.445557	7.025681
536.499817	1301.040649	30442.271484	3340.724609	6.999306
536.847229	1298.514282	29878.015625	3299.487061	7.001426
537.194641	1293.238770	29090.330078	3259.660156	7.074198
537.542114	1289.226440	28337.646484	3198.286133	7.057934
537.889404	1295.839478	27749.468750	3157.196533	7.036302
538.236694	1295.096558	27381.369141	3130.819336	7.037122
538.583984	1296.433960	27539.041016	3146.719971	7.050694
538.931213	1298.068481	28300.716797	3193.307861	7.018717
539.278381	1299.331665	29757.273438	3287.449463	6.986162
539.625488	1302.080933	31637.726563	3405.887939	6.935099
539.972595	1303.121216	33984.355469	3555.162354	6.890930
540.319641	1300.892090	36299.183594	3705.179688	6.869728
540.666687	1305.721802	38072.121094	3838.107178	6.887771
541.013611	1303.121216	39001.718750	3920.880127	6.943915
541.360596	1302.972534	38985.597656	3933.066162	6.979593
541.707458	1299.554565	38306.621094	3886.626953	6.990752
542.054260	1298.960205	36991.312500	3794.639893	6.992198
542.401062	1300.891968	35382.957031	3674.789307	6.965239
542.747864	1294.873535	33564.917969	3543.422119	6.967913
543.094666	1290.861206	31741.898438	3417.479248	6.983730
543.441284	1290.340942	30006.632813	3311.152100	7.037159
543.787903	1291.307007	28575.041016	3203.264648	7.007683
544.134460	1299.108765	27417.109375	3120.936768	6.975373
544.481079	1297.771240	26645.994141	3057.705811	6.943029
544.827637	1300.743408	26137.244141	3033.260010	6.975688
545.174072	1299.108765	25863.884766	3004.727783	6.943353
545.520508	1305.498901	25778.509766	2994.177002	6.900165
545.866943	1305.647461	25726.203125	2986.152344	6.881518
546.213318	1306.390503	25600.185547	2978.721680	6.883779
546.559631	1299.257446	25304.609375	2960.443359	6.920065
546.905823	1299.183105	24775.054688	2929.756104	6.945740
547.252136	1300.223267	24013.228516	2882.573975	6.966716
547.598389	1310.551392	23105.693359	2813.398193	6.895329
547.944458	1311.442993	22203.732422	2748.828857	6.879982
548.290588	1305.796021	21328.818359	2686.266357	6.894416
548.636658	1300.594849	20583.117188	2629.127686	6.889830
548.982727	1294.279175	19908.150391	2580.905029	6.912189
549.328735	1299.628906	19466.345703	2549.920898	6.882322
549.674622	1303.418335	19067.416016	2531.345215	6.912446
550.020569	1305.127319	18861.673828	2515.370117	6.893399
550.366455	1294.130615	18676.806641	2507.345459	6.979448
550.712280	1291.678589	18658.304688	2508.608398	7.007289
551.058044	1295.319458	18762.701172	2514.329834	6.978782
551.403748	1301.560791	18916.953125	2504.818848	6.830719
551.749512	1300.966309	19085.917969	2511.729004	6.807793
552.095154	1301.932251	19197.296875	2512.917969	6.767035
552.440735	1294.130493	19280.367188	2530.973389	6.876607
552.786316	1295.542358	19250.943359	2516.930420	6.802344
553.131897	1296.136719	19101.445313	2493.302002	6.723642
553.477417	1308.545288	18798.142578	2474.651855	6.667429
553.822815	1306.316162	18407.830078	2458.974121	6.740093
554.168213	1301.337891	18012.316406	2441.736084	6.824245
554.513672	1296.582397	17686.275391	2418.776611	6.846951
554.859009	1295.467896	17421.312500	2399.532227	6.846552
555.204285	1302.229492	17238.082031	2392.101807	6.839121
555.549500	1301.486450	17108.052734	2375.458008	6.794465
555.894714	1298.588623	17032.783203	2357.476807	6.729853
556.239990	1301.783691	16914.271484	2347.222900	6.696173
556.585022	1308.396606	16798.730469	2337.192139	6.641532
556.930115	1308.248047	16658.076172	2331.545166	6.666505
557.275146	1300.669067	16515.042969	2316.313232	6.675557
557.620178	1294.279053	16407.304688	2310.145996	6.721797
557.965149	1297.474121	16348.159180	2306.579346	6.704713
558.310059	1294.947632	16304.542969	2305.093262	6.729999
558.654968	1294.650513	16252.754883	2284.363037	6.616564
558.999756	1292.272949	16263.973633	2279.236084	6.592191
559.344604	1300.669067	16323.711914	2279.384521	6.514762
559.689331	1297.399780	16411.537109	2295.508057	6.603806
560.033997	1297.399780	16471.574219	2299.669189	6.605100
560.378723	1291.381348	16559.623047	2301.378174	6.615017
560.723389	1300.000488	16583.548828	2307.768311	6.593808
561.067932	1309.808472	16570.025391	2311.037354	6.561040
561.412476	1309.659790	16489.333984	2317.204590	6.637460
561.757019	1306.390381	16443.490234	2317.279053	6.678219
562.101501	1300.669067	16412.058594	2306.950928	6.659095
562.445862	1304.904297	16369.928711	2299.966553	6.605115
562.790222	1310.031250	16331.589844	2276.709717	6.435274
563.134644	1308.470947	16337.088867	2270.468262	6.401103
563.478943	1303.269775	16423.724609	2274.034668	6.420209
563.823181	1293.313110	16563.117188	2289.935547	6.526753
564.167358	1296.433838	16749.839844	2312.301025	6.573743
564.511536	1301.783569	17024.314453	2315.124512	6.445151
564.855774	1310.774292	17379.626953	2339.495605	6.401959
565.199768	1308.693848	17720.158203	2355.470703	6.378327
565.543823	1301.709473	18013.132813	2384.894287	6.481703
565.887817	1297.251099	18203.572266	2389.426758	6.460162
566.231812	1304.087036	18246.074219	2393.290771	6.429020
566.575745	1312.037476	18121.468750	2380.584717	6.356832
566.919617	1313.895020	17891.576172	2369.885254	6.369951
567.263428	1306.984863	17568.880859	2353.835938	6.437448
567.607239	1301.189331	17345.302734	2336.523438	6.453047
567.950989	1298.811646	17129.673828	2319.656738	6.448449
568.294678	1301.560791	17026.841797	2305.762207	6.385904
568.638367	1305.053101	16910.408203	2301.601318	6.385937
568.981995	1305.350220	16894.062500	2298.851807	6.373211
569.325623	1305.573120	16978.839844	2295.731201	6.317497
569.669128	1302.155151	17132.201172	2294.096680	6.266195
570.012573	1303.864136	17334.826172	2303.458740	6.235400
570.356140	1301.783691	17583.740234	2324.337646	6.280289
570.699524	1303.566895	17845.359375	2352.498291	6.341099
571.042908	1304.607300	18163.003906	2367.284912	6.303551
571.386230	1308.322266	18351.806641	2376.795166	6.269099
571.729492	1306.167480	18438.740234	2375.086182	6.239102
572.072815	1305.944702	18377.515625	2379.916016	6.290993
572.416016	1300.149048	18306.482422	2370.256592	6.292406
572.759094	1300.446289	18132.761719	2365.575684	6.327884
573.102234	1297.251343	17909.556641	2351.160889	6.344150
573.445374	1298.811646	17670.748047	2339.421143	6.356056
573.788391	1304.012817	17587.232422	2321.514160	6.248773
574.131409	1299.628906	17559.294922	2314.901123	6.244115
574.474365	1295.244995	17516.572266	2309.402832	6.252003
574.817261	1295.616577	17426.591797	2297.217041	6.209175
575.160156	1305.647339	17230.875000	2287.483643	6.165289
575.502930	1309.362549	16974.158203	2277.972900	6.183358
575.845703	1311.145874	16687.126953	2263.186523	6.191739
576.188477	1310.328491	16416.814453	2248.177246	6.208252
576.531250	1310.179810	16141.671875	2226.034912	6.175071
576.873901	1304.161255	15793.786133	2203.892822	6.209488
577.216431	1296.508179	15442.335938	2177.886963	6.230662
577.559082	1297.251343	15111.019531	2159.162842	6.239510
577.901611	1299.554565	14824.507813	2135.608643	6.181567
578.244080	1300.594849	14568.312500	2113.689453	6.128368
578.586487	1304.830078	14382.257813	2099.126221	6.073795
578.928955	1307.505005	14192.934570	2124.166260	6.337866
579.271301	1314.860962	14008.515625	2114.581299	6.300159
579.613647	1314.786621	13793.484375	2096.971436	6.268161
579.955872	1305.573120	13637.745117	2063.758057	6.148025
580.298157	1301.412231	13515.368164	2051.200928	6.138787
580.640320	1295.245117	13485.424805	2043.844849	6.141006
580.982483	1299.926147	13439.429688	2032.105103	6.031374
581.324524	1301.337891	13430.291992	2029.652954	6.004764
581.666626	1306.390503	13349.226563	2023.560181	5.955156
582.008728	1311.814575	13284.731445	2012.117676	5.849060
582.350647	1314.935181	13207.011719	2012.712280	5.867580
582.692566	1311.220093	13143.409180	2014.272461	5.941862
583.034424	1307.653564	13087.979492	2016.873047	6.020372
583.376343	1299.554688	12992.128906	2009.888672	6.075087
583.718201	1298.885864	12910.395508	2008.031128	6.107262
584.059937	1294.279175	12801.168945	2006.247925	6.187326
584.401611	1294.204834	12772.934570	2002.606934	6.171433
584.743347	1291.455688	12739.200195	1995.028198	6.145949
585.085022	1292.272949	12740.242188	1995.994019	6.147126
585.426514	1294.353516	12722.409180	1994.582397	6.127279
585.768127	1301.858032	12746.186523	1994.730957	6.054291
586.109619	1306.836182	12747.152344	1990.272827	5.973931
586.451172	1312.037476	12759.487305	1984.179810	5.871546
586.792542	1306.093140	12779.250000	1981.727905	5.888830
587.133850	1304.012695	12817.070313	1983.585449	5.902626
587.475220	1299.554565	12897.540039	1992.130249	5.971517
587.816589	1295.913818	12954.085938	2001.418091	6.051586
588.157776	1293.684692	13059.296875	1997.331543	5.980537
588.498962	1289.969604	13121.860352	1995.027954	5.958966
588.840210	1291.975708	13196.609375	1987.969360	5.846410
589.181335	1291.232666	13264.297852	1995.771118	5.884361
589.522400	1298.142700	13256.273438	2003.126953	5.895439
589.863403	1300.371948	13237.028320	2011.671875	5.958955
590.204407	1303.864136	13164.436523	2004.761597	5.909474
590.545410	1304.458618	13124.535156	1998.074341	5.868115
590.886353	1303.938354	13028.536133	1985.888794	5.816408
591.227112	1304.012695	12916.339844	1979.201538	5.814415
591.567932	1301.783691	12819.745117	1968.427612	5.787864
591.908752	1304.087036	12760.823242	1962.111938	5.743563
592.249512	1301.858032	12798.495117	1962.483398	5.746249
592.590149	1298.737183	12816.699219	1960.254517	5.743354
592.930786	1301.040649	12917.007813	1957.728149	5.653317
593.271423	1301.263550	12989.750000	1964.043823	5.670369
593.612000	1304.607178	13127.284180	1973.331543	5.656286
593.952576	1295.542358	13261.995117	1985.294434	5.764048
594.292969	1287.071655	13414.687500	1988.935181	5.787316
594.633484	1280.978882	13592.790039	1995.771118	5.805744
594.973877	1288.855103	13842.745117	2007.733887	5.726343
595.314209	1306.762085	14123.832031	2021.554077	5.576875
595.654480	1310.254150	14447.124023	2043.696289	5.583081
595.994812	1307.950806	14736.235352	2061.603271	5.612426
596.335022	1295.616577	14967.911133	2075.795166	5.706274
596.675171	1297.771362	15037.014648	2072.822998	5.641152
597.015320	1296.359741	14955.428711	2069.999512	5.663928
597.355408	1296.508179	14673.747070	2059.151123	5.701049
597.695496	1302.972534	14286.629883	2039.683960	5.674144
598.035461	1306.539185	13762.125977	2011.374512	5.658789
598.375366	1309.139771	13309.770508	1984.402710	5.626895
598.715271	1299.406128	12900.809570	1957.208008	5.670020
599.055176	1301.560669	12610.434570	1940.044067	5.645862
599.395081	1306.836304	12374.747070	1922.285767	5.560665
599.734802	1310.922852	12205.335938	1921.022461	5.600114
600.074524	1305.424438	12125.832031	1908.093750	5.569747
600.414246	1298.885864	12068.024414	1895.982544	5.544517
600.753906	1298.439941	12099.007813	1894.570923	5.519441
601.093506	1304.087036	12102.278320	1901.777954	5.535102
601.433044	1309.659790	12233.645508	1912.477661	5.518296
601.772583	1309.065430	12439.242188	1918.719116	5.477484
602.112122	1309.659790	12751.981445	1934.545532	5.461180
602.451538	1303.046875	13106.703125	1956.390625	5.535096
602.790894	1299.257446	13443.071289	1968.204712	5.508543
603.130310	1297.994263	13873.358398	1983.362671	5.450088
603.469604	1298.885864	14268.128906	1998.891968	5.397432
603.808838	1301.932251	14642.094727	2021.702759	5.395515
604.148010	1296.210938	14835.578125	2026.309570	5.392413
604.487305	1298.737305	14904.531250	2027.646851	5.357347
604.826416	1299.406006	14800.877930	2018.953491	5.329401
605.165527	1301.560669	14578.416992	2014.123657	5.366956
605.504456	1299.926147	14208.536133	1993.839233	5.375583
605.843445	1298.588623	13789.320313	1976.452515	5.426935
606.182434	1299.554688	13324.409180	1957.728149	5.473442
606.521423	1303.492676	12935.956055	1940.638306	5.477306
606.860229	1312.334595	12608.057617	1920.576660	5.384711
607.199036	1310.848633	12429.285156	1908.539673	5.375675
607.537903	1311.517456	12367.390625	1897.914429	5.303941
607.876648	1303.492676	12465.620117	1904.898926	5.387918
608.215271	1316.272827	12641.418945	1905.790527	5.205387
608.553955	1315.083862	12845.676758	1924.812012	5.287917
608.892578	1313.077637	12989.006836	1922.211304	5.217003
609.231140	1303.343872	13064.945313	1926.669434	5.299665
609.569641	1297.028198	13016.647461	1920.130859	5.316749
609.908081	1300.446167	12892.488281	1921.914185	5.361161
610.246521	1292.421509	12636.367188	1915.821411	5.495442
610.584961	1297.474121	12352.828125	1907.796875	5.520608
610.923340	1292.347290	12010.218750	1891.227173	5.587676
611.261597	1296.953979	11703.050781	1867.301758	5.480900
611.599854	1292.867432	11427.757813	1841.741577	5.415689
611.938110	1301.709351	11215.625000	1827.103882	5.299566
612.276245	1301.115112	11009.656250	1812.911987	5.271615
612.614319	1309.808350	10847.973633	1810.905762	5.253604
612.952393	1304.904297	10679.455078	1798.868774	5.269207
613.290466	1308.545288	10589.772461	1794.039063	5.230922
613.628479	1294.947754	10469.773438	1773.011353	5.210601
613.966370	1293.238892	10401.339844	1774.348999	5.282222
614.304260	1294.353394	10307.569336	1769.742188	5.274353
614.642151	1303.269653	10230.741211	1767.215820	5.196837
614.979980	1304.012817	10158.741211	1754.584351	5.088485
615.317749	1295.839478	10107.622070	1753.321289	5.191706
615.655396	1288.854858	10080.651367	1762.460571	5.386905
615.993164	1294.576294	10076.340820	1764.466797	5.350753
616.330811	1302.823853	10083.102539	1760.082886	5.207797
616.668396	1311.591675	10089.121094	1759.859985	5.106999
617.005859	1305.796021	10106.433594	1755.550415	5.110475
617.343445	1300.297729	10125.901367	1764.020874	5.254294
617.680908	1295.170776	10162.532227	1759.488403	5.236255
618.018311	1297.845581	10166.990234	1765.135376	5.268713
618.355652	1305.870239	10162.234375	1751.092163	5.027141
618.692993	1306.910522	10113.194336	1750.720703	5.039699
619.030273	1317.164429	10098.706055	1744.182007	4.862672
619.367554	1314.563721	10063.783203	1749.011719	4.965563
619.704712	1309.659668	10074.408203	1751.092285	5.036455
620.041870	1297.325562	10025.219727	1751.612305	5.204998
620.379028	1285.957397	9993.270508	1756.219116	5.400767
620.716064	1285.808594	9933.976563	1751.909668	5.389593
621.053040	1284.099731	9897.418945	1743.661987	5.335484
621.389954	1294.873535	9884.267578	1738.460938	5.164361
621.726929	1305.275879	9839.686523	1730.733398	4.985201
622.063843	1308.099487	9830.769531	1737.420532	5.037401
622.400635	1299.554565	9808.106445	1734.151001	5.107760
622.737427	1290.415405	9841.766602	1735.711426	5.207317
623.074219	1293.090210	9815.909180	1733.928223	5.172443
623.410889	1301.635010	9790.050781	1732.219360	5.072611
623.747559	1308.842407	9816.131836	1734.225586	5.000220
624.084167	1307.802246	9886.868164	1736.751831	4.999957
624.420715	1302.155273	10039.040039	1748.491699	5.108645
624.757324	1299.628906	10159.708008	1751.538086	5.100510
625.093750	1297.102539	10338.554688	1757.853882	5.095988
625.430176	1307.133423	10508.188477	1755.847656	4.876770
625.766602	1310.402832	10698.551758	1764.318237	4.834983
626.102905	1310.402710	10856.594727	1778.435547	4.902822
626.439209	1300.297607	10960.543945	1778.212524	4.947233
626.775452	1297.994263	11010.995117	1785.419922	5.018281
627.111694	1298.217163	10993.608398	1778.584106	4.954590
627.447876	1293.907593	10917.373047	1786.683105	5.120562
627.783997	1293.981812	10794.178711	1778.064087	5.095497
628.120056	1289.523804	10656.124023	1776.503540	5.199109
628.456055	1293.833374	10489.760742	1765.655640	5.130774
628.792053	1293.981812	10337.589844	1760.751465	5.161321
629.128052	1295.096313	10194.481445	1744.702148	5.052100
629.463928	1294.278931	10110.520508	1736.306030	5.013782
629.799744	1289.226440	10036.068359	1725.383423	4.986451
630.135559	1294.799194	9967.635742	1726.349487	4.975884
630.471375	1299.554565	9834.114258	1726.869507	5.006877
630.807068	1309.139648	9717.161133	1734.894165	5.063671
631.142700	1306.984863	9619.303711	1730.733276	5.097836
631.478333	1305.796021	9529.249023	1727.092407	5.123108
631.813965	1298.068481	9478.054688	1713.717896	5.081297
632.149475	1299.182983	9418.463867	1705.544800	5.004899
632.484924	1303.715576	9430.426758	1701.235229	4.891520
632.820435	1305.870361	9426.042969	1702.126831	4.879902
633.155884	1301.560791	9440.680664	1708.442383	4.999086
633.491150	1293.164551	9503.393555	1712.974976	5.113261
633.826477	1291.455566	9523.157227	1714.683960	5.141445
634.161804	1295.690918	9536.458008	1707.327759	4.995127
634.497009	1302.749634	9451.157227	1698.337280	4.854784
634.832153	1305.127319	9355.084961	1691.947266	4.805242
635.167297	1308.842407	9238.948242	1688.380737	4.786044
635.502380	1302.006592	9141.612305	1674.932007	4.756941
635.837463	1294.650757	9064.188477	1669.359253	4.822790
636.172424	1292.718750	9029.118164	1667.650269	4.846331
636.507324	1295.096313	8953.329102	1675.452026	4.966625
636.842224	1302.600952	8855.398438	1675.452148	4.936597
637.177124	1297.622681	8725.888672	1670.399414	5.018354
637.511963	1296.879761	8640.291992	1660.888672	4.956945
637.846741	1295.765137	8556.477539	1656.653320	4.970424
638.181396	1297.994263	8475.265625	1645.062134	4.835652
638.516113	1303.492676	8430.460938	1649.966187	4.861443
638.850769	1303.567017	8383.278320	1649.297485	4.883398
639.185303	1308.396606	8344.493164	1658.511108	4.975976
639.519836	1301.337891	8273.235352	1647.365601	4.963179
639.854370	1300.743408	8230.214844	1644.467773	4.960326
640.188843	1291.307007	8179.392090	1643.427612	5.112025
640.523254	1295.839478	8130.574707	1654.350098	5.245420
640.857605	1297.399780	8097.287109	1650.040527	5.185979
641.191895	1302.526733	8074.031250	1642.758789	5.024468
641.526184	1292.198608	8041.709473	1633.545410	5.057356
641.860413	1293.536011	7996.682129	1639.489624	5.161063
642.194580	1290.638184	7945.338379	1639.861206	5.247765
642.528748	1300.669067	7905.585938	1637.632202	5.101701
642.862793	1301.932251	7850.156250	1632.059448	5.041477
643.196838	1301.263550	7806.243652	1634.808594	5.127534
643.530823	1306.241821	7799.036621	1640.678345	5.150887
643.864746	1297.325562	7827.717285	1633.545410	5.148540
644.198669	1304.309937	7848.076660	1634.957153	5.052858
644.532532	1299.703125	7847.259277	1624.852051	4.965959
644.866333	1306.984741	7846.070313	1627.898438	4.907624
645.200073	1300.148926	7843.099121	1620.988159	4.903587
645.533813	1298.662842	7835.296875	1628.418457	5.044731
645.867554	1297.697144	7811.890625	1628.344116	5.075793
646.201172	1306.464722	7800.373535	1629.755859	4.978375
646.534729	1301.040649	7809.958984	1634.065430	5.116438
646.868225	1301.263550	7808.175781	1633.991089	5.113448
647.201782	1291.678467	7806.541504	1633.991211	5.254335
647.535217	1293.461792	7799.482422	1631.910645	5.202087
647.868591	1289.226440	7797.029785	1631.316284	5.256610
648.201965	1292.644409	7777.859863	1630.350220	5.207318
648.535278	1297.845581	7757.798340	1629.384399	5.132217
648.868591	1294.427734	7760.474121	1631.836426	5.218161
649.201782	1291.678467	7766.714844	1632.430786	5.262555
649.534912	1287.443237	7750.071777	1633.322388	5.351989
649.868103	1292.867310	7723.470703	1638.523804	5.375180
650.201172	1296.953979	7725.773926	1643.799194	5.395162
650.534180	1298.588623	7735.878906	1647.588501	5.421534
650.867188	1297.845581	7761.439453	1637.186157	5.250030
651.200134	1293.090210	7765.080566	1629.755981	5.201890
651.533020	1288.780640	7774.962891	1625.520874	5.191656
651.865845	1290.266724	7733.576660	1641.644409	5.453372
652.198608	1295.913696	7680.300781	1647.960083	5.514177
652.531433	1297.845581	7614.617188	1651.675171	5.601431
652.864136	1300.817749	7602.134277	1637.706421	5.346322
653.196777	1426.835083	7731.792480	1765.432617	5.370338
653.529358	1437.237671	7701.773438	1765.878418	5.246051
653.861938	1435.157104	7646.566895	1766.324219	5.331594
654.194519	1308.173706	7457.689453	1638.226440	5.367134
654.526978	1303.344116	7453.603027	1630.201660	5.314533
654.859375	1299.851685	7439.188965	1630.127319	5.379663
655.191833	1297.994263	7434.433105	1625.817749	5.342243
655.524170	1301.560791	7412.959473	1623.885864	5.274162
655.856445	1305.796021	7394.458496	1623.588867	5.219419
656.188660	1311.963135	7379.375000	1625.817871	5.172794
656.520874	1307.505005	7368.451660	1629.310059	5.309485
656.853088	1299.628906	7421.578613	1627.824097	5.360959
657.185181	1289.820923	7511.708496	1635.625854	5.557878
657.517212	1289.077759	7674.505371	1643.353149	5.548186
657.849243	1298.365723	7830.169434	1655.018677	5.460252
658.181274	1301.114868	8021.572754	1656.950684	5.294815
658.513123	1301.783569	8209.632813	1663.415039	5.235081
658.844971	1305.424561	8387.438477	1674.040405	5.204958
659.176819	1298.068604	8519.921875	1691.798706	5.451926
659.508667	1295.170776	8580.775391	1701.606812	5.578618
659.840393	1290.489624	8567.475586	1704.281616	5.686310
660.172058	1298.365723	8485.444336	1705.693359	5.667500
660.503662	1304.904419	8306.969727	1703.612793	5.694154
660.835266	1308.842407	8102.414551	1699.823364	5.755160
661.166931	1309.436768	7873.710938	1686.968872	5.751315
661.498413	1305.870239	7696.275879	1670.102173	5.699668
661.829773	1303.715454	7528.426270	1663.266479	5.776188
662.161194	1308.470825	7373.133301	1652.864136	5.678689
662.492615	1310.625732	7232.181152	1648.851685	5.711775
662.823975	1305.944580	7137.964844	1644.170532	5.799464
663.155212	1304.830078	7052.962891	1641.421387	5.855663
663.486450	1298.662964	6964.244629	1643.873413	6.093116
663.817627	1295.022095	6876.790527	1639.340942	6.168633
664.148743	1289.969604	6802.636719	1633.619751	6.233828
664.479858	1295.542236	6751.517090	1629.310059	6.117474
664.810913	1302.823853	6743.640625	1623.514526	5.894164
665.141907	1302.080933	6715.107910	1624.554688	5.957365
665.472778	1304.532837	6695.640625	1624.034546	5.926457
665.803711	1302.080933	6682.563965	1630.647461	6.106637
666.134583	1306.464844	6697.052246	1641.495728	6.215109
666.465454	1303.938477	6713.548340	1644.393555	6.293524
666.796143	1308.470825	6678.552246	1644.096313	6.249914
667.126831	1310.848633	6657.226563	1635.551392	6.073322
667.457458	1306.093140	6644.148926	1643.130371	6.313858
667.788147	1302.452271	6663.616699	1649.371704	6.470972
668.118774	1304.458496	6682.489746	1654.870117	6.515612
668.449219	1307.282104	6710.798828	1648.034180	6.306117
668.779663	1302.972534	6734.650391	1648.182983	6.355503
669.110107	1300.669189	6744.532715	1644.244751	6.311245
669.440552	1301.783691	6729.894531	1644.393555	6.311770
669.770874	1300.223267	6687.541504	1639.043579	6.289220
670.101135	1296.879761	6669.263672	1650.857788	6.588845
670.431396	1294.056274	6610.341309	1653.532715	6.761797
670.761597	1296.879761	6563.604980	1653.384155	6.768996
671.091797	1297.696899	6505.128906	1640.381226	6.580678
671.421875	1300.074707	6473.328125	1643.650391	6.641385
671.751892	1302.452271	6444.052246	1644.765015	6.657709
672.081909	1301.486450	6403.408691	1646.102539	6.754632
672.411865	1300.520508	6397.389160	1638.300781	6.627212
672.741821	1298.885864	6360.015625	1636.517456	6.671072
673.071716	1300.000366	6349.464844	1637.929199	6.692370
673.401550	1299.183105	6306.889160	1628.641479	6.579028
673.731262	1300.966431	6289.725098	1638.003540	6.755931
674.060974	1299.257324	6233.701172	1638.375000	6.872460
674.390625	1299.554565	6207.472168	1646.399780	7.067055
674.720276	1302.600952	6195.732422	1639.043823	6.875819
675.049927	1304.755859	6206.431641	1638.523804	6.809262
675.379395	1304.755859	6200.338379	1643.056152	6.910317
675.708923	1304.830078	6165.639160	1639.489624	6.884853
676.038330	1302.303833	6146.692871	1639.415405	6.958805
676.367737	1301.040527	6128.042969	1641.347046	7.050059
676.697083	1300.891968	6143.943359	1642.684570	7.057382
677.026428	1307.133423	6161.850098	1646.994141	7.000629
677.355652	1312.111816	6198.480957	1648.405884	6.882289
677.684875	1312.483398	6225.602051	1657.990845	7.032345
678.013977	1310.477051	6264.536621	1661.557251	7.086718
678.343079	1306.910645	6313.873535	1669.730835	7.246313
678.672180	1301.709473	6392.634277	1669.433594	7.223130
679.001221	1291.455688	6464.484863	1684.591187	7.599715
679.330139	1298.440063	6551.642090	1690.386719	7.461100
679.659058	1293.090210	6605.065918	1702.349609	7.704467
679.987976	1294.650635	6683.009277	1697.000000	7.467012
680.316772	1284.099609	6731.306152	1698.708984	7.611413
680.645630	1290.340942	6760.283691	1701.978149	7.525439
680.974304	1298.217163	6729.894531	1702.721069	7.447127
681.302979	1306.613281	6669.783691	1710.299927	7.527015
681.631653	1311.145874	6606.626465	1720.479492	7.729867
681.960266	1306.316040	6548.521973	1723.600220	7.960087
682.288757	1297.399780	6495.470215	1722.634277	8.180622
682.617249	1294.056152	6427.185059	1709.705566	8.097389
682.945679	1295.839478	6358.381348	1716.541504	8.310095
683.274109	1303.566895	6248.933105	1712.306274	8.265099
683.602478	1302.526733	6152.042480	1708.070923	8.362571
683.930725	1300.297485	6031.820313	1691.278442	8.263322
684.259033	1295.839478	5969.851563	1688.677856	8.404736
684.587280	1295.467896	5901.493652	1692.318726	8.615906
684.915344	1290.563843	5870.583496	1699.749023	8.934136
685.243469	1292.867310	5831.128906	1696.331177	8.890273
685.571533	1292.124268	5808.689941	1686.151733	8.724051
685.899536	1296.879761	5779.042969	1672.034180	8.369942
686.227539	1296.062378	5762.398438	1672.108521	8.419567
686.555420	1295.913696	5738.324707	1681.322144	8.675659
686.883301	1300.817627	5744.714844	1702.646973	9.042274
687.211121	1296.062134	5768.714355	1697.594360	8.977497
687.538940	1299.034424	5812.553223	1696.554077	8.807312
687.866638	1298.588745	5836.998535	1685.408569	8.523246
688.194336	1302.303711	5807.128906	1698.485962	8.794620
688.521973	1301.635132	5763.661621	1695.439453	8.825684
688.849609	1297.399780	5715.067871	1701.160767	9.139687
689.177063	1295.765137	5669.743652	1694.102173	9.106973
689.504578	1288.037598	5607.478027	1703.166992	9.610722
689.832031	1287.220337	5541.125488	1701.829590	9.746556
690.159485	1295.393677	5482.351563	1695.662476	9.559896
690.486816	1305.350220	5434.129395	1685.705688	9.212298
690.814087	1307.802124	5398.166992	1682.064941	9.149864
691.141296	1305.350220	5364.879395	1674.263184	9.087580
691.468506	1299.331665	5329.214355	1673.445923	9.283503
691.795715	1301.635132	5270.960938	1663.935059	9.127493
692.122803	1298.811523	5214.639160	1671.439819	9.515952
692.449829	1307.207764	5199.035645	1671.514038	9.360802
692.776855	1305.424561	5162.255859	1681.024780	9.738570
693.103821	1307.579224	5129.637207	1676.343750	9.648323
693.430664	1298.142822	5068.560547	1674.932007	9.993300
693.757568	1291.827026	5057.117676	1668.764771	10.010854
694.084351	1292.050049	5049.910156	1677.532593	10.258034
694.411133	1300.371948	5047.458008	1673.520142	9.958357
694.737854	1303.641235	5035.197754	1679.984497	10.085423
695.064575	1293.090210	5049.241699	1678.052734	10.248856
695.391174	1287.443237	5073.389648	1682.510742	10.435106
695.717773	1291.158325	5109.798340	1684.962769	10.312688
696.044250	1299.628906	5140.113770	1690.758423	10.184379
696.370789	1302.006470	5206.391602	1698.857422	10.164236
696.697205	1312.928955	5291.914063	1703.241211	9.809342
697.023621	1311.442993	5418.080566	1720.405273	9.958568
697.349915	1300.743286	5559.626953	1735.711548	10.213199
697.676208	1289.078003	5744.789063	1762.980835	10.635852
698.002380	1291.381226	5938.050781	1785.642944	10.636903
698.328674	1301.114868	6130.346191	1825.840820	10.865621
698.654724	1301.263550	6263.125000	1849.914673	11.057365
698.980896	1299.108765	6362.244629	1853.332642	10.946258
699.306946	1300.446167	6374.652832	1847.982910	10.790588
699.632935	1309.213867	6307.781250	1836.243164	10.543607
699.958862	1308.470825	6165.862793	1835.574585	10.851580
700.284729	1309.659790	5985.010254	1815.215454	10.813214
700.610596	1305.201538	5796.207031	1792.553223	10.851727
700.936340	1307.282104	5604.431152	1765.061157	10.653088
701.262146	1304.532715	5444.011719	1751.017944	10.786025
701.587830	1300.669067	5306.625977	1745.816772	11.112144
701.913513	1301.040649	5179.865723	1744.182007	11.424628
702.239075	1300.074707	5057.489746	1736.603027	11.617783
702.564697	1293.238892	4951.905273	1733.408203	12.030868
702.890137	1284.693970	4858.283691	1726.275024	12.356791
703.215698	1285.585693	4771.275391	1726.498047	12.649214
703.541016	1291.529907	4710.420898	1716.987305	12.444309
703.866455	1299.257324	4677.950684	1712.306274	12.225109
704.191711	1301.932129	4653.059570	1697.668579	11.809054
704.517029	1304.532837	4603.796875	1696.925659	11.893344
704.842163	1309.956909	4551.413574	1688.009399	11.663044
705.167419	1306.836182	4518.125488	1689.718262	11.923001
705.492493	1299.777466	4509.283691	1682.436523	11.922676
705.817566	1296.805298	4501.778809	1683.402466	12.062413
706.142578	1305.573120	4493.159668	1683.625366	11.860141
706.467590	1310.402710	4501.778809	1686.746094	11.792512
706.792480	1307.282104	4499.475098	1695.439453	12.159583
707.117371	1297.102661	4499.178711	1702.646851	12.665039
707.442200	1296.953979	4493.383301	1707.105103	12.831541
707.766907	1290.712524	4496.132324	1707.179321	12.992581
708.091675	1286.625977	4486.472656	1708.219604	13.175432
708.416321	1284.916870	4498.212402	1711.488892	13.275220
708.741028	1291.009766	4504.379395	1714.386719	13.175483
709.065552	1297.176758	4551.041504	1710.522949	12.703238
709.390137	1299.406006	4567.388184	1703.464233	12.364150
709.714600	1290.118164	4598.224121	1707.699341	12.622969
710.039063	1294.056274	4623.486816	1721.965454	12.852323
710.363403	1301.263550	4657.888672	1740.318359	13.080246
710.687744	1310.922852	4718.520020	1747.748535	12.819170
711.012085	1308.396606	4753.813965	1752.801147	12.898423
711.336304	1301.412231	4791.336426	1749.977661	12.853156
711.660461	1309.288208	4793.862793	1750.200562	12.653261
711.984619	1307.356323	4786.655762	1753.915649	12.834749
712.308716	1309.213989	4760.055176	1762.906250	13.147294
712.632751	1306.316040	4728.030762	1762.014648	13.317842
712.956726	1311.145874	4689.690918	1752.281128	13.056960
713.280701	1305.275757	4635.152344	1743.587769	13.163012
713.604553	1298.588501	4583.660645	1745.370972	13.600385
713.928467	1296.433716	4532.391602	1747.005493	13.923907
714.252258	1303.269653	4502.744629	1743.290527	13.752909
714.575989	1299.182983	4486.249512	1738.757935	13.792463
714.899719	1290.638184	4483.872070	1738.757935	14.033415
715.223267	1283.208008	4506.683105	1748.565918	14.436529
715.546936	1286.031616	4529.939941	1757.185059	14.524253
715.870422	1294.947876	4550.298340	1767.215820	14.507438
716.193970	1297.845581	4524.664063	1771.153931	14.667957
716.517395	1302.378052	4483.426270	1761.568970	14.435207
716.840820	1306.761841	4442.560059	1746.857056	14.034551
717.164124	1304.978638	4392.925781	1731.401978	13.809281
717.487488	1302.600952	4356.145996	1732.442383	14.076800
717.810730	1289.895142	4301.310059	1724.120483	14.419312
718.133972	1293.164429	4263.118652	1731.624878	14.763206
718.457092	1297.474121	4200.704590	1725.012085	14.726284
718.780212	1301.486450	4138.215332	1726.572266	14.985069
719.103210	1305.127319	4083.157471	1712.306274	14.657110
719.426208	1299.703247	4021.337646	1703.315552	14.829778
719.749207	1304.012695	3973.115234	1702.869751	14.943489
720.072083	1298.960083	3922.589111	1696.108032	15.137352
720.394958	1298.514282	3888.632813	1698.337280	15.436474
720.717773	1297.473999	3855.047852	1688.380737	15.284281
721.040527	1299.926147	3825.475586	1685.259888	15.257422
721.363281	1301.412231	3821.537842	1685.779907	15.251926
721.685913	1310.551392	3812.695557	1683.550903	14.907196
722.008545	1308.693848	3795.382813	1685.705933	15.161208
722.331055	1311.517334	3765.141846	1682.956543	15.138389
722.653503	1298.217163	3754.293701	1686.300293	15.800937
722.976013	1293.684692	3765.661865	1683.030884	15.750397
723.298401	1293.387451	3768.708252	1679.092896	15.582039
723.620789	1297.697021	3757.488525	1680.653320	15.568648
723.943115	1304.012817	3746.491943	1689.941040	15.800677
724.265381	1302.080933	3740.993408	1693.581909	16.052277
724.587585	1287.443237	3750.132813	1695.067871	16.552011
724.909790	1287.963379	3760.014893	1695.216431	16.474295
725.231873	1284.025269	3772.423584	1699.451782	16.694534
725.553894	1293.981934	3774.132080	1700.566406	16.393543
725.875916	1319.319214	3797.686279	1720.702271	16.195463
726.197937	1320.879517	3794.268555	1717.358765	16.029797
726.519775	1320.062256	3801.253174	1716.541504	15.979393
726.841675	1295.988159	3798.355225	1703.315552	16.277683
727.163513	1295.319458	3836.323975	1709.036743	16.281643
727.485291	1299.183228	3878.230469	1721.296875	16.367037
727.806946	1301.783691	3913.078369	1719.142090	15.982815
728.128662	1303.938354	3927.344727	1726.423828	16.104462
728.450256	1305.944458	3940.496338	1730.510376	16.115299
728.771790	1301.114868	3929.128174	1737.271851	16.596453
729.093323	1302.749634	3913.598877	1737.568970	16.654327
729.414795	1301.858032	3891.382080	1729.172852	16.501675
729.736145	1303.046997	3885.586670	1725.234863	16.347780
730.057495	1306.241821	3898.440674	1720.925293	15.997364
730.378845	1302.229614	3899.183838	1726.646606	16.342876
730.700134	1303.121216	3911.072510	1730.881836	16.402172
731.021301	1295.765259	3925.412842	1742.473022	16.987364
731.342468	1298.588745	3958.328857	1744.999390	16.783995
731.663574	1293.684692	3978.985107	1753.544312	17.125072
731.984680	1300.669189	3982.922852	1753.544312	16.884127
732.305664	1304.532837	3995.628906	1758.448242	16.867306
732.626648	1309.882690	3994.440186	1756.219116	16.626070
732.947571	1305.201538	3982.848877	1752.949829	16.721704
733.268433	1301.040649	3949.858398	1754.510132	17.119692
733.589233	1295.393677	3925.487061	1750.794922	17.315023
733.909973	1300.074707	3903.790771	1754.658813	17.459051
734.230713	1302.229492	3866.639404	1741.730103	17.138470
734.551331	1307.059204	3805.264893	1742.101563	17.414194
734.871948	1301.263550	3752.436279	1735.265625	17.705894
735.192505	1301.263672	3713.501221	1734.151001	17.945469
735.513062	1295.393677	3683.557373	1727.686646	18.101480
735.833435	1294.650513	3649.080811	1712.083374	17.729677
736.153931	1290.638306	3606.654053	1714.460938	18.299644
736.474304	1290.341064	3581.019531	1706.882202	18.184181
736.794617	1292.867310	3561.477783	1716.244141	18.662386
737.114807	1297.028320	3564.301514	1712.826294	18.339121
737.434998	1301.634888	3574.778076	1712.900513	18.092377
737.755188	1305.944580	3581.688232	1710.300171	17.768064
738.075256	1302.972534	3594.839844	1714.460938	17.954287
738.395325	1309.659668	3619.879639	1716.913086	17.628340
738.715271	1308.693848	3657.031250	1725.309204	17.740864
739.035278	1309.956909	3666.690674	1725.977905	17.652439
739.355164	1308.693848	3662.529541	1733.185181	18.034025
739.675049	1312.409058	3639.867432	1731.773438	18.018126
739.994873	1313.077759	3630.059570	1724.194702	17.743641
740.314636	1302.452393	3601.156006	1715.872681	17.984932
740.634277	1292.644409	3571.211914	1701.235229	17.931917
740.953979	1292.570190	3533.614502	1694.547852	17.937067
741.273499	1289.672363	3497.577881	1687.266235	18.007740
741.593140	1292.421509	3462.803955	1695.439453	18.568983
741.912598	1289.895142	3435.534912	1695.142456	18.887016
742.232117	1297.771362	3403.213135	1691.947266	18.721766
742.551453	1297.474121	3387.014893	1680.356079	18.323736
742.870850	1303.641235	3365.615967	1672.776978	17.902050
743.190063	1303.641235	3349.492188	1673.445923	18.075838
743.509338	1307.059082	3325.046875	1677.904175	18.376974
743.828552	1306.241821	3306.173828	1685.260132	18.951559
744.147705	1305.498779	3298.891846	1687.191895	19.147911
744.466797	1301.189209	3277.344482	1682.585083	19.299894
744.785828	1301.783569	3253.270264	1673.668823	19.056509
745.104858	1303.641235	3225.778320	1664.529663	18.775373
745.423706	1304.012695	3214.707031	1668.096069	19.055029
745.742615	1302.229614	3213.147217	1671.365234	19.317192
746.061401	1306.910645	3208.465820	1677.458130	19.486549
746.380249	1304.904419	3211.957764	1672.554321	19.278427
746.698975	1308.471069	3205.270508	1677.309570	19.445309
747.017639	1301.858032	3213.964111	1682.065063	19.884201
747.336304	1300.223267	3203.858643	1683.996948	20.160042
747.654907	1293.610352	3196.577393	1681.247681	20.370155
747.973389	1292.570068	3173.915039	1675.897827	20.375198
748.291931	1301.560669	3181.940186	1674.783203	19.848255
748.610352	1300.000366	3190.187500	1668.987671	19.521206
748.928711	1303.195557	3205.047852	1673.891602	19.491316
749.247070	1297.325562	3202.595703	1682.510742	20.216827
749.565308	1299.926147	3199.326416	1691.427124	20.611820
749.883545	1300.966431	3183.648682	1686.894653	20.498850
750.201782	1298.737305	3168.342529	1673.743164	20.058023
750.519836	1297.994263	3154.150391	1674.263306	20.271412
750.837952	1293.610352	3146.348877	1675.526367	20.613594
751.155884	1304.384155	3139.141357	1673.148804	20.098825
751.473877	1304.830078	3130.670654	1669.359375	19.965012
751.791809	1309.808472	3133.122803	1666.535767	19.564772
752.109619	1302.229492	3115.736328	1667.650269	20.149954
752.427490	1300.149048	3111.575195	1666.609985	20.230520
752.745300	1297.994263	3119.822510	1667.427246	20.278145
753.062988	1292.718750	3135.054688	1673.148438	20.649311
753.380615	1295.170776	3137.580811	1672.108398	20.458942
753.698303	1299.034546	3119.748047	1674.337524	20.612963
754.015808	1305.350220	3120.119873	1676.715210	20.463478
754.333374	1302.080933	3129.630615	1671.885376	20.234987
754.650757	1295.467896	3134.014648	1672.925781	20.530230
754.968262	1294.204712	3131.042236	1670.399414	20.480564
755.285583	1299.777466	3116.776123	1676.789429	20.749161
755.602905	1305.052856	3100.578369	1677.903931	20.765568
755.920105	1309.139526	3086.386475	1684.888550	21.142195
756.237305	1306.018921	3087.055420	1683.476563	21.193144
756.554443	1298.960083	3094.188232	1679.612915	21.203590
756.871582	1289.449341	3099.612305	1662.969116	20.634594
757.188599	1293.238892	3104.962158	1666.461426	20.600416
757.505615	1295.765015	3107.562500	1673.223022	20.833344
757.822510	1300.149048	3124.949463	1681.767700	20.912899
758.139465	1292.941650	3150.435547	1681.842163	20.936840
758.456238	1294.130493	3182.459961	1683.328125	20.610685
758.773010	1295.170654	3209.283203	1693.433228	20.806643
759.089783	1297.325439	3211.809326	1700.417847	21.054886
759.406433	1298.811523	3235.214844	1700.789185	20.758984
759.723145	1303.418335	3237.740967	1703.687012	20.692963
760.039673	1304.087036	3250.892578	1706.733398	20.682413
760.356201	1298.662964	3251.635498	1702.275391	20.666569
760.672668	1296.953979	3257.505859	1705.693359	20.848179
760.989136	1305.275757	3254.087646	1709.705688	20.752642
761.305481	1306.464722	3237.889893	1724.417603	21.639610
761.621826	1305.573120	3239.821533	1734.671265	22.184231
761.938049	1304.607178	3259.735107	1735.414429	22.034735
762.254333	1305.127319	3301.492920	1747.376953	22.152739
762.570496	1303.343994	3361.529297	1751.612183	21.779778
762.886597	1298.440063	3472.760498	1773.902954	21.867197
763.202637	1297.399780	3645.588867	1810.311523	21.842865
763.518677	1299.331787	3874.292236	1859.499878	21.754435
763.834656	1303.121216	4080.111328	1913.072266	21.964464
764.150574	1306.093262	4218.313965	1927.189819	21.327250
764.466370	1306.687622	4241.050781	1929.641724	21.229618
764.782288	1301.932129	4169.868652	1910.099976	21.205765
765.097961	1305.647461	4025.795898	1887.363281	21.385445
765.413696	1306.464722	3853.710693	1849.840454	21.331890
765.729309	1308.173706	3679.619385	1815.141113	21.377989
766.044861	1306.613403	3526.778564	1785.865845	21.586344
766.360474	1302.155273	3415.993164	1765.432617	21.916409
766.675903	1297.176880	3327.647217	1744.999390	22.055113
766.991394	1300.297607	3279.870361	1728.281250	21.620001
767.306763	1304.532837	3223.772217	1721.742676	21.738291
767.622131	1304.681519	3190.707275	1721.296753	22.089584
767.937378	1296.656738	3140.033203	1717.061523	22.806236
768.252625	1289.523804	3112.318359	1704.801636	22.782482
768.567810	1288.557739	3065.135986	1690.015259	22.597233
768.882996	1294.204712	3038.461182	1681.544922	22.206608
769.197998	1299.554565	3002.572998	1673.594360	21.963345
769.513062	1311.294434	2986.523682	1666.609985	21.209967
769.828064	1314.118042	2971.217529	1660.591431	20.908424
770.142944	1310.848511	2955.019287	1657.322144	21.072849
770.457825	1304.087036	2946.028564	1653.086914	21.255318
770.772705	1299.034424	2925.892578	1651.898071	21.689884
771.087402	1303.269653	2905.682373	1649.148804	21.584898
771.402100	1301.486450	2869.422607	1651.898071	22.348589
771.716736	1298.885864	2836.431885	1653.755737	23.080276
772.031372	1296.211060	2814.290039	1648.182983	23.185350
772.345947	1298.514282	2811.689453	1646.176758	22.975693
772.660461	1296.731079	2807.156982	1633.025024	22.264843
772.974854	1296.210938	2792.816406	1635.254272	22.654156
773.289246	1293.164551	2776.395264	1628.938477	22.638010
773.603638	1295.393677	2765.398438	1629.681519	22.740597
773.917908	1305.647461	2758.191406	1623.365845	21.873238
774.232178	1308.470825	2748.234619	1624.406250	21.943560
774.546265	1313.597900	2737.312256	1626.561035	21.982157
774.860474	1303.567017	2733.745361	1627.229614	22.630926
775.174561	1297.771362	2726.984131	1621.434082	22.646223
775.488586	1289.672363	2718.810791	1613.186523	22.637007
775.802551	1293.907593	2712.718262	1612.369019	22.445660
776.116516	1296.211060	2706.328369	1608.653931	22.157225
776.430359	1298.068481	2691.690430	1617.570190	22.925995
776.744202	1295.839478	2674.303711	1620.839478	23.576963
777.057922	1295.319214	2670.588135	1620.691040	23.658779
777.371704	1296.433838	2674.972168	1611.774780	22.875021
777.685303	1293.684692	2679.950439	1609.099731	22.752855
777.998962	1298.737305	2666.055908	1605.979004	22.470381
778.312500	1300.371948	2658.105469	1611.477417	22.913588
778.626038	1310.254272	2646.811523	1607.390747	22.231482
778.939453	1307.207764	2647.628906	1602.263794	22.012188
779.252869	1310.997070	2645.771240	1601.075073	21.732367
779.566223	1303.046875	2643.839600	1593.050415	21.629259
779.879578	1306.836304	2654.613525	1601.892456	21.892057
780.192749	1308.396606	2663.678223	1603.898560	21.803730
780.505920	1311.740234	2669.325195	1612.740601	22.171751
780.819031	1304.012817	2646.513916	1614.078125	23.096094
781.132141	1296.731079	2621.920166	1617.421509	24.199598
781.445190	1294.799194	2600.298096	1617.124390	24.689810
781.758118	1298.662964	2597.400146	1616.009888	24.435038
782.071045	1298.365845	2588.335205	1602.486694	23.575819
782.383911	1294.576294	2574.663574	1595.279297	23.490820
782.696838	1301.560913	2550.960938	1592.010132	23.247095
783.009583	1298.068481	2536.917725	1596.988403	24.128838
783.322266	1303.343994	2530.824951	1598.251587	24.025431
783.634888	1293.313110	2525.401123	1597.731445	24.707516
783.947510	1292.718628	2527.184326	1589.632324	24.052000
784.260132	1291.901367	2521.314209	1583.985352	23.758007
784.572571	1293.461670	2521.016846	1577.372437	23.128147
784.885010	1297.251221	2501.624023	1580.121582	23.486944
785.197449	1301.263550	2487.506348	1584.059570	23.839642
785.509766	1301.040649	2482.008057	1583.613892	23.927269
785.822083	1300.371948	2490.627197	1586.957520	24.077656
786.134277	1299.703247	2492.781982	1579.824585	23.478865
786.446533	1301.783691	2497.314697	1575.217773	22.871349
786.758606	1308.768188	2504.150391	1566.598633	21.568871
787.070740	1301.189331	2513.586914	1574.177368	22.516378
787.382690	1297.325562	2515.147217	1579.453125	23.166574
787.694641	1293.313232	2525.549561	1583.019531	23.510612
788.006653	1295.839478	2550.738037	1589.706665	23.417604
788.318481	1304.384277	2595.542725	1600.034790	22.898081
788.630310	1308.916870	2633.362549	1616.232788	23.203362
788.942017	1304.681519	2660.706299	1615.563965	22.926016
789.253784	1305.721802	2659.368896	1620.765259	23.273678
789.565430	1297.697021	2652.532715	1608.356812	22.929703
789.877014	1299.926147	2632.025146	1612.889160	23.493975
790.188538	1297.919922	2607.431152	1607.167969	23.615532
790.500061	1293.981812	2564.855713	1604.493042	24.432890
790.811462	1299.405884	2526.515381	1595.725220	24.147751
791.122925	1289.003418	2499.543457	1590.821289	24.932499
791.434204	1296.359497	2481.190674	1587.403320	24.564159
791.745483	1292.347168	2466.627441	1586.065796	25.012651
792.056702	1301.783569	2453.698730	1589.186523	24.950010
792.367920	1302.378052	2450.355225	1589.038086	24.970882
792.678955	1302.303833	2439.729736	1579.081421	24.333681
792.990112	1299.926147	2427.767090	1570.165161	23.960737
793.301086	1298.960083	2410.603271	1563.329224	23.781834
793.612122	1299.703247	2410.454346	1566.895874	24.055130
793.922974	1295.319336	2401.984131	1558.871094	23.814959
794.233826	1297.474243	2405.327881	1564.666626	24.118021
794.544556	1298.440063	2406.665283	1559.614136	23.566877
794.855286	1300.966431	2411.271973	1567.044434	23.964396
795.166016	1296.731079	2403.024414	1560.431519	23.836393
795.476624	1297.771362	2410.528809	1569.199219	24.392365
795.787292	1302.155151	2434.899902	1570.239380	23.666782
796.097778	1305.721802	2477.104004	1578.561401	23.292107
796.408264	1305.796021	2510.837646	1584.951294	23.165613
796.718689	1301.040649	2516.856201	1592.233032	23.950375
797.029053	1296.656738	2505.785156	1602.561157	25.299582
797.339355	1291.827148	2490.627441	1604.418579	26.075356
797.649658	1295.765137	2481.562256	1593.719116	25.126894
797.959839	1299.257446	2466.701904	1589.335083	24.847233
798.270020	1299.926147	2449.389404	1570.165039	23.510008
798.580078	1296.656860	2433.339844	1574.771851	24.467243
798.890137	1303.195435	2424.349121	1558.425171	22.764919
799.200195	1303.938477	2398.566162	1566.598511	23.995377
799.510071	1310.551392	2389.129639	1561.100098	23.229534
799.820007	1305.498779	2380.361816	1562.437622	23.904333
800.129883	1299.554565	2386.529053	1551.069336	23.138977
800.439575	1298.960083	2375.680908	1551.960938	23.497349
800.749329	1295.244995	2364.312500	1553.744141	24.179871
801.058960	1304.161255	2352.647217	1561.843140	24.576571
801.368591	1298.960083	2337.043701	1551.737915	24.350431
801.678162	1300.074585	2329.984863	1544.753540	23.757307
801.987671	1300.743286	2309.997314	1541.558594	23.860723
802.297119	1294.353394	2305.464600	1547.651367	25.051445
802.606506	1291.455444	2296.697021	1554.115723	26.129070
802.915894	1284.471069	2295.953857	1552.183960	26.467369
803.225159	1289.523682	2289.043701	1550.177734	26.077923
803.534424	1294.576294	2276.932373	1541.187012	25.104004
803.843628	1301.263428	2277.452637	1538.660767	24.318783
804.152771	1306.613281	2283.916992	1529.670044	22.823689
804.461792	1309.659668	2285.997559	1532.716431	22.846268
804.770874	1307.356323	2291.421631	1533.533813	22.983992
805.079773	1307.876465	2288.375244	1541.038452	23.779936
805.388733	1302.155273	2296.474121	1543.267578	24.248993
805.697571	1298.885864	2297.811523	1544.753540	24.613211
806.006470	1294.502075	2307.099365	1551.217773	25.352201
806.315125	1296.656860	2322.182861	1556.270508	25.315170
806.623901	1304.681396	2334.442871	1555.898926	24.395700
806.932495	1307.504883	2334.368408	1553.521118	23.958027
807.241150	1307.430542	2324.040771	1547.948608	23.658829
807.549622	1307.950806	2303.012939	1544.530640	23.775383
807.858154	1313.969360	2296.102783	1537.843384	22.794664
808.166565	1312.631958	2289.712646	1540.741211	23.345999
808.474915	1309.659790	2281.167969	1544.381958	24.160597
808.783264	1304.830078	2264.672607	1539.106445	24.407791
809.091492	1307.430664	2249.440430	1533.682251	24.017965
809.399719	1310.477051	2237.923584	1523.131470	22.929022
809.707825	1305.127319	2233.242432	1519.342163	23.080633
810.015930	1298.662964	2214.295166	1511.837524	23.281681
810.323975	1290.118164	2208.722900	1514.661133	24.443916
810.632080	1291.901367	2193.565186	1524.691895	25.817884
810.939880	1291.455566	2193.044922	1525.954956	26.009556
811.247864	1295.096313	2179.224365	1526.920898	26.220703
811.555664	1295.467896	2176.177979	1523.354370	25.875311
811.863464	1298.811523	2169.862305	1527.589722	26.264622
812.171143	1301.189331	2163.769531	1520.530884	25.428539
812.478882	1302.155151	2164.809814	1514.066528	24.565029
812.786438	1303.938477	2165.924561	1509.014038	23.791052
813.094055	1301.783691	2172.685791	1519.119141	24.955210
813.401489	1296.359619	2172.983154	1516.592896	25.122902
813.708984	1295.542358	2164.884277	1520.382324	25.863237
814.016357	1295.319336	2155.076416	1511.985962	25.200912
814.323730	1296.731079	2138.135498	1512.654907	25.662312
814.630981	1297.994263	2137.986572	1505.150269	24.661655
814.938232	1301.783691	2136.946289	1502.549438	24.039122
815.245361	1302.006470	2129.887451	1504.555664	24.465981
815.552490	1293.684692	2124.092041	1506.636230	25.644226
815.859619	1293.610474	2132.933838	1512.654785	26.097727
816.166565	1299.851929	2139.472412	1513.546509	25.451330
816.473572	1309.288208	2139.695557	1511.763062	24.382595
816.780457	1310.476929	2131.893799	1510.202759	24.314795
817.087341	1314.192139	2140.438477	1518.673218	24.748198
817.394043	1311.071411	2149.652100	1529.670044	26.067692
817.700806	1304.161255	2150.989258	1533.459595	27.077322
818.007507	1294.873535	2151.955322	1529.521484	27.377544
818.314209	1296.359497	2152.178467	1524.914673	26.706018
818.620667	1298.514282	2166.295898	1519.787720	25.498747
818.927246	1296.879639	2183.088135	1526.178101	25.874100
819.233704	1298.514282	2220.611084	1536.877563	25.850136
819.540161	1301.114868	2263.186523	1558.499634	26.753180
819.846497	1302.526733	2330.504883	1567.267212	25.753511
820.152832	1299.405884	2405.327881	1589.260864	26.209351
820.458984	1297.474121	2488.769775	1613.186523	26.501600
820.765259	1300.520508	2584.917236	1640.529785	26.472294
821.071350	1306.390503	2691.318848	1664.158081	25.832932
821.377502	1307.727783	2864.369873	1700.417603	25.226725
821.683472	1307.281982	3196.948975	1784.379883	25.247725
821.989441	1308.842407	3840.335938	1946.434082	25.186382
822.295349	1308.693848	4899.446777	2192.822021	24.622362
822.601196	1309.065430	6195.286621	2500.880859	24.391352
822.907043	1299.703247	7383.609863	2785.980469	24.429651
823.212769	1301.560913	8059.318848	2968.764893	24.670963
823.518494	1304.532837	8059.689941	2982.659912	24.842161
823.824097	1308.099487	7471.287109	2839.626953	24.849600
824.129700	1303.418335	6526.082031	2612.855225	25.072205
824.435242	1291.604248	5549.075684	2368.250732	25.288401
824.740723	1288.632080	4726.693359	2166.816162	25.543003
825.046082	1294.650513	4120.977539	2011.969116	25.379887
825.351501	1305.795898	3688.832764	1910.768921	25.386641
825.656799	1303.418335	3396.749023	1842.335938	25.744505
825.962036	1299.257324	3225.481201	1802.881226	26.145658
826.267212	1291.752808	3147.612061	1782.225098	26.428312
826.572449	1297.028198	3159.871826	1777.915527	25.814692
826.877502	1298.291382	3299.337891	1800.206421	25.082628
827.182495	1309.734131	3570.617188	1873.840332	24.950703
827.487488	1306.984985	3913.969971	1964.415161	25.218029
827.792419	1302.823853	4204.791016	2039.386719	25.381502
828.097290	1296.136719	4306.214355	2062.643555	25.464687
828.402100	1297.771362	4182.648438	2035.894653	25.585955
828.706848	1305.275879	3897.697998	1971.920044	25.715109
829.011597	1301.932251	3524.846924	1877.629883	25.898325
829.316223	1304.607300	3176.367188	1779.773071	25.386044
829.620789	1302.080933	2860.803467	1702.201050	25.669746
829.925354	1307.653564	2643.616455	1643.353149	25.127913
830.229797	1305.053101	2488.249268	1612.889160	26.017330
830.534302	1302.155151	2384.820313	1577.669556	25.447794
830.838562	1295.839478	2308.214111	1559.242554	26.018341
831.142944	1299.628906	2245.577148	1539.923828	25.402544
831.447144	1299.777466	2216.747559	1529.075684	25.006073
831.751404	1305.498901	2191.335938	1519.713501	24.182167
832.055542	1302.972534	2184.351318	1513.323608	23.866138
832.359619	1297.920044	2190.072754	1527.663940	25.751633
832.663635	1295.988159	2217.713379	1535.094238	25.941145
832.967651	1295.096558	2268.239258	1551.217896	26.318991
833.271545	1297.994263	2358.442627	1570.982422	25.742712
833.575439	1305.201660	2516.855957	1617.198730	25.749678
833.879211	1303.343994	2742.439453	1673.594360	25.727993
834.183044	1310.477051	2987.638428	1724.640259	24.694296
834.486694	1304.978638	3179.561768	1757.705078	24.150780
834.790344	1314.118042	3242.719482	1768.181763	23.543678
835.093933	1306.984985	3161.580811	1752.281128	24.010414
835.397522	1311.220215	2991.798828	1712.529175	23.879213
835.700928	1309.659790	2796.977295	1670.845337	24.284361
836.004395	1311.220093	2613.301025	1630.053101	24.486420
836.307739	1304.309937	2455.259033	1587.329102	24.590069
836.611023	1302.303711	2330.727783	1559.391235	24.998201
836.914307	1304.681519	2233.242432	1536.951782	25.014004
837.217529	1304.309937	2160.500000	1524.691772	25.739826
837.520691	1299.406128	2098.828857	1505.818970	25.820236
837.823730	1293.907593	2056.550781	1488.060669	25.457918
838.126831	1296.062378	2018.284790	1481.670532	25.699583
838.429749	1300.817749	1991.238647	1478.104004	25.677996
838.732727	1302.972534	1968.576294	1479.367188	26.501451
839.035522	1303.789917	1949.852051	1468.444702	25.485905
839.338379	1301.263550	1932.688110	1458.859741	24.958832
839.641113	1299.554565	1933.059570	1453.509766	24.302128
839.943848	1301.635132	1967.610352	1461.608887	24.020977
840.246460	1300.297485	2026.161011	1469.187622	23.267479
840.549072	1305.573120	2085.231689	1486.500366	23.205959
840.851563	1303.269653	2117.032959	1504.407227	24.716963
841.154053	1305.052979	2116.587158	1504.481445	24.574253
841.456482	1302.452393	2082.556641	1496.679688	24.897608
841.758850	1301.040649	2028.612915	1480.258789	24.632349
842.061157	1299.405884	1975.114868	1477.360962	26.336054
842.363403	1304.309937	1924.068848	1463.243530	25.644423
842.665588	1295.690796	1883.499634	1451.503540	26.507383
842.967712	1294.130493	1843.673462	1437.460449	26.081665
843.269775	1292.867310	1815.735718	1428.989868	26.033808
843.571777	1297.325562	1802.063965	1416.358521	23.583099
843.873840	1301.040649	1792.553101	1417.695923	23.733940
844.175659	1302.006470	1782.002075	1412.346069	22.987627
844.477600	1303.121094	1762.832031	1418.290405	25.052549
844.779297	1307.505005	1752.726929	1409.448364	22.897202
845.081116	1308.693726	1741.804565	1401.349243	21.393026
845.382751	1310.922852	1737.197754	1398.674438	20.585680
845.684387	1305.201538	1726.721069	1401.423462	22.827394
845.985962	1301.932251	1722.634399	1406.253296	24.796888
846.287537	1299.926147	1712.826294	1401.943726	24.707567
846.588989	1300.149048	1700.640625	1396.593872	24.081612
846.890381	1291.529907	1691.873047	1389.906738	24.573128
847.191711	1296.433960	1685.780151	1391.021118	24.293844
847.493042	1295.468018	1681.693359	1390.946899	24.721029
847.794250	1300.000366	1677.978394	1396.073853	25.417744
848.095459	1300.074707	1677.012329	1395.702271	25.369598
848.396606	1303.789795	1673.891602	1389.906738	23.268448
848.697693	1316.792725	1668.541870	1388.420776	20.363390
848.998657	1314.860962	1663.712280	1386.934692	20.660301
849.299622	1319.021851	1668.690430	1390.203979	20.357027
849.600464	1313.523560	1672.479980	1386.340210	20.285652
849.901367	1310.848633	1675.229126	1386.265747	20.697351
850.202087	1300.297607	1663.340698	1381.956177	22.492804
850.502808	1289.746582	1652.715454	1385.225586	26.305012
850.803467	1295.244995	1643.799194	1384.854126	25.708809
851.104065	1303.789795	1644.690796	1389.758179	25.217991
851.404663	1307.207642	1640.901245	1388.123413	24.248524
851.705139	1298.439941	1640.901367	1383.516602	24.842699
852.005615	1296.285278	1631.910645	1380.098755	24.972330
852.306030	1293.758911	1635.625610	1382.104980	25.842257
852.606384	1295.913696	1629.681519	1388.494995	27.738234
852.906616	1290.563965	1634.511230	1387.083130	28.062199
853.206909	1298.811523	1637.929199	1381.213257	24.298861
853.506958	1305.052979	1636.517456	1376.458008	21.542288
853.807129	1308.025024	1638.077759	1370.587891	18.955416
854.107178	1304.978638	1631.390503	1378.241211	22.444826
854.407166	1299.703125	1634.882813	1368.061646	20.394588
854.707092	1295.765015	1622.919922	1364.569458	21.031151
855.007019	1297.919800	1618.759155	1356.173218	18.156569
855.306763	1299.480225	1610.660034	1364.569336	20.916882
855.606567	1307.282104	1613.483398	1377.498047	22.931301
855.906250	1305.424438	1612.591919	1379.875854	24.238052
856.205933	1302.749634	1610.065552	1383.516602	26.281414
856.505493	1300.371948	1614.300903	1384.110962	26.674511
856.805054	1304.087036	1613.260742	1385.745728	26.411913
857.104492	1301.486450	1613.557983	1375.343384	23.666668
857.403931	1297.548462	1609.619995	1371.182251	23.595163
857.703308	1289.969604	1602.338257	1364.866699	23.977148
858.002563	1289.077881	1605.013062	1372.445679	26.387627
858.301819	1289.449463	1601.297852	1370.142090	25.875595
858.601013	1288.186401	1606.499023	1375.491821	27.427570
858.900208	1297.399902	1601.743774	1374.897583	25.463854
859.199219	1297.102661	1605.458984	1374.303101	25.036114
859.498291	1301.932251	1602.041016	1371.925415	23.322599
859.797302	1302.229492	1600.257690	1367.169922	21.790030
860.096191	1307.579224	1603.378418	1371.256714	21.527269
860.395020	1300.966309	1605.310181	1375.789185	24.584978
860.693787	1293.610352	1603.601196	1372.371216	25.407480
860.992554	1288.334839	1593.124634	1369.696289	26.694283
861.291260	1296.656860	1594.313477	1360.928589	21.592575
861.589844	1303.269653	1598.325806	1369.399048	22.412477
861.888428	1304.309937	1593.867676	1369.324829	22.453171
862.186890	1306.464722	1593.867676	1377.721069	24.793186
862.485413	1304.532837	1594.239258	1370.142212	22.646849
862.783813	1306.241821	1599.737671	1367.838867	20.987366
863.082153	1300.817749	1592.530151	1360.780029	20.555273
863.380371	1297.771362	1597.359863	1370.959473	24.429546
863.678589	1293.090210	1601.372192	1368.210327	24.367340
863.976746	1302.675293	1599.663208	1373.040039	23.692799
864.274902	1309.734009	1589.038086	1370.810913	21.867531
864.572937	1308.693726	1579.675781	1379.801636	26.240818
864.870911	1303.864136	1585.620117	1380.024414	27.030581
865.168884	1297.325439	1592.158691	1375.937866	26.663351
865.466736	1300.743286	1598.325806	1366.055542	21.947611
865.764587	1291.901367	1594.016235	1362.711914	23.438286
866.062317	1297.474121	1585.174194	1360.334351	21.849222
866.360107	1300.446289	1574.697632	1371.925415	26.063364
866.657715	1306.018921	1573.954468	1368.433105	23.294477
866.955322	1307.059204	1578.115601	1374.228882	24.780703
867.252808	1298.960205	1586.883301	1367.170044	23.690298
867.550293	1300.149048	1590.152466	1370.439453	24.237785
867.847717	1288.260620	1583.688110	1368.136108	27.037256
868.145081	1294.650757	1578.115601	1366.650024	25.399717
868.442383	1288.260620	1575.291992	1364.346558	26.507881
868.739624	1294.353394	1578.635620	1364.272339	24.594906
869.036804	1297.251221	1576.480835	1367.987427	25.332630
869.333984	1297.325562	1573.508789	1372.668579	27.280085
869.631042	1307.356445	1578.041138	1371.479614	23.689249
869.928101	1303.938477	1583.762573	1366.724243	22.437584
870.224976	1312.854858	1583.316772	1366.501465	19.835180
870.521851	1303.492676	1584.208374	1366.872925	22.578093
870.818726	1303.344116	1585.322876	1371.851196	24.295120
871.115479	1293.758911	1585.322876	1368.061646	25.484198
871.412231	1296.359497	1573.508789	1369.770630	26.487938
871.708862	1304.235596	1570.165161	1365.312500	22.967323
872.005493	1314.489380	1575.440796	1365.460938	19.532969
872.302063	1315.529663	1579.378784	1363.083374	18.023069
872.598572	1312.037598	1579.824585	1358.773804	17.452755
872.895020	1299.926147	1581.607788	1363.975098	22.738064
873.191406	1297.176880	1585.991577	1362.711914	22.691032
873.487671	1292.792969	1587.180298	1370.439453	26.375620
873.783997	1293.907593	1578.561401	1370.513672	26.912016
874.080200	1296.805298	1579.452759	1369.770630	25.814960
874.376343	1292.718750	1572.839844	1365.684082	26.047783
874.672424	1300.594727	1573.285767	1364.866699	23.569521
874.968445	1295.988037	1567.044312	1373.263062	28.508850
875.264465	1298.885864	1567.415894	1373.040039	27.614853
875.560364	1300.892090	1564.666626	1368.136108	25.492990
875.856201	1303.195313	1566.895874	1359.962646	21.527195
876.152039	1311.591553	1568.530396	1365.535278	20.994772
876.447754	1308.099243	1571.056641	1364.866699	21.588081
876.743469	1311.071411	1572.691406	1372.519897	23.487688
877.039063	1308.247925	1573.434448	1369.473511	23.087744
877.334595	1303.641235	1569.199219	1375.194702	26.944574
877.630127	1301.858032	1566.152832	1361.225830	22.462719
877.925537	1302.601074	1561.917603	1358.179321	21.432589
878.221008	1306.241821	1567.861694	1358.105103	19.823908
878.516296	1300.892090	1577.521118	1364.420776	22.965300
878.811646	1292.867310	1599.588867	1378.018188	27.761621
879.106812	1290.638306	1622.102539	1384.259766	28.244816
879.401978	1293.907593	1641.941528	1387.083130	26.771969
879.697083	1294.650635	1672.256958	1385.002808	23.927610
879.992126	1293.387573	1695.216797	1386.860352	23.261816
880.287109	1291.604370	1741.358521	1402.835327	24.731503
880.582031	1291.009766	1802.807007	1419.330566	25.072586
880.876892	1293.981934	1951.709595	1450.240601	23.757351
881.171753	1298.514282	2200.846680	1507.082031	23.114292
881.466492	1304.012817	2617.164795	1601.297852	22.639042
881.761230	1311.443115	3129.110596	1736.603027	23.390411
882.055786	1311.517456	3643.953857	1874.137573	24.121561
882.350403	1306.539063	3943.542725	1961.963257	24.854883
882.644958	1293.164551	3970.440186	1972.291504	25.366344
882.939453	1284.248169	3723.531982	1905.270508	25.459209
883.233826	1293.015869	3361.306641	1817.370239	25.352062
883.528137	1297.845581	2988.455811	1718.993530	24.911001
883.822449	1307.356323	2664.421387	1658.585449	25.881525
884.116577	1300.149048	2406.219482	1592.307495	26.414091
884.410828	1303.418335	2205.230225	1542.450195	26.505733
884.704956	1304.755737	2059.745605	1494.525024	25.135342
884.999023	1306.241821	1952.749878	1469.113403	25.192507
885.292969	1303.789917	1869.530762	1457.893677	27.239285
885.586914	1301.040649	1819.079224	1440.432617	26.907642
885.880798	1304.087036	1781.259155	1431.813477	26.767372
886.174622	1304.012817	1753.841431	1417.844604	25.305590
886.468384	1305.647461	1726.200806	1404.990234	23.621920
886.762085	1299.257446	1709.779907	1404.692993	25.683258
887.055664	1301.709351	1697.074219	1400.754883	25.051678
887.349304	1301.560791	1683.625366	1398.748657	25.437550
887.642822	1301.858032	1661.854614	1385.745728	23.302359
887.936340	1301.635010	1638.151978	1379.207031	23.051445
888.229736	1299.703125	1624.108887	1373.114258	22.629417
888.523071	1302.006470	1605.904663	1359.368286	18.875340
888.816284	1299.480347	1597.656860	1360.779907	20.558146
889.109619	1301.040649	1578.635620	1363.380615	22.457167
889.402710	1298.662964	1570.833862	1369.250488	25.935001
889.695862	1301.709351	1561.620239	1363.677856	23.842213
889.988892	1301.635132	1558.202515	1358.625366	22.212580
890.281921	1307.133423	1556.344971	1352.606812	18.246902
>>>>>End Processed Spectral Data<<<<<
