Jaz Data File
++++++++++++++++++++++++++++++++++++
Date: Fri Jun 04 13:37:50 2021
User: jaz
Dark Spectrum Present: Yes
Reference Spectrum Present: Yes
Processed Spectrum Present: Yes
Spectrometers: JAZA3586
Integration Time (usec): 30700 (JAZA3586)
Spectra Averaged: 10 (JAZA3586)
Boxcar Smoothing: 1 (JAZA3586)
Correct for Electrical Dark: No (JAZA3586)
Strobe/Lamp Enabled: Yes (JAZA3586)
Correct for Detector Non-linearity: No (JAZA3586)
Correct for Stray Light: No (JAZA3586)
Number of Pixels in Processed Spectrum: 2048
>>>>>Begin Processed Spectral Data<<<<<
W	D	R	S	P
191.335022	0.000000	0.000000	0.000000	0.000000
191.713211	290.375031	294.164459	300.182983	258.824036
192.091385	586.397034	587.808777	592.935730	463.164734
192.469528	886.431458	888.140381	891.186829	278.267090
192.847641	899.657288	900.549011	891.781250	-883.237488
193.225739	907.161926	913.180420	907.384827	3.703591
193.603790	918.233093	923.137024	920.610657	48.482811
193.981842	924.771729	924.102966	935.471252	-1599.899658
194.359863	931.310242	928.486816	939.409363	-286.854462
194.737854	934.653809	925.366150	947.359680	-136.803818
195.115829	935.174011	929.155518	942.455627	-120.987350
195.493774	934.951111	928.561096	941.638367	-104.651649
195.871704	940.003723	937.700378	932.796326	312.910065
196.249603	938.814880	935.991394	933.539368	186.843933
196.627457	935.025391	938.889160	935.396912	9.615506
197.005310	920.982178	929.972900	931.607605	118.182129
197.383133	924.548767	937.551758	926.852234	17.714899
197.760910	929.972839	945.502136	923.062683	-44.497547
198.138687	931.756165	951.372070	928.115234	-18.561111
198.516449	930.195801	942.307129	930.418640	1.839925
198.894180	923.359863	927.223694	929.229797	151.920074
199.271866	918.010193	920.759338	926.480652	308.112427
199.649536	919.273254	924.548828	929.824219	199.996536
200.027191	918.976074	921.428040	930.790222	481.823608
200.404816	923.805725	929.304016	935.248352	208.112427
200.782410	924.177246	933.687988	929.750000	58.594311
201.159988	923.582764	952.189270	929.675598	21.298771
201.537537	923.731445	956.944763	930.121399	19.239130
201.915070	915.632385	959.916809	935.025391	43.791935
202.292557	918.010071	958.579407	929.972839	29.487219
202.670029	919.793457	961.402893	925.291809	13.214195
203.047485	918.530273	956.944641	923.285645	12.379148
203.424911	913.403320	959.619629	927.000732	29.421242
203.802292	911.917297	958.505066	923.211243	24.242298
204.179688	908.647949	966.529785	922.765442	24.390196
204.557037	911.397217	959.619629	925.588928	29.429701
204.934357	906.641785	962.443115	921.056458	25.832130
205.311661	908.722351	953.303894	915.855286	15.999748
205.688934	910.654114	957.687744	909.762512	-1.895668
206.066177	911.397156	956.870422	911.248596	-0.326696
206.443390	906.418945	960.288330	916.078308	17.931080
206.820587	905.304382	957.984924	923.285645	34.132645
207.197769	904.932861	956.573242	929.155518	46.906425
207.574921	910.059753	965.638184	926.109131	28.876989
207.952042	908.350769	968.610291	919.050354	17.755840
208.329147	904.412781	961.477234	917.490051	22.916666
208.706223	918.233093	968.164490	928.486816	20.535624
209.083267	914.666504	964.226379	932.201965	35.382378
209.460297	920.164856	964.375000	935.619873	34.958080
209.837280	904.784363	950.108887	928.115295	51.475296
210.214264	907.830750	954.492737	926.332031	39.649578
210.591217	904.858582	955.161438	924.548767	39.143276
210.968124	904.709961	961.625793	918.158691	23.629156
211.345016	901.514893	961.848694	917.192688	25.985094
211.721893	901.737793	969.056152	917.935791	24.061783
212.098724	902.778076	963.409119	914.815125	19.852947
212.475555	905.378723	967.941589	917.712891	19.714838
212.852356	903.223938	969.947754	909.985413	10.133525
213.229126	908.425110	969.056152	911.694336	5.392000
213.605865	907.682068	963.037598	904.561279	-5.637718
213.982590	908.870911	955.310059	900.325989	-18.400255
214.359283	904.561340	954.789978	904.635559	0.147762
214.735931	907.087646	952.783752	910.728333	7.967169
215.112579	912.214539	956.350281	922.914063	24.242311
215.489197	902.406555	959.693909	921.576599	33.462959
215.865799	899.508789	964.895203	922.171082	34.659023
216.242355	891.632629	965.415283	916.003906	33.031174
216.618896	894.010315	957.464844	922.394043	44.730816
216.995407	896.239441	954.269836	922.096741	44.558201
217.371902	899.954529	948.919983	926.777832	54.780056
217.748367	901.886414	949.811707	922.096741	42.170483
218.124802	895.942200	947.359680	913.923523	34.971226
218.501236	895.645020	954.566956	912.214539	28.121138
218.877609	905.527344	964.226379	914.294922	14.936494
219.253983	911.620117	975.371826	917.564270	9.323912
219.630295	911.620117	978.789734	919.793396	12.168118
220.006592	906.344543	971.136536	913.700500	11.353189
220.382889	901.291992	971.582336	912.808838	16.384676
220.759140	905.081482	967.198547	909.390930	6.937624
221.135391	903.372559	971.136536	914.443604	16.337656
221.511581	909.242432	961.997314	918.455994	17.464851
221.887772	907.236267	960.808411	920.536438	24.826654
222.263931	913.774902	963.409119	921.205139	14.969989
222.640060	912.065918	968.090149	917.638489	9.946715
223.016159	910.951416	971.210754	913.477600	4.192187
223.392212	906.790344	971.730957	914.072021	11.212825
223.768265	902.778015	978.566833	924.994629	29.313841
224.144302	906.567444	982.876404	926.926453	26.679708
224.520294	910.579834	988.300476	924.771667	18.260057
224.896286	907.459167	985.551270	920.164856	16.270132
225.272217	904.487061	988.151855	917.490051	15.541771
225.648148	901.143372	988.671936	915.112305	15.959285
226.024048	908.350769	988.077637	909.168152	1.025229
226.399902	910.059753	987.408875	915.632507	7.204677
226.775772	905.527344	995.359314	917.712891	13.564822
227.151581	902.852356	1007.024719	923.508606	19.828917
227.527374	894.902039	1014.380676	928.412537	28.047272
227.903137	896.165039	1030.504395	928.486816	24.059797
228.278870	898.988586	1044.919067	928.635315	20.315651
228.654572	896.016418	1060.299683	921.873840	15.739535
229.030273	893.415833	1062.454468	922.022461	16.923130
229.405930	895.793518	1063.569214	915.929688	12.001840
229.781555	903.892578	1068.398804	913.403320	5.781387
230.157181	913.997742	1072.931274	915.038025	0.654540
230.532761	913.849121	1073.599976	913.180420	-0.418590
230.908325	915.409485	1064.312134	916.598328	0.798403
231.283859	911.471497	1056.658813	920.610657	6.294737
231.659332	911.694397	1052.052124	924.623108	9.211257
232.034821	903.892578	1049.377319	929.898621	17.875443
232.410263	898.096985	1045.439331	923.434265	17.196198
232.785690	888.883484	1039.643677	926.257751	24.790541
233.161087	889.329285	1041.947144	915.855408	17.380747
233.536469	900.846191	1047.148193	917.118469	11.122389
233.911804	901.143372	1060.522827	917.415710	10.209809
234.287140	901.886414	1064.535034	917.415710	9.547758
234.662430	892.152771	1061.414429	914.072083	12.949957
235.037704	898.394226	1063.569214	909.911133	6.972549
235.412933	906.938965	1061.785889	909.836853	1.871454
235.788162	906.938965	1067.878540	913.997803	4.386017
236.163345	908.796570	1060.745605	916.003967	4.743299
236.538513	901.069153	1064.312134	919.124695	11.060532
236.913635	895.867920	1073.377197	914.146423	10.297210
237.288742	892.524353	1080.138672	916.078308	12.554455
237.663834	895.570740	1092.250000	918.976074	11.900255
238.038879	900.251770	1087.866089	923.508484	12.396023
238.413910	903.818298	1096.039429	917.118469	6.919203
238.788910	905.155701	1097.971313	918.901794	7.129139
239.163879	907.384766	1111.345825	916.375488	4.408059
239.538834	905.898743	1119.147461	920.759338	6.968668
239.913757	906.047363	1138.763550	920.982178	6.417609
240.288651	909.539551	1160.014038	924.623047	6.021969
240.663528	906.121643	1188.323364	923.731445	6.240147
241.038361	900.400391	1210.094116	924.994629	7.941471
241.413177	897.279602	1237.734741	930.492920	9.755564
241.787979	901.514893	1268.644653	936.139954	9.431287
242.162735	907.904968	1314.638062	931.904724	5.900616
242.537476	909.019470	1344.582031	928.041016	4.367121
242.912170	906.938965	1363.380493	934.356750	6.006856
243.286865	903.521057	1361.745850	945.799316	9.226533
243.661514	903.372498	1346.811035	948.548523	10.187663
244.036148	910.134033	1335.591309	949.440125	9.238552
244.410751	911.991638	1318.427368	948.845703	9.067624
244.785339	908.127930	1327.863892	945.427734	8.886493
245.159882	905.675964	1339.157959	937.477356	7.336266
245.534378	906.641846	1374.600220	940.003723	7.129241
245.908890	908.870850	1432.853638	949.217285	7.699955
246.283356	909.242371	1516.518555	955.310059	7.585953
246.657791	908.053528	1598.623047	954.938538	6.789325
247.032196	910.282654	1666.907227	953.081055	5.656491
247.406586	909.019531	1703.761353	957.093323	6.048982
247.780960	909.985413	1715.204102	953.378235	5.388949
248.155289	910.505554	1695.513794	953.229675	5.442506
248.529602	906.195984	1655.018677	952.040833	6.122257
248.903870	905.898743	1599.588989	953.303955	6.833772
249.278122	910.728455	1532.493652	957.093323	7.456974
249.652344	910.282532	1478.624023	958.133545	8.419413
250.026550	914.517883	1438.946411	954.195557	7.565887
250.400711	908.945129	1419.033325	948.177002	7.691194
250.774857	910.431213	1411.454468	940.895325	6.080379
251.148987	905.304382	1426.017944	944.090393	7.448627
251.523071	902.257996	1457.224976	942.975830	7.336983
251.897125	899.805969	1495.490845	944.610535	7.521522
252.271164	896.313782	1516.741577	945.725037	7.964062
252.645187	899.360168	1517.484497	950.703308	8.306280
253.019165	906.790466	1494.822266	962.294617	9.438971
253.393112	907.904968	1476.469360	962.220215	9.553051
253.767044	903.372498	1455.664551	959.322449	10.130501
254.140930	894.976257	1439.243774	950.554688	10.211601
254.514801	902.852356	1423.268555	947.954041	8.666465
254.888657	908.499329	1417.844604	948.251282	7.804520
255.262466	909.539551	1426.835083	951.520691	8.115504
255.636276	903.149597	1434.934204	950.331848	8.872437
256.010010	904.858582	1458.636719	963.409119	10.572924
256.383759	909.539551	1485.608765	969.501953	10.408889
256.757446	915.335205	1529.595825	970.467773	8.975436
257.131134	907.830750	1568.827759	960.957031	8.037295
257.504791	910.356934	1631.464844	950.926270	5.625973
257.878418	908.053528	1711.117554	962.443176	6.772766
258.252014	911.248596	1809.196899	968.610352	6.388091
258.625580	909.019531	1926.372437	981.538879	7.128239
258.999115	901.886414	2067.621826	989.415039	7.508447
259.372650	904.932800	2236.586182	995.062012	6.768219
259.746124	900.549011	2375.755127	1003.606873	6.985998
260.119598	897.799805	2457.636719	1006.876160	6.992805
260.493042	900.697571	2459.940186	1009.476807	6.976415
260.866425	902.332275	2388.312256	1000.337585	6.595332
261.239838	908.870911	2272.251709	990.306641	5.973073
261.613159	900.697571	2137.837891	984.139465	6.744740
261.986511	903.966980	2037.157715	981.687500	6.858556
262.359802	900.697571	1970.285156	968.981689	6.384154
262.733063	897.502625	1942.718872	969.501953	6.888462
263.106293	896.239441	1929.864624	962.294617	6.390631
263.479523	907.682129	1914.038086	970.022034	6.194618
263.852692	912.957581	1896.279663	966.232605	5.417861
264.225861	911.917297	1879.487305	966.009583	5.590529
264.598969	900.697571	1885.728882	969.873352	7.022699
264.972076	894.010315	1907.573853	967.272766	7.228205
265.345154	901.143372	1958.173828	973.885742	6.881766
265.718201	903.149597	2023.040161	966.826965	5.686035
266.091217	913.031921	2088.054932	970.021973	4.850122
266.464203	906.270325	2145.565430	969.799133	5.126205
266.837158	908.276428	2190.146973	983.842346	5.894972
267.210114	903.818298	2228.784424	984.734070	6.107007
267.583038	908.647949	2253.155762	988.969238	5.974029
267.955902	911.397156	2267.644775	979.904297	5.051227
268.328766	912.511719	2270.022461	975.000305	4.603174
268.701569	906.716125	2277.526855	970.839355	4.677759
269.074371	906.939026	2296.399658	971.062317	4.614977
269.447144	910.505554	2342.541992	984.139648	5.141915
269.819885	911.620117	2416.101563	990.083801	5.215331
270.192596	911.843018	2523.320313	991.346863	4.933600
270.565277	907.384766	2670.588135	991.569763	4.774549
270.937927	908.202148	2812.358154	989.043457	4.245519
271.310577	904.041199	2922.845947	1004.275574	4.965036
271.683136	904.784180	2979.093018	1004.498474	4.807109
272.055725	901.589172	2992.021729	1015.643860	5.456033
272.428284	901.663513	2964.827148	1012.077393	5.351678
272.800812	901.737793	2915.787354	1009.031006	5.327238
273.173279	901.886414	2842.376221	999.148743	5.012257
273.545776	900.994812	2804.555908	999.074402	5.152427
273.918152	901.514893	2764.803955	997.811218	5.168083
274.290558	904.487000	2763.021240	999.891785	5.133335
274.662964	905.452942	2738.798096	998.034180	5.049853
275.035278	902.555176	2755.516357	999.297363	5.220951
275.407593	907.236267	2785.460205	1003.532532	5.126986
275.779907	906.195984	2853.150391	1005.761658	5.113919
276.152161	907.384766	2912.963867	1015.718262	5.401607
276.524384	897.056702	2960.666260	1013.117676	5.624173
276.896606	899.285828	2994.325439	1011.557312	5.358920
277.268799	900.474670	2998.635010	1009.625488	5.202215
277.640930	901.217773	3007.253906	1012.374573	5.278010
278.013031	904.561340	3017.210693	1002.195129	4.621391
278.385162	903.818298	3042.399170	989.860840	4.023348
278.757233	901.069092	3051.984375	988.746277	4.076273
279.129272	899.954590	3071.748779	1000.188904	4.615277
279.501282	899.731628	3105.705078	1010.739929	5.032169
279.873230	905.378662	3175.475342	1013.414795	4.759099
280.245178	911.025696	3283.883057	1017.872864	4.502891
280.617126	917.341370	3417.182373	1022.479675	4.205800
280.988983	918.233093	3555.756836	1026.120605	4.090485
281.360870	914.369324	3686.306641	1031.396118	4.221841
281.732697	912.660339	3783.643311	1030.652954	4.109833
282.104492	911.917236	3835.803711	1028.646851	3.992276
282.476288	914.146423	3831.196533	1022.256836	3.706156
282.848053	912.214539	3815.964844	1027.978149	3.986693
283.219757	911.620117	3812.769775	1028.275391	4.021001
283.591461	909.985413	3805.191406	1030.430054	4.160141
283.963135	907.830750	3818.119873	1022.628357	3.944543
284.334747	907.087646	3878.601807	1017.204163	3.705738
284.706360	900.771912	3982.997314	1018.095886	3.806470
285.077942	897.651123	4096.309082	1025.526123	3.997770
285.449524	901.737793	4188.444336	1037.934692	4.143872
285.821014	900.177429	4207.986328	1036.894531	4.133162
286.192535	903.075256	4252.790527	1043.061646	4.179053
286.563995	896.536621	4252.790527	1041.872681	4.330306
286.935425	898.691406	4246.771973	1049.154419	4.494008
287.306824	905.007080	4154.339355	1038.232056	4.100072
287.678223	912.957520	4069.114258	1031.247437	3.747910
288.049561	915.781006	4006.625244	1028.126831	3.634794
288.420898	910.654114	3983.368408	1023.742859	3.680418
288.792145	913.626282	4018.959717	1033.550903	3.861892
289.163452	912.660339	4134.500488	1030.207153	3.648437
289.534668	912.808899	4292.839355	1037.414551	3.686524
289.905914	908.870911	4434.980957	1036.151367	3.609656
290.277039	914.220703	4534.249512	1046.256714	3.647375
290.648193	910.208313	4581.431641	1057.624878	4.015461
291.019318	903.743958	4572.960938	1061.860229	4.309265
291.390381	901.886414	4503.784668	1058.739502	4.354734
291.761475	905.007141	4411.426758	1054.652954	4.267767
292.132507	910.654236	4352.875977	1055.990356	4.222160
292.503510	901.143494	4340.616211	1056.510376	4.517171
292.874481	905.378662	4400.652832	1054.429810	4.264362
293.245422	907.236267	4506.088379	1059.333862	4.226281
293.616364	912.734680	4680.476563	1067.135620	4.097970
293.987213	910.208313	4840.153809	1079.841431	4.316424
294.358093	906.567566	4956.140137	1076.646362	4.199920
294.728943	908.202148	5062.838867	1072.262573	3.948851
295.099731	910.356873	5194.503418	1068.547485	3.692465
295.470490	910.133972	5331.814941	1073.674316	3.698601
295.841248	905.007141	5464.296875	1083.185059	3.908019
296.211975	903.298157	5576.196777	1086.603027	3.922723
296.582642	904.264099	5709.569824	1096.931152	4.009465
296.953308	904.412659	5781.643066	1094.033325	3.887876
297.323883	907.979187	5770.943848	1095.667847	3.859552
297.694519	902.183594	5639.873535	1083.407959	3.825163
298.065063	910.282532	5491.268066	1081.699097	3.741915
298.435608	903.743958	5310.118652	1071.370850	3.804191
298.806122	896.239319	5126.516113	1071.147949	4.134685
299.176575	900.325989	4927.979004	1066.912720	4.136075
299.547028	905.007141	4815.781738	1069.290527	4.200789
299.917450	913.106201	4759.460938	1065.203735	3.954329
300.287872	908.499329	4750.247559	1064.535156	4.061584
300.658234	905.081543	4722.829590	1064.237915	4.168855
301.028564	907.384827	4699.052246	1066.392700	4.193614
301.398865	906.047424	4647.337891	1060.597046	4.130918
301.769135	906.196045	4590.199219	1054.950073	4.037837
302.139374	905.452942	4539.079590	1057.922119	4.196061
302.509583	895.719299	4489.964844	1063.494751	4.667891
302.879791	897.428223	4420.417480	1065.500977	4.770743
303.249939	901.366272	4371.897949	1057.401978	4.496017
303.620087	911.471497	4335.117676	1050.491821	4.060593
303.990173	910.356934	4337.272949	1047.445435	4.000346
304.360260	910.579834	4326.201660	1043.210205	3.883052
304.730286	905.229980	4312.530273	1051.309204	4.287242
305.100281	898.914307	4302.053223	1057.699219	4.665837
305.470276	893.118652	4330.659668	1067.358521	5.068736
305.840179	894.456116	4362.906738	1065.203857	4.922882
306.210144	899.657410	4403.848145	1071.148071	4.893874
306.579987	904.338379	4423.314941	1069.587769	4.695951
306.949890	909.836914	4466.262207	1066.021118	4.391606
307.319702	908.573730	4555.722656	1071.519531	4.467758
307.689484	909.688232	4673.715332	1089.277832	4.771209
308.059265	916.152527	4802.630371	1114.317993	5.098845
308.429016	918.233093	4897.069336	1142.627319	5.639695
308.798737	920.313477	4971.595215	1178.961304	6.384346
309.168396	905.675842	5032.746582	1234.837036	7.975661
309.538055	902.406555	5069.823242	1280.384521	9.069839
309.907684	892.524231	5069.674805	1324.000244	10.329434
310.277313	897.131042	5084.312012	1369.622070	11.284227
310.646851	901.143372	5071.829590	1432.482300	12.739845
311.016388	907.830566	5064.473145	1498.908813	14.220088
311.385895	905.007141	4996.263184	1559.391235	15.994699
311.755371	905.675842	4930.431641	1614.523804	17.612198
312.124817	907.310547	4863.855957	1665.272583	19.157167
312.494232	911.322815	4804.934082	1705.619141	20.399990
312.863617	906.864746	4780.265625	1751.166626	21.797430
313.232971	900.251770	4804.339844	1807.190918	23.230499
313.602295	899.360168	4883.323730	1880.007446	24.614864
313.971619	895.645020	4987.792969	1944.056274	25.620071
314.340820	897.874023	5022.641113	1980.093262	26.237099
314.710083	899.360168	5028.213867	1987.969360	26.365894
315.079285	907.607727	4951.162109	1964.935547	26.148476
315.448486	911.620056	4873.218262	1938.037964	25.909189
315.817596	909.390930	4723.201172	1898.137329	25.925421
316.186707	904.784241	4579.054199	1858.534058	25.957533
316.555786	907.087585	4472.949219	1822.348511	25.667315
316.924866	912.808899	4415.884766	1824.874878	26.036146
317.293884	918.530273	4422.126465	1850.063477	26.587915
317.662872	914.443665	4445.605957	1907.871094	28.133156
318.031830	913.329102	4509.506348	1953.864624	28.934490
318.400757	911.248535	4545.097656	1991.981812	29.740730
318.769684	905.007141	4576.229980	2010.557251	30.113945
319.138550	903.521057	4565.084961	2008.922729	30.189329
319.507416	901.366272	4539.524902	1991.461426	29.962828
319.876190	906.195984	4483.797852	1985.963257	30.181316
320.244995	908.499329	4397.160645	1997.554321	31.216986
320.613770	908.425110	4349.161133	2042.581665	32.962612
320.982483	910.282654	4342.622559	2114.432373	35.082470
321.351166	902.629395	4394.634277	2213.329346	37.534309
321.719818	895.867920	4458.237793	2320.845459	40.000832
322.088440	894.084656	4582.694824	2437.872314	41.852825
322.457062	894.902039	4755.596680	2568.867920	43.359188
322.825623	903.372559	4959.111816	2712.123779	44.597324
323.194183	904.264099	5104.968262	2841.633057	46.120098
323.562653	898.914307	5203.567871	2952.121094	47.697380
323.931183	899.211487	5218.577637	3041.432861	49.595734
324.299591	894.827637	5180.014160	3121.308594	51.957623
324.668060	905.081482	5083.271973	3174.286377	54.310707
325.036407	905.378601	5012.535645	3222.955078	56.427750
325.404755	909.539551	4941.428223	3243.685303	57.892117
325.773102	906.939026	4882.208984	3255.945313	59.090485
326.141388	907.236267	4790.519531	3253.567627	60.421329
326.509674	902.852356	4685.604004	3210.323486	60.999805
326.877899	900.474670	4603.945313	3184.391602	61.669640
327.246124	900.474670	4542.645508	3159.649170	62.028240
327.614288	911.471497	4500.367676	3182.757080	63.286469
327.982422	914.517883	4485.135254	3208.391602	64.243057
328.350525	921.205261	4500.887207	3250.521240	65.070473
328.718628	916.449768	4556.763184	3315.907471	65.913490
329.086700	915.260925	4619.103027	3371.634521	66.319611
329.454712	905.898743	4683.448730	3423.125977	66.636505
329.822693	899.880188	4709.900879	3424.983643	66.275322
330.190674	897.205383	4747.201172	3460.277344	66.573372
330.558563	902.332275	4778.779785	3485.243164	66.630875
330.926483	909.168152	4874.184082	3563.558350	66.945259
331.294312	911.694336	4980.659668	3633.774414	66.898582
331.662231	908.796631	5100.212891	3725.315430	67.197311
332.029999	905.007141	5224.669922	3806.677002	67.173531
332.397766	905.304382	5300.087402	3880.236572	67.692352
332.765503	903.000977	5360.049805	3928.385010	67.878639
333.133240	901.069153	5365.548340	3947.926514	68.246651
333.500916	898.022705	5373.052734	3950.972656	68.221886
333.868561	901.663513	5352.248047	3937.672852	68.215965
334.236176	901.291992	5312.644531	3923.852539	68.517776
334.603790	907.310547	5261.227051	3896.286133	68.650276
334.971344	899.508789	5224.893066	3866.416260	68.592918
335.338867	907.607727	5211.741699	3843.828125	68.218613
335.706360	901.366394	5208.100098	3828.522217	67.966949
336.073853	906.939026	5227.122559	3856.906006	68.283371
336.441284	905.081482	5249.562012	3889.004639	68.683083
336.808655	909.093750	5300.904785	3917.239502	68.494423
337.176086	911.099915	5344.223145	3941.536377	68.358955
337.543396	906.493164	5387.393066	3967.096680	68.303322
337.910706	901.812073	5391.033691	3988.050049	68.747734
338.277954	905.007141	5373.646973	3979.504883	68.801651
338.645264	901.960754	5333.820801	3954.761963	68.883072
339.012421	905.824524	5286.415527	3911.592529	68.615585
339.379669	896.982422	5194.354980	3846.726318	68.640640
339.746796	903.669678	5091.520020	3769.079834	68.421974
340.113953	911.174316	5016.622559	3733.265625	68.740150
340.481018	920.908020	4996.560547	3739.210205	69.149719
340.848114	920.685059	4999.978516	3751.469971	69.393997
341.215118	908.945129	5054.888672	3796.572021	69.649452
341.582153	901.143372	5189.971191	3892.496826	69.747581
341.949066	897.948425	5395.046387	4015.616211	69.326210
342.316010	901.663574	5656.592285	4169.348633	68.722061
342.682922	907.459167	5954.248535	4337.421387	67.963249
343.049835	911.991516	6315.508301	4565.604980	67.615479
343.416656	922.171082	6640.434082	4744.674316	66.847275
343.783478	920.016296	6877.683105	4830.865723	65.643974
344.150269	921.725281	7011.873535	4800.847168	63.695030
344.516998	909.762512	7046.350098	4700.315918	61.769730
344.883728	908.202148	6956.294922	4548.887207	60.195587
345.250427	896.833801	6822.847656	4434.460938	59.696575
345.617065	898.171204	6636.718750	4339.724609	59.972553
345.983704	901.886414	6481.797363	4318.474121	61.230145
346.350281	911.917236	6311.273438	4326.870117	63.247406
346.716827	908.202148	6173.515625	4369.520020	65.738113
347.083405	903.000977	6074.321777	4410.089355	67.818039
347.449860	907.384766	6012.130371	4447.463379	69.348778
347.816376	913.031799	5989.468750	4458.534668	69.842354
348.182770	910.877014	6000.613281	4477.407227	70.072990
348.549194	907.533386	6034.644043	4494.942871	69.969414
348.915558	908.573547	6122.023926	4544.874512	69.748459
349.281921	903.298157	6216.982910	4600.230469	69.573799
349.648193	899.657410	6265.726074	4631.882813	69.552322
350.014526	896.759583	6291.137207	4664.130371	69.838844
350.380737	906.344666	6324.499512	4694.371094	69.913589
350.746948	903.669678	6398.652832	4720.600098	69.462090
351.113159	902.703796	6453.265625	4759.089355	69.477386
351.479309	903.372498	6514.119629	4808.797363	69.606148
351.845428	902.332275	6626.911621	4909.774902	70.004143
352.211517	903.075256	6792.382813	5006.294434	69.672356
352.577576	901.886414	6945.149902	5095.681152	69.396194
352.943604	905.527283	7079.488281	5192.051270	69.429077
353.309601	908.945251	7215.908691	5325.424316	70.025444
353.675537	914.592102	7386.730469	5485.917969	70.630844
354.041473	913.626221	7595.224609	5633.854980	70.645195
354.407379	905.824402	7738.703125	5707.488770	70.272934
354.773254	895.719238	7922.973145	5762.993652	69.262825
355.139038	892.672852	8086.438965	5814.410645	68.416702
355.504913	900.623291	8357.570313	5921.406738	67.330276
355.870636	899.583008	8640.663086	6008.638184	65.999252
356.236389	904.115540	8947.754883	6079.597168	64.342537
356.602081	901.737793	9233.822266	6141.045410	62.881119
356.967804	904.932861	9439.195313	6212.376465	62.189827
357.333405	905.601563	9567.739258	6289.354004	62.152699
357.699036	908.127869	9601.249023	6343.595215	62.526073
358.064606	907.682068	9555.180664	6408.758301	63.614651
358.430176	911.843018	9467.282227	6491.754395	65.220627
358.795654	905.230042	9493.584961	6656.855469	66.970055
359.161163	907.161926	9689.297852	6910.673340	68.360489
359.526581	892.598633	10130.209961	7297.790527	69.338181
359.892029	894.307556	10713.413086	7759.878906	69.920540
360.257416	896.165039	11358.062500	8233.187500	70.130898
360.622772	906.567444	11898.762695	8630.558594	70.267960
360.988098	904.561340	12227.254883	8877.540039	70.415916
361.353394	902.926697	12358.549805	8972.647461	70.443314
361.718658	901.960754	12152.878906	8823.448242	70.407478
362.083893	907.607666	11691.534180	8473.556641	70.159500
362.449097	911.545837	10964.257813	7938.354004	69.899628
362.814209	903.372498	10224.425781	7350.842285	69.171036
363.179382	903.000977	9558.079102	6780.644043	67.909760
363.544434	906.641846	9102.604492	6316.697266	66.008789
363.909546	916.004089	8818.692383	5963.833984	63.874847
364.274536	914.072083	8631.003906	5721.532715	62.297565
364.639587	902.852478	8471.699219	5521.955566	61.027832
365.004517	900.103210	8370.499023	5418.748535	60.487362
365.369507	898.840027	8314.102539	5365.399902	60.234684
365.734344	899.360168	8296.865234	5431.826172	61.270199
366.099274	898.171326	8259.936523	5530.351563	62.922142
366.464081	903.223877	8226.500000	5627.167969	64.505890
366.828918	899.731628	8176.419434	5680.814453	65.704109
367.193665	902.555176	8110.142090	5690.919922	66.435059
367.558411	896.462341	8027.740723	5725.768066	67.720055
367.923126	905.452942	7920.596191	5730.076660	68.774414
368.287781	903.446777	7855.729004	5746.869629	69.666664
368.652435	908.202148	7787.519531	5746.869629	70.336449
369.017059	910.579895	7809.066406	5785.210449	70.662315
369.381653	915.186707	7831.209473	5836.479004	71.157837
369.746185	914.666504	7922.156250	5903.722656	71.196053
370.110687	911.174255	8001.288574	5961.307129	71.227806
370.475220	912.808899	8131.838379	6005.666016	70.547668
370.839661	907.979248	8194.030273	6042.074219	70.464714
371.204041	904.784241	8245.745117	6067.857422	70.332390
371.568451	910.579834	8239.280273	6033.678223	69.904602
371.932770	913.997742	8242.698242	5978.025391	69.098579
372.297150	908.945129	8200.642578	5895.697754	68.389458
372.661377	898.840027	8212.976563	5856.392090	67.780418
373.025696	900.474670	8240.394531	5832.986816	67.201172
373.389862	909.019531	8314.548828	5848.292969	66.697105
373.754059	909.242371	8405.717773	5929.951660	66.974266
374.118225	910.356934	8545.036133	6053.145020	67.360893
374.482361	912.957520	8731.312500	6261.267090	68.407097
374.846436	917.638489	8981.860352	6511.072754	69.361115
375.210510	913.774841	9305.895508	6835.850098	70.567085
375.574524	914.072021	9663.960938	7147.252441	71.237259
375.938538	909.316711	10009.468750	7424.253906	71.591515
376.302460	909.688293	10289.144531	7622.716309	71.571609
376.666412	909.762512	10462.195313	7724.733887	71.342781
377.030304	910.728516	10455.805664	7727.705566	71.418777
377.394196	917.118591	10307.348633	7615.509277	71.333611
377.757996	912.214539	10042.236328	7438.074219	71.476936
378.121796	909.539612	9728.901367	7203.277344	71.362740
378.485565	903.446777	9407.467773	6972.270996	71.364166
378.849304	899.434509	9169.698242	6789.560059	71.220528
379.212982	898.765808	9020.275391	6657.895020	70.912056
379.576630	901.291992	8960.461914	6598.378906	70.690742
379.940277	914.889404	8925.539063	6584.038574	70.770157
380.303864	916.969910	8904.289063	6588.570801	71.007568
380.667450	922.319641	8917.737305	6612.199219	71.164253
381.030945	908.796570	8943.373047	6611.976074	70.982948
381.394501	914.666504	8976.139648	6684.421875	71.571976
381.757935	908.425049	9012.994141	6763.851074	72.248451
382.121399	916.524109	9084.101563	6864.531250	72.824623
382.484741	919.644836	9265.327148	6978.511719	72.598816
382.848145	919.867676	9479.764648	7088.777344	72.067574
383.211487	914.220703	9641.743164	7190.274902	71.911064
383.574768	902.778015	9722.882813	7247.115723	71.930420
383.938019	900.920593	9742.944336	7272.824707	72.063873
384.301270	898.245605	9765.383789	7281.889160	71.992149
384.664459	900.326172	9798.374023	7292.812500	71.841446
385.027649	903.372559	9821.555664	7309.752441	71.835030
385.390778	918.233093	9963.325195	7409.615723	71.766907
385.753876	924.623047	10054.198242	7476.710938	71.767715
386.116943	924.325867	10170.110352	7559.039063	71.759338
386.479980	912.140198	10196.563477	7572.859375	71.740799
386.842987	906.790466	10222.048828	7595.669922	71.805618
387.205994	902.406555	10218.853516	7590.097656	71.783707
387.568909	906.938965	10188.240234	7565.503418	71.741714
387.931793	903.595398	10112.897461	7521.070313	71.856422
388.294678	900.400391	10063.634766	7484.290527	71.851158
388.657471	892.672913	10054.420898	7479.089355	71.890388
389.020294	893.936035	10144.327148	7546.258301	71.913963
389.383057	900.920410	10358.467773	7719.978027	72.101761
389.745819	905.527283	10599.506836	7909.599121	72.251770
390.108521	905.304382	10881.559570	8105.609375	72.174431
390.471191	902.778076	11170.746094	8314.846680	72.186325
390.833801	903.595398	11414.309570	8498.448242	72.258202
391.196442	905.081482	11597.911133	8641.629883	72.352676
391.558960	905.007141	11625.031250	8665.926758	72.396469
391.921509	905.452942	11605.266602	8623.945313	72.136696
392.284027	906.493164	11523.237305	8570.670898	72.189529
392.646484	903.595398	11487.573242	8519.698242	71.958801
393.008911	901.960754	11468.847656	8500.454102	71.908531
393.371307	896.759521	11499.089844	8503.575195	71.746635
393.733673	894.381836	11443.807617	8448.145508	71.603554
394.096008	895.199158	11329.827148	8409.062500	72.008926
394.458344	902.480774	11156.106445	8293.224609	72.079315
394.820587	901.514893	10937.360352	8165.497559	72.380371
395.182831	905.452942	10695.801758	8000.694824	72.471802
395.545013	894.976318	10438.417969	7800.894531	72.362976
395.907196	904.709961	10234.234375	7667.520996	72.488274
396.269287	911.694397	10138.754883	7572.486816	72.187592
396.631409	929.452698	10096.476563	7541.949219	72.133522
396.993469	927.372253	10081.988281	7507.472656	71.877403
397.355530	922.914063	10080.798828	7506.432129	71.889069
397.717499	914.443542	10130.358398	7551.607910	72.018509
398.079468	911.397156	10162.382813	7599.904785	72.300491
398.441376	905.155762	10168.847656	7601.390625	72.284737
398.803284	896.982422	10109.925781	7559.335938	72.315147
399.165131	896.313721	10073.666016	7537.564941	72.365654
399.526978	897.131042	10032.799805	7516.463379	72.455917
399.888763	899.211487	10029.381836	7509.627441	72.401894
400.250519	904.932861	10026.854492	7483.770020	72.121170
400.612244	905.007141	10065.937500	7481.838379	71.792175
400.973938	904.709961	10151.386719	7529.317871	71.643120
401.335602	898.468506	10269.824219	7625.242188	71.780151
401.697205	897.279602	10439.161133	7803.643066	72.379471
402.058807	902.257996	10628.335938	7956.632813	72.530518
402.420349	907.756348	10914.327148	8159.627441	72.471092
402.781860	910.951355	11184.492188	8323.911133	72.155838
403.143341	910.802734	11437.492188	8488.194336	71.982666
403.504822	919.570496	11625.700195	8633.678711	72.053192
403.866241	921.502441	11776.015625	8759.176758	72.206589
404.227631	917.861572	11894.602539	8834.594727	72.122803
404.588959	906.939026	11911.247070	8820.252930	71.911057
404.950287	905.081360	11856.633789	8744.613281	71.583748
405.311554	904.115540	11710.628906	8651.734375	71.693970
405.672821	900.771912	11618.641602	8553.729492	71.403717
406.034027	897.279602	11470.481445	8449.854492	71.431290
406.395203	902.480774	11304.565430	8335.352539	71.455597
406.756348	905.601563	11147.860352	8265.879883	71.861870
407.117493	903.446777	11087.601563	8233.260742	71.972733
407.478516	904.487000	11115.835938	8264.989258	72.081589
407.839600	909.465332	11181.519531	8285.496094	71.806770
408.200592	912.437317	11322.992188	8331.118164	71.261147
408.561554	907.013367	11488.315430	8364.256836	70.475670
408.922485	903.223877	11661.515625	8419.241211	69.862556
409.283417	907.310547	11770.963867	8435.884766	69.300575
409.644257	911.025635	11888.510742	8500.230469	69.134277
410.005096	903.669678	11944.385742	8562.125977	69.365578
410.365906	902.703674	11925.585938	8596.379883	69.797325
410.726715	897.279602	11867.258789	8602.695313	70.240929
411.087433	898.617126	11775.049805	8540.578125	70.261650
411.448120	901.886536	11737.377930	8451.191406	69.672012
411.808807	910.728516	11680.906250	8296.047852	68.571938
412.169434	919.793457	11654.233398	8153.237793	67.385391
412.530029	913.849182	11691.385742	8094.612793	66.627136
412.890564	909.168152	11802.168945	8112.519531	66.128258
413.251099	909.985535	11977.598633	8231.625977	66.153748
413.611572	915.335205	12169.671875	8432.243164	66.791214
413.972076	912.660339	12349.038086	8673.653320	67.862335
414.332489	908.053528	12471.637695	8899.905273	69.112236
414.692871	904.041260	12673.815430	9161.526367	70.158401
415.053223	903.075378	12847.312500	9356.867188	70.777161
415.413574	904.561340	13165.847656	9518.401367	70.252335
415.773834	904.932922	13420.112305	9527.912109	68.900162
416.134094	906.493225	13765.174805	9510.005859	66.908203
416.494263	907.161926	14103.622070	9423.591797	64.535713
416.854462	904.264160	14541.117188	9380.198242	62.154613
417.214630	901.663513	15044.890625	9417.052734	60.208248
417.574738	896.165100	15490.409180	9584.902344	59.535370
417.934784	900.920593	16005.102539	9887.538086	59.497543
418.294861	909.168152	16578.572266	10371.024414	60.384277
418.654846	912.140198	17272.189453	10916.704102	61.152405
419.014832	906.270325	17992.777344	11533.640625	62.197437
419.374756	901.514954	18765.228516	12069.660156	62.518612
419.734680	900.623291	19533.814453	12525.804688	62.389645
420.094543	898.840027	20145.251953	12687.561523	61.251530
420.454376	905.452942	20501.681641	12558.200195	59.464233
420.814148	903.075256	20688.033203	12268.195313	57.443237
421.173920	906.641785	20836.638672	11931.902344	55.319935
421.533691	903.966980	20935.757813	11661.067383	53.700146
421.893341	908.796570	20984.427734	11445.739258	52.486233
422.253021	910.505554	20956.712891	11346.172852	52.058064
422.612640	913.774902	20936.279297	11356.129883	52.153095
422.972260	900.251770	20962.283203	11423.968750	52.455891
423.331757	898.691406	21060.884766	11490.395508	52.532501
423.691315	897.279724	21176.943359	11466.543945	52.117554
424.050781	908.573730	21184.150391	11226.175781	50.886848
424.410248	919.273254	20979.226563	10722.922852	48.871746
424.769653	914.889404	20678.001953	10078.198242	46.365715
425.128998	911.917297	20260.048828	9460.668945	44.183865
425.488373	902.406555	19725.439453	8963.955078	42.828106
425.847656	899.657410	19234.375000	8629.444336	42.159294
426.206940	907.310547	18759.431641	8402.746094	41.986248
426.566193	904.338379	18339.917969	8254.883789	42.158306
426.925385	902.332214	17826.560547	8050.849121	42.238361
427.284576	894.679138	17338.837891	7781.353027	41.879150
427.643677	896.610901	16936.041016	7428.637207	40.724804
428.002777	896.388000	16666.322266	7023.687500	38.854309
428.361847	907.533386	16438.363281	6559.072754	36.389168
428.720856	905.007141	16208.840820	6084.500488	33.844414
429.079865	910.059753	16068.112305	5685.718750	31.505756
429.438812	901.440613	16055.332031	5445.794922	29.988035
429.797760	908.350769	16085.053711	5352.471191	29.282516
430.156616	917.490051	16010.377930	5359.455566	29.430851
430.515503	917.267151	15858.875977	5407.826172	30.054054
430.874268	918.604553	15823.061523	5464.964844	30.503361
431.233093	908.647949	15912.819336	5466.896484	30.379873
431.591827	905.155762	16130.971680	5360.644043	29.262722
431.950562	903.223877	16342.510742	5174.961426	27.667971
432.309204	908.573669	16499.216797	4923.595215	25.752764
432.667877	919.496094	16691.212891	4710.718262	24.038107
433.026459	919.347595	16737.876953	4512.181641	22.712820
433.385010	915.260925	16829.416016	4399.464355	21.893738
433.743561	913.180481	16805.716797	4337.272949	21.545286
434.102051	910.654236	16833.951172	4316.542480	21.389341
434.460510	911.174316	16836.476563	4297.297852	21.262537
434.818939	907.756348	16812.253906	4224.555176	20.854471
435.177338	905.973083	16775.845703	4096.681152	20.105442
435.535675	907.236267	16759.052734	3867.456787	18.674330
435.894012	909.985352	16763.064453	3596.623047	16.947104
436.252289	914.369324	17013.984375	3325.121094	14.973971
436.610535	913.551941	17120.312500	3074.943604	13.336358
436.968719	909.242371	17497.326172	2913.409424	12.081968
437.326935	902.778076	17768.900391	2835.094727	11.456792
437.685028	903.372498	18109.357422	2867.193359	11.413591
438.043152	906.121765	18322.009766	2978.201904	11.897642
438.401215	908.350769	18600.423828	3164.181396	12.750516
438.759277	906.716125	19026.400391	3383.597412	13.669561
439.117249	906.344543	19613.095703	3588.598633	14.338428
439.475250	911.322815	20152.160156	3708.300049	14.536671
439.833130	913.106140	20649.468750	3739.804688	14.322287
440.191071	912.363098	20818.583984	3639.273193	13.698784
440.548889	914.220703	20906.185547	3466.073486	12.764392
440.906708	907.459167	20772.439453	3218.868408	11.635597
441.264496	903.075256	20554.732422	2968.468018	10.510019
441.622223	897.576904	20219.626953	2713.758057	9.399526
441.979950	908.722351	19911.865234	2496.199951	8.353764
442.337616	912.437439	19695.421875	2321.068359	7.499505
442.695251	906.344543	19433.281250	2200.475342	6.985131
443.052887	902.629456	19305.705078	2128.550049	6.661499
443.410461	905.452942	19375.326172	2092.587646	6.427412
443.768005	908.499451	19654.333984	2090.804443	6.307028
444.125458	905.973145	19951.990234	2101.058105	6.274724
444.482941	902.034973	20350.994141	2132.116455	6.324665
444.840393	901.069092	20926.025391	2167.113037	6.322330
445.197754	904.115540	21447.480469	2208.499756	6.349419
445.555084	904.932861	21906.748047	2237.254883	6.343843
445.912415	910.356934	22149.568359	2282.430908	6.460099
446.269714	913.923523	22328.787109	2334.443115	6.633335
446.626953	918.827454	22299.361328	2405.773438	6.954672
446.984161	926.109070	22093.320313	2491.370361	7.394745
447.341309	922.765442	21838.611328	2578.378906	7.915595
447.698456	916.449707	21480.248047	2645.697021	8.409183
448.055542	908.870911	21256.595703	2676.458252	8.686905
448.412598	906.567566	20871.783203	2666.501709	8.815002
448.769653	908.573730	20497.814453	2613.895508	8.705400
449.126617	909.465332	19957.859375	2518.044922	8.444699
449.483582	912.585999	19600.687500	2415.135742	8.040141
449.840515	907.236267	19240.095703	2301.526611	7.605416
450.197388	900.326172	19037.769531	2193.267822	7.128577
450.554230	889.700867	18898.005859	2086.345947	6.644962
450.911041	903.298279	18861.671875	2007.733765	6.149975
451.267822	906.790466	18932.037109	1964.266602	5.866639
451.624573	916.226807	18984.568359	1939.598145	5.663892
451.981262	910.579773	18946.451172	1938.409302	5.698808
452.337921	918.827393	18766.638672	1936.626099	5.702653
452.694580	913.626282	18382.492188	1946.879883	5.914830
453.051147	910.059753	18142.865234	1948.588867	6.026465
453.407715	911.025635	17726.994141	1946.434082	6.157293
453.764221	909.019531	17586.710938	1950.372070	6.243985
454.120728	908.425049	17208.363281	1955.944824	6.426526
454.477142	902.109375	17166.232422	1973.480469	6.587328
454.833557	899.583008	17071.794922	1984.848633	6.710681
455.189911	901.217712	17103.296875	2000.377930	6.784069
455.546265	899.657410	17183.693359	2016.650024	6.859434
455.902557	902.852356	17209.548828	2032.030762	6.924631
456.258820	897.279602	17508.396484	2046.965698	6.921185
456.615051	899.360168	17807.687500	2073.194580	6.942345
456.971252	904.932861	18248.599609	2102.321045	6.903893
457.327393	909.093811	18852.755859	2150.469482	6.918185
457.683502	905.378662	19586.791016	2204.858643	6.956005
458.039612	907.756348	20663.736328	2276.635498	6.928936
458.395630	912.883301	21719.798828	2347.222900	6.893571
458.751648	917.787292	22642.195313	2397.005859	6.809016
459.107605	913.923523	23388.712891	2442.256104	6.800209
459.463562	915.038086	23618.087891	2453.921631	6.778312
459.819458	911.471497	23473.939453	2422.343018	6.696393
460.175323	913.923523	22740.646484	2345.959717	6.560931
460.531158	908.425110	21873.828125	2240.524170	6.353797
460.886932	906.790344	20979.150391	2152.698486	6.207084
461.242676	905.378601	20209.001953	2081.516357	6.092834
461.598419	908.276367	19646.382813	2042.284668	6.051883
461.954102	909.390930	19076.554688	2009.517090	6.055575
462.309723	903.075256	18633.265625	1996.068359	6.164588
462.665344	897.799805	18253.800781	1990.941406	6.298350
463.020905	902.257996	18060.763672	1991.387207	6.347459
463.376373	910.728455	18054.076172	1987.449219	6.280691
463.731873	920.536377	18048.947266	1971.251343	6.134340
464.087341	912.288818	18129.716797	1967.981812	6.131537
464.442749	909.911133	18253.798828	1950.446411	5.999435
464.798126	905.304382	18389.033203	1947.994507	5.963775
465.153503	900.994812	18539.273438	1931.870728	5.844538
465.508820	900.400391	18692.931641	1931.499023	5.795121
465.864105	895.719299	18824.669922	1923.846069	5.734450
466.219330	906.195984	19089.855469	1934.471313	5.654942
466.574524	901.589172	19122.400391	1916.787231	5.571640
466.929657	904.115540	18981.298828	1875.326538	5.372579
467.284790	913.477722	18761.806641	1836.317505	5.170455
467.639893	915.112305	18473.810547	1806.299194	5.075472
467.994934	912.734619	18321.044922	1801.618164	5.106087
468.349945	899.657410	18097.169922	1779.550293	5.116396
468.704926	896.610901	17942.546875	1768.553345	5.115252
469.059875	899.805908	17775.662109	1744.182129	5.003457
469.414764	901.589172	17649.943359	1738.980835	4.999845
469.769653	907.533386	17653.435547	1732.665039	4.927364
470.124451	908.276428	17728.257813	1744.330688	4.970602
470.479248	903.075256	17802.634766	1747.377075	4.995999
470.834015	900.920471	17874.263672	1768.999023	5.114364
471.188721	902.406555	18090.707031	1796.565430	5.202137
471.543365	908.202148	18396.908203	1840.998535	5.333707
471.898010	905.155701	18631.779297	1878.744263	5.492239
472.252625	900.400391	18924.087891	1935.140015	5.740998
472.607178	894.902039	19191.947266	1986.409058	5.965483
472.961700	894.530457	19345.160156	2033.442749	6.172756
473.316193	898.171326	19383.351563	2055.733398	6.262108
473.670654	903.149597	19289.431641	2052.538330	6.251338
474.025055	913.997742	19397.617188	2051.423584	6.153696
474.379456	914.294983	19466.644531	2044.141968	6.090048
474.733795	918.381653	19640.884766	2055.213135	6.072006
475.088104	910.951355	19913.056641	2067.844482	6.088236
475.442383	902.852356	20287.244141	2097.045654	6.160592
475.796570	896.462219	20675.548828	2117.999023	6.175901
476.150787	897.056702	21149.154297	2142.741943	6.150895
476.504944	907.756348	21589.398438	2149.874756	6.005898
476.859070	911.322815	22006.906250	2151.955322	5.881006
477.213135	916.226868	22249.728516	2133.379639	5.705359
477.567200	909.613953	22540.474609	2111.609131	5.556853
477.921173	907.384949	22776.681641	2089.987061	5.407591
478.275146	902.926697	22999.884766	2081.144775	5.332037
478.629089	907.459167	23301.630859	2093.330566	5.295446
478.983002	910.356934	23778.876953	2122.680176	5.301276
479.336823	911.248596	24470.189453	2162.580811	5.311496
479.690643	913.477600	25256.609375	2218.827881	5.362294
480.044403	902.703796	26280.576172	2286.740723	5.453715
480.398163	900.177429	27603.609375	2376.795410	5.529694
480.751862	898.691406	29446.759766	2481.116455	5.543020
481.105499	908.870911	31887.828125	2628.458740	5.550826
481.459137	913.923523	35504.214844	2856.493896	5.615941
481.812744	913.106140	40200.964844	3167.822266	5.738964
482.166290	909.019531	45694.015625	3561.701172	5.923148
482.519806	905.304382	50753.667969	3970.365967	6.148771
482.873291	898.394226	54665.109375	4352.356445	6.423978
483.226715	897.131042	57032.542969	4621.035156	6.633788
483.580139	905.527283	57867.703125	4728.848145	6.712034
483.933502	912.214539	57342.605469	4637.976074	6.602402
484.286804	922.988464	55630.152344	4403.476563	6.362033
484.640106	917.118469	53042.855469	4068.148438	6.045056
484.993347	913.329102	50227.300781	3725.909912	5.703415
485.346558	905.007141	48023.406250	3441.330322	5.382873
485.699738	902.852356	47031.468750	3262.781006	5.115975
486.052887	900.623291	47336.781250	3212.626709	4.978886
486.405975	904.115540	48345.140625	3218.793945	4.879065
486.759064	910.728333	49482.792969	3270.508789	4.858308
487.112061	913.254700	49975.562500	3289.084229	4.842474
487.464996	918.753113	49638.972656	3291.981689	4.871137
487.817963	919.644775	48438.167969	3236.403564	4.875485
488.170868	917.638611	46557.785156	3146.719971	4.884036
488.523743	904.487000	44306.121094	3040.913330	4.922456
488.876587	894.679138	42227.058594	2945.136963	4.960899
489.229401	898.840027	40863.453125	2908.505859	5.028613
489.582153	907.830627	40570.402344	2928.864990	5.095571
489.934845	911.917297	41173.445313	3038.610107	5.282196
490.287537	905.378662	42452.121094	3185.655029	5.488460
490.640198	901.217712	43847.894531	3350.978516	5.704192
490.992798	898.394226	44662.996094	3465.479248	5.865665
491.345337	909.911133	44533.113281	3501.070068	5.939864
491.697876	916.449768	43216.390625	3439.621338	5.964953
492.050354	919.421875	41067.707031	3307.585693	5.948358
492.402832	910.134033	38196.054688	3109.717529	5.899233
492.755219	910.208313	35118.214844	2887.552734	5.780355
493.107605	911.471497	32351.179688	2690.501709	5.658545
493.459930	915.632507	30268.548828	2539.072754	5.530763
493.812225	906.716064	28868.240234	2446.045654	5.505171
494.164490	910.505554	28053.140625	2394.405518	5.467044
494.516724	902.480896	27590.828125	2393.811035	5.587945
494.868896	904.784363	27564.750000	2418.553955	5.678063
495.221039	902.629456	27769.750000	2442.627686	5.731906
495.573120	917.861511	28077.291016	2455.184814	5.660367
495.925201	917.341370	28358.601563	2458.974121	5.617938
496.277222	915.260925	28533.134766	2431.333496	5.489461
496.629211	906.790466	28556.392578	2394.850830	5.381851
496.981140	913.923523	28431.490234	2343.433594	5.194900
497.333069	909.391113	28123.505859	2301.972656	5.117130
497.684967	908.870911	27697.083984	2267.718994	5.072560
498.036804	905.007141	27143.228516	2224.623535	5.029367
498.388580	907.087646	26626.306641	2203.670166	5.041298
498.740326	906.493164	26100.912109	2185.317383	5.075824
499.092072	902.183594	25637.263672	2175.212158	5.146652
499.443756	906.121643	25145.156250	2152.401123	5.141622
499.795410	907.310547	24776.615234	2128.475830	5.116049
500.147003	914.517822	24410.226563	2126.023682	5.156286
500.498566	907.682068	24079.208984	2124.314697	5.250550
500.850098	907.979187	23892.859375	2130.110107	5.317108
501.201599	900.474670	23732.664063	2124.166016	5.359501
501.553009	898.988586	23670.916016	2144.079346	5.467657
501.904449	905.527344	23618.455078	2162.877930	5.535837
502.255859	917.787292	23658.359375	2201.143799	5.643466
502.607178	925.886230	23784.228516	2224.326172	5.680377
502.958405	920.610657	23890.554688	2249.217529	5.784111
503.309692	905.378662	24019.916016	2247.731689	5.807397
503.660919	898.840027	24123.865234	2234.431396	5.750656
504.012115	894.381836	24096.521484	2215.781494	5.695163
504.363251	895.422119	24032.250000	2192.524658	5.606225
504.714294	899.657410	23847.162109	2174.171875	5.554044
505.065369	903.075195	23755.250000	2154.555908	5.476418
505.416443	912.585999	23578.109375	2149.057617	5.455297
505.767395	916.078186	23620.388672	2159.162842	5.475104
506.118317	913.923523	23612.662109	2165.032471	5.511799
506.469238	907.236145	23800.796875	2183.311035	5.573947
506.820160	899.360107	23960.177734	2193.787842	5.613104
507.170929	902.629395	24200.468750	2210.951904	5.615639
507.521729	903.743958	24417.210938	2213.255127	5.569197
507.872498	914.815125	24623.328125	2200.029053	5.420896
508.223236	911.768738	24949.218750	2181.230469	5.281183
508.573883	910.134033	25235.876953	2161.837646	5.145593
508.924500	904.709961	25526.031250	2154.481689	5.075974
509.275116	907.459167	25710.302734	2153.070068	5.022048
509.625702	907.236145	25945.617188	2171.645752	5.049886
509.976196	903.149597	26121.195313	2205.379150	5.163880
510.326660	906.716064	26364.388672	2257.019287	5.304111
510.677124	914.517883	26542.119141	2298.926025	5.402020
511.027557	919.941956	26751.283203	2336.151611	5.482525
511.377869	913.923523	26886.367188	2359.185791	5.564599
511.728180	909.836853	26896.173828	2353.389893	5.555046
512.078430	910.208313	26807.603516	2321.885498	5.451040
512.428650	915.409607	26658.333984	2285.254150	5.321247
512.778931	914.072083	26496.427734	2249.440674	5.219882
513.129028	904.338440	26342.841797	2218.827881	5.167322
513.479126	899.508789	26185.318359	2170.010986	5.024566
513.829285	896.908203	26109.826172	2144.302246	4.947440
514.179382	900.994812	26023.041016	2143.930664	4.947590
514.529297	904.189758	26025.791016	2170.308105	5.039959
514.879272	901.366272	26178.333984	2207.830811	5.168597
515.229187	898.468567	26339.421875	2226.481201	5.219980
515.579163	898.617126	26778.552734	2273.440186	5.312312
515.928955	902.629456	27322.521484	2313.563721	5.340424
516.278748	901.886414	28171.353516	2369.662354	5.382488
516.628540	901.960754	29053.181641	2403.693115	5.334520
516.978333	903.000977	30042.523438	2438.169434	5.268338
517.327942	908.722351	31016.482422	2459.642822	5.151231
517.677612	912.288879	31861.453125	2466.553223	5.021992
518.027222	915.781067	32401.705078	2443.222168	4.851187
518.376831	913.700623	32546.968750	2419.890869	4.761412
518.726379	905.378723	32277.992188	2381.030762	4.703631
519.075867	899.805969	31633.490234	2351.086670	4.722118
519.425293	898.542786	30877.609375	2293.873535	4.654350
519.774658	899.360168	30085.396484	2258.876953	4.658107
520.124084	902.406555	29435.619141	2217.267578	4.608178
520.473389	900.771912	28835.250000	2200.252197	4.651886
520.822693	900.103210	28396.937500	2181.825195	4.661344
521.171997	900.920471	28135.765625	2188.289551	4.726919
521.521240	912.065918	28121.945313	2192.078857	4.704221
521.870361	908.350769	28249.001953	2202.481201	4.733356
522.219482	910.505554	28515.154297	2231.310791	4.784720
522.568604	901.663574	28784.875000	2274.406250	4.923187
522.917664	906.195984	29237.898438	2337.266357	5.051127
523.266724	901.663513	29905.138672	2407.036621	5.190320
523.615662	902.257996	30900.937500	2496.645752	5.314859
523.964600	897.502502	32145.509766	2595.616943	5.434313
524.313538	903.075256	33589.582031	2692.136230	5.473393
524.662354	906.641785	35099.117188	2770.525391	5.451151
525.011169	912.808899	36509.011719	2829.076172	5.383348
525.359985	907.904968	37858.128906	2869.868408	5.309747
525.708740	907.384827	39323.675781	2911.031982	5.215619
526.057434	910.877136	41142.308594	2973.149170	5.126022
526.406067	916.524109	43450.527344	3080.070557	5.086627
526.754700	917.564270	46425.972656	3245.394531	5.115165
527.103333	905.750183	49848.511719	3464.512939	5.228072
527.451782	895.422058	53146.656250	3740.399170	5.444804
527.800293	894.530457	55516.542969	4004.916748	5.694382
528.148743	905.378601	56710.437500	4172.543457	5.854603
528.497131	911.991516	56669.937500	4216.382324	5.926314
528.845642	910.505554	55491.347656	4126.327637	5.891851
529.193909	908.350769	53255.207031	3942.873779	5.796954
529.542175	900.474670	50021.636719	3679.470703	5.657432
529.890503	900.103210	46391.574219	3411.683594	5.520991
530.238770	895.942200	42987.621094	3179.487549	5.425170
530.586914	897.056702	40609.785156	3006.808350	5.312533
530.934998	903.149597	39383.117188	2909.917236	5.215096
531.283142	907.087646	39393.000000	2900.109375	5.178575
531.631226	911.248596	40143.460938	2950.560791	5.198056
531.979248	905.081482	41481.578125	3059.637451	5.309862
532.327148	902.703796	42750.664063	3179.710205	5.441141
532.675110	905.898743	43736.734375	3298.743408	5.586734
533.023071	908.127869	43967.074219	3343.771240	5.656533
533.370850	911.545715	43194.328125	3329.133789	5.717666
533.718689	910.877014	41793.871094	3260.403564	5.746953
534.066467	913.031799	39953.839844	3166.261719	5.771474
534.414246	912.660339	38280.464844	3071.748779	5.777937
534.761963	913.551941	36918.347656	2969.508545	5.710229
535.109619	911.991516	36158.972656	2900.183594	5.640745
535.457153	911.025635	35831.671875	2836.208984	5.513023
535.804749	907.236145	35770.296875	2783.528564	5.381892
536.152344	910.133972	35667.535156	2732.036377	5.241768
536.499817	905.230042	35413.566406	2674.377686	5.126726
536.847229	910.951355	34882.226563	2626.452637	5.049859
537.194641	900.623291	34044.242188	2566.044678	5.024863
537.542114	904.115417	33083.656250	2529.635986	5.051410
537.889404	897.279602	32201.015625	2503.333008	5.130549
538.236694	904.561279	31735.583984	2522.205811	5.246808
538.583984	913.254822	31918.962891	2563.518311	5.322450
538.931213	916.449768	32846.335938	2644.731201	5.412739
539.278381	915.706726	34513.613281	2734.117188	5.412273
539.625488	912.511719	36711.785156	2851.738281	5.416944
539.972595	913.254700	39465.371094	2979.390625	5.359332
540.319641	917.564270	42101.039063	3108.602783	5.320189
540.666687	910.505554	44230.699219	3210.546143	5.309396
541.013611	908.202148	45360.324219	3257.728516	5.285522
541.360596	903.000977	45512.343750	3254.681641	5.271722
541.707458	902.109375	44678.519531	3185.803467	5.216723
542.054260	898.691406	43066.824219	3078.733154	5.169880
542.401062	899.062927	41067.562500	2965.644531	5.144782
542.747864	904.338379	38896.878906	2834.277344	5.079784
543.094666	904.041199	36851.398438	2726.538330	5.069906
543.441284	902.703674	34882.152344	2605.053467	5.009940
543.787903	898.914368	33301.066406	2499.692139	4.940344
544.134460	911.248596	31891.392578	2394.405273	4.787443
544.481079	905.007141	30938.312500	2319.805176	4.710764
544.827637	912.883118	30281.181641	2299.594971	4.721798
545.174072	906.567444	29992.884766	2305.687744	4.810236
545.520508	910.728516	29942.435547	2338.603760	4.918330
545.866943	906.790466	29946.001953	2367.433105	5.029898
546.213318	905.973145	29839.005859	2415.952881	5.218878
546.559631	908.425110	29470.242188	2451.692627	5.403255
546.905823	913.477722	28891.275391	2478.292969	5.593061
547.252136	911.100037	28017.994141	2464.175537	5.729448
547.598389	911.768738	27030.509766	2418.776367	5.769833
547.944458	905.229980	25963.822266	2346.331299	5.750927
548.290588	908.276428	24999.001953	2268.982178	5.648256
548.636658	910.431152	24059.369141	2169.342041	5.438310
548.982727	905.304260	23288.775391	2085.157227	5.271091
549.328735	902.332214	22710.255859	1998.371582	5.025877
549.674622	900.474609	22299.955078	1946.805542	4.889515
550.020569	912.214539	22022.435547	1910.545898	4.729137
550.366455	918.381653	21778.201172	1891.821655	4.666579
550.712280	917.712891	21684.357422	1887.140503	4.668196
551.058044	913.180420	21709.841797	1899.623169	4.743274
551.403748	905.601563	21851.390625	1918.050415	4.833663
551.749512	902.778137	22084.849609	1948.663086	4.937595
552.095154	902.406555	22244.525391	1956.984985	4.941301
552.440735	905.750183	22329.156250	1971.771118	4.975964
552.786316	906.716125	22219.634766	1973.108765	5.003503
553.131897	903.595398	22012.255859	1975.115112	5.076210
553.477417	904.635559	21679.900391	1965.752930	5.107600
553.822815	906.493164	21279.630859	1958.099731	5.161731
554.168213	905.155701	20865.615234	1950.372070	5.236434
554.513672	898.468506	20469.361328	1942.198730	5.333074
554.859009	897.502625	20189.314453	1923.177124	5.316631
555.204285	900.994873	19979.705078	1909.208374	5.284495
555.549500	899.360107	19825.302734	1897.839966	5.275721
555.894714	900.846191	19685.763672	1884.019897	5.233846
556.239990	893.861755	19515.087891	1866.484375	5.223193
556.585022	907.756348	19409.876953	1844.565063	5.063251
556.930115	907.310547	19242.544922	1824.800415	5.003971
557.275146	910.728455	19155.687500	1797.308594	4.859315
557.620178	902.406555	19056.642578	1783.042358	4.850856
557.965149	903.223877	18989.472656	1770.262329	4.793910
558.310059	904.709961	18905.138672	1774.794800	4.833689
558.654968	900.697571	18830.017578	1772.640015	4.863221
558.999756	899.508789	18857.732422	1767.438843	4.833051
559.344604	897.354004	18928.099609	1764.986816	4.811963
559.689331	906.716125	18995.640625	1761.643188	4.726246
560.033997	908.945129	19009.013672	1773.011597	4.773830
560.378723	913.849121	19066.671875	1772.119751	4.728029
560.723389	910.728455	19104.789063	1772.565796	4.736916
561.067932	907.384827	19172.255859	1774.646118	4.748248
561.412476	906.418945	19132.576172	1783.116699	4.810108
561.757019	905.452942	19118.384766	1793.147583	4.873980
562.101501	907.459167	19049.656250	1804.292969	4.943358
562.445862	906.344543	18940.654297	1808.156616	5.000535
562.790222	905.378662	18847.703125	1816.775757	5.079593
563.134644	904.041260	18804.384766	1825.023438	5.145053
563.478943	905.601563	18892.359375	1841.667114	5.204193
563.823181	906.493164	19036.136719	1857.419312	5.245145
564.167358	900.177429	19308.009766	1865.146851	5.242167
564.511536	897.948425	19721.205078	1880.601929	5.220423
564.855774	892.672913	20162.935547	1909.505493	5.276693
565.199768	902.183655	20542.994141	1929.790039	5.231996
565.543823	902.703796	20798.669922	1946.731079	5.247432
565.887817	909.316650	21005.750000	1943.759155	5.147393
566.231812	911.545715	21036.511719	1940.861450	5.114621
566.575745	909.911133	20901.503906	1921.691284	5.061028
566.919617	907.756348	20607.265625	1893.307617	5.002923
567.263428	901.960693	20272.384766	1867.970581	4.987035
567.607239	907.607727	19999.990234	1845.456665	4.912163
567.950989	908.127869	19760.365234	1821.754028	4.846248
568.294678	910.728455	19633.751953	1806.447754	4.784053
568.638367	910.282654	19546.373047	1788.763672	4.713870
568.981995	907.904968	19554.025391	1783.859741	4.697785
569.325623	902.555176	19659.236328	1783.562500	4.697032
569.669128	897.651184	19815.421875	1779.401489	4.660963
570.012573	894.827637	20064.632813	1782.819458	4.632242
570.356140	899.211609	20322.982422	1794.856567	4.611076
570.699524	896.462402	20612.169922	1840.329956	4.787389
571.042908	900.400391	20916.662109	1887.957886	4.933776
571.386230	897.428284	21157.253906	1931.127808	5.102213
571.729492	898.096985	21295.160156	1979.127319	5.299931
572.072815	891.929871	21335.060547	2027.052734	5.552588
572.416016	893.861633	21244.783203	2066.061523	5.759935
572.759094	901.960754	21071.210938	2087.683594	5.878865
573.102234	916.524109	20822.818359	2094.370605	5.916955
573.445374	922.468262	20577.691406	2089.169678	5.935834
573.788391	919.719055	20390.375000	2063.535156	5.874564
574.131409	911.768738	20241.472656	2038.941040	5.831297
574.474365	908.350769	20120.806641	1996.291138	5.662683
574.817261	906.418884	20005.634766	1952.526978	5.477231
575.160156	905.972961	19788.375000	1900.069336	5.264671
575.502930	904.858459	19541.466797	1860.688843	5.128779
575.845703	903.075195	19269.443359	1820.713989	4.996300
576.188477	910.133972	18924.455078	1770.411011	4.775517
576.531250	910.356934	18539.123047	1734.299805	4.673854
576.873901	910.431213	18067.376953	1702.423950	4.616164
577.216431	902.034973	17706.931641	1688.306519	4.678824
577.559082	900.771790	17375.693359	1668.690430	4.661137
577.901611	906.493164	17104.857422	1658.065063	4.639801
578.244080	906.938965	16793.751953	1645.359375	4.648009
578.586487	904.189758	16538.818359	1645.805176	4.743415
578.928955	910.505554	16280.247070	1648.851563	4.803894
579.271301	911.620117	16088.100586	1659.774048	4.929693
579.613647	907.310547	15816.078125	1656.727661	5.026687
579.955872	891.335449	15682.184570	1667.724487	5.249117
580.298157	894.158875	15547.101563	1675.080566	5.329453
580.640320	896.536560	15522.656250	1695.959595	5.465722
580.982483	906.121643	15421.381836	1695.811035	5.440408
581.324524	900.028809	15334.077148	1709.928589	5.611037
581.666626	902.480896	15231.538086	1708.070923	5.622073
582.008728	906.344543	15163.550781	1703.687134	5.592558
582.350647	910.951355	15095.415039	1689.569702	5.489233
582.692566	916.152527	15040.133789	1663.786499	5.293365
583.034424	909.168152	14999.043945	1649.148926	5.251862
583.376343	910.728455	14931.355469	1624.331665	5.089667
583.718201	909.762512	14896.803711	1609.025391	4.999362
584.059937	906.641846	14815.367188	1578.932983	4.833592
584.401611	902.332275	14805.411133	1565.335449	4.768751
584.743347	903.892578	14752.656250	1552.629517	4.684439
585.085022	906.195984	14695.518555	1552.258179	4.685236
585.426514	913.403320	14627.011719	1548.988892	4.634707
585.768127	912.065918	14611.778320	1554.635742	4.690389
586.109619	912.363098	14638.528320	1567.564453	4.773375
586.451172	906.418945	14652.792969	1581.830566	4.913380
586.792542	901.886414	14708.148438	1596.468262	5.030919
587.133850	902.257996	14774.946289	1612.591919	5.120377
587.475220	911.768738	14874.809570	1624.777710	5.106402
587.816589	911.843018	14939.304688	1639.563843	5.187829
588.157776	917.861511	15018.362305	1649.223145	5.186778
588.498962	913.923401	15110.721680	1668.839233	5.317508
588.840210	924.994568	15185.098633	1685.408813	5.332459
589.181335	920.462097	15289.864258	1712.232056	5.510110
589.522400	925.663330	15315.127930	1726.126587	5.562842
589.863403	917.267151	15305.989258	1739.649536	5.715465
590.204407	923.285645	15220.690430	1732.367798	5.658944
590.545410	915.781067	15081.223633	1718.547485	5.667076
590.886353	910.208313	14887.961914	1691.872925	5.592205
591.227112	901.737854	14706.143555	1675.823608	5.607527
591.567932	896.833801	14608.731445	1650.857788	5.499049
591.908752	901.217712	14632.731445	1628.046875	5.293147
592.249512	905.527283	14680.135742	1603.304199	5.065675
592.590149	907.533447	14718.031250	1583.985352	4.898099
592.930786	913.180481	14786.985352	1578.784180	4.797557
593.271423	912.957520	14834.166992	1563.032104	4.669671
593.612000	909.762512	15037.460938	1569.422241	4.669265
593.952576	905.972961	15186.584961	1568.679077	4.640600
594.292969	902.629395	15408.304688	1589.855347	4.737635
594.633484	907.236145	15603.421875	1598.325806	4.702510
594.973877	912.734680	15912.075195	1627.304077	4.764005
595.314209	914.740784	16254.687500	1644.987915	4.760428
595.654480	914.146423	16610.894531	1663.563599	4.774347
595.994812	914.220703	16934.111328	1681.544922	4.789822
596.335022	915.781067	17197.363281	1685.260132	4.726070
596.675171	912.140198	17253.312500	1697.742798	4.807505
597.015320	900.103210	17168.832031	1683.105103	4.812926
597.355408	895.570740	16839.300781	1677.309570	4.903111
597.695496	899.062988	16428.109375	1658.139526	4.888108
598.035461	907.459229	15874.554688	1629.161499	4.821926
598.375366	909.391113	15361.046875	1608.059570	4.834522
598.715271	914.072083	14891.825195	1582.276489	4.780485
599.055176	912.957520	14462.950195	1589.632446	4.993914
599.395081	917.935852	14149.020508	1587.551880	5.060931
599.734802	911.099915	13917.567383	1597.434204	5.276869
600.074524	914.517883	13834.051758	1591.192749	5.237610
600.414246	908.350769	13761.754883	1582.350952	5.243748
600.753906	908.425049	13799.204102	1585.174316	5.249871
601.093506	903.075256	13862.286133	1582.870972	5.245656
601.433044	908.945251	14073.307617	1585.471558	5.139074
601.772583	911.545837	14338.418945	1583.019531	5.000968
602.112122	918.901794	14705.846680	1587.700562	4.850957
602.451538	919.942078	15107.081055	1605.607422	4.833006
602.790894	920.982239	15533.503906	1611.254517	4.723841
603.130310	911.843079	16020.484375	1631.613403	4.763965
603.469604	906.939148	16433.607422	1645.582520	4.757256
603.808838	900.994812	16814.185547	1664.678223	4.799059
604.148010	902.480896	17083.013672	1673.000122	4.762014
604.487305	903.372498	17194.095703	1671.811157	4.717032
604.826416	909.539612	17055.447266	1655.984741	4.623123
605.165527	915.038025	16644.033203	1631.836426	4.557178
605.504456	908.053528	16159.131836	1613.186523	4.623496
605.843445	909.019531	15671.187500	1592.455933	4.629648
606.182434	904.709961	15198.101563	1567.787476	4.639050
606.521423	916.672668	14770.043945	1533.162476	4.450107
606.860229	917.861511	14425.500977	1513.843628	4.412186
607.199036	915.112305	14251.335938	1509.534058	4.457197
607.537903	907.830750	14212.104492	1506.710571	4.501410
607.876648	902.109375	14254.679688	1516.518555	4.601430
608.215271	901.440613	14403.582031	1534.054077	4.685282
608.553955	903.446777	14652.273438	1557.830933	4.759564
608.892578	910.133972	14869.386719	1578.412720	4.787353
609.231140	919.050293	15007.515625	1587.106079	4.741864
609.569641	918.753235	14966.054688	1599.068848	4.843034
609.908081	912.660400	14823.765625	1604.790039	4.975375
610.246521	911.842957	14586.143555	1605.830200	5.075120
610.584961	914.889343	14247.323242	1594.090454	5.094352
610.923340	920.387756	13892.676758	1582.127930	5.101183
611.261597	910.431152	13450.426758	1557.533569	5.160308
611.599854	908.573547	13073.859375	1539.552368	5.186716
611.938110	904.635559	12753.393555	1512.208984	5.127739
612.276245	912.140137	12528.403320	1506.413452	5.115873
612.614319	904.264099	12370.288086	1489.843750	5.107085
612.952393	908.202148	12216.628906	1467.107300	4.942378
613.290466	912.363098	12075.973633	1440.506836	4.730940
613.628479	917.787109	11890.590820	1423.268555	4.606675
613.966370	916.969910	11757.143555	1413.460571	4.580099
614.304260	914.815125	11643.831055	1398.897339	4.511898
614.642151	912.585938	11586.468750	1392.581543	4.496917
614.979980	907.830566	11538.618164	1391.689819	4.551490
615.317749	904.487000	11535.719727	1395.627930	4.619793
615.655396	909.836853	11497.305664	1395.479370	4.586956
615.993164	915.335205	11490.768555	1388.049194	4.469925
616.330811	916.524109	11477.838867	1382.550781	4.412582
616.668396	915.038025	11497.604492	1380.544556	4.398806
617.005859	917.564270	11504.811523	1387.826172	4.441777
617.343445	920.610779	11486.531250	1398.971680	4.527394
617.680908	911.917297	11504.141602	1404.618774	4.651539
618.018311	903.372498	11495.968750	1418.216187	4.860411
618.355652	897.576843	11521.082031	1429.510132	5.007135
618.692993	904.561340	11484.674805	1443.107422	5.090173
619.030273	903.223938	11439.870117	1448.160034	5.171817
619.367554	898.171326	11380.874023	1450.537720	5.269312
619.704712	898.171387	11329.382813	1460.791504	5.393622
620.041870	899.211609	11316.675781	1461.906128	5.401454
620.379028	908.350769	11243.933594	1463.540649	5.371636
620.716064	901.589172	11224.094727	1469.782104	5.504409
621.053040	899.731628	11191.104492	1474.463257	5.584596
621.389954	892.672852	11181.742188	1482.562134	5.733165
621.726929	904.264099	11124.378906	1466.215698	5.498486
622.063843	911.991638	11090.573242	1455.590332	5.340613
622.400635	916.821289	11105.953125	1440.060913	5.135272
622.737427	908.945251	11145.629883	1426.314941	5.054075
623.074219	905.007141	11130.176758	1410.191406	4.940595
623.410889	906.641846	11131.366211	1401.349243	4.838345
623.747559	914.592285	11169.929688	1394.662109	4.681170
624.084167	916.598389	11268.007813	1385.522827	4.530054
624.420715	915.112305	11388.675781	1376.234985	4.402730
624.757324	917.341370	11546.049805	1383.888184	4.389497
625.093750	917.564270	11732.028320	1399.194702	4.453577
625.430176	921.279480	11925.290039	1414.277954	4.480171
625.766602	917.044250	12113.945313	1431.070313	4.590788
626.102905	920.462097	12315.527344	1439.838257	4.557904
626.439209	916.078308	12448.602539	1445.410767	4.589910
626.775452	908.053528	12536.355469	1437.906250	4.556579
627.111694	898.394226	12475.797852	1440.209595	4.679939
627.447876	899.583008	12402.239258	1438.277710	4.683220
627.783997	902.109375	12249.992188	1436.791626	4.711736
628.120056	900.177490	12103.913086	1431.962036	4.746493
628.456055	896.388000	11905.227539	1421.188110	4.767079
628.792053	898.765808	11704.907227	1418.810547	4.812492
629.128052	903.000977	11554.148438	1425.497681	4.905544
629.463928	903.223877	11376.637695	1440.804077	5.132808
629.799744	898.542786	11252.625977	1444.593384	5.273771
630.135559	898.468506	11117.840820	1437.163086	5.271308
630.471375	899.285828	11029.718750	1438.500610	5.322722
630.807068	906.938965	10949.620117	1444.147583	5.349255
631.142700	912.883240	10849.088867	1452.989746	5.435742
631.478333	904.932861	10774.266602	1446.822632	5.490642
631.813965	903.223877	10701.524414	1439.169312	5.469779
632.149475	896.165100	10646.019531	1429.138672	5.466477
632.484924	909.762512	10652.260742	1422.599976	5.263922
632.820435	902.926697	10646.242188	1420.742310	5.314573
633.155884	902.555176	10691.864258	1413.237671	5.216737
633.491150	897.056824	10730.798828	1406.773438	5.183343
633.826477	903.892578	10738.600586	1389.683960	4.939561
634.161804	906.939148	10702.043945	1374.080200	4.769128
634.497009	909.539612	10604.559570	1357.659302	4.622164
634.832153	906.344543	10521.636719	1343.095947	4.542258
635.167297	908.127869	10438.566406	1348.743042	4.623241
635.502380	903.966797	10345.465820	1358.551025	4.814746
635.837463	901.143372	10231.633789	1362.117554	4.940514
636.172424	907.087585	10094.396484	1366.724243	5.002952
636.507324	908.276428	9958.496094	1357.882324	4.967900
636.842224	913.403320	9852.243164	1368.433228	5.090481
637.177124	905.452942	9756.244141	1365.906860	5.202404
637.511963	903.000977	9677.706055	1364.718140	5.261911
637.846741	899.805969	9595.230469	1356.916138	5.256905
638.181396	896.165100	9530.809570	1347.108276	5.222487
638.516113	898.096985	9447.145508	1339.678101	5.165266
638.850769	900.177429	9376.631836	1333.956787	5.117463
639.185303	905.601563	9314.143555	1322.439819	4.957319
639.519836	901.217712	9276.471680	1318.947632	4.987669
639.854370	903.669678	9187.382813	1304.087036	4.833791
640.188843	907.979187	9086.999023	1303.715454	4.838431
640.523254	918.010071	9013.440430	1297.251099	4.684631
640.857605	922.542664	8953.477539	1295.393677	4.642685
641.191895	911.174316	8925.094727	1298.960083	4.838902
641.526184	909.911133	8861.120117	1297.176880	4.870527
641.860413	905.898743	8841.503906	1310.179810	5.094521
642.194580	911.842957	8818.171875	1306.018921	4.985575
642.528748	908.202148	8815.051758	1311.665894	5.102712
642.862793	909.168152	8796.178711	1301.857788	4.978941
643.196838	909.985352	8741.566406	1304.978638	5.043596
643.530823	916.152527	8711.697266	1299.628906	4.919174
643.864746	914.963684	8674.545898	1298.811523	4.946759
644.198669	921.130798	8661.839844	1294.130493	4.818676
644.532532	926.034851	8612.279297	1289.300903	4.726184
644.866333	927.743835	8596.081055	1288.855103	4.709121
645.200073	920.164856	8615.772461	1284.471191	4.733952
645.533813	911.545715	8672.761719	1283.728149	4.795414
645.867554	906.493164	8696.315430	1284.322388	4.850293
646.201172	907.310547	8707.907227	1286.402832	4.859786
646.534729	904.932861	8696.315430	1286.031372	4.891282
646.868225	898.617188	8695.721680	1274.440186	4.820033
647.201782	899.805969	8704.934570	1264.780884	4.676091
647.535217	896.165100	8716.081055	1257.350586	4.618790
647.868591	905.155762	8711.250977	1271.988281	4.699309
648.201965	903.595459	8654.409180	1275.926270	4.803764
648.535278	905.898865	8617.778320	1286.254395	4.932073
648.868591	897.056824	8610.942383	1269.016235	4.821946
649.201782	899.062927	8621.418945	1262.700439	4.708893
649.534912	899.657288	8643.263672	1263.517822	4.698851
649.868103	903.669739	8647.722656	1278.304077	4.837704
650.201172	906.716125	8664.291992	1290.489624	4.947080
650.534180	912.511719	8641.555664	1292.644409	4.918237
650.867188	907.979248	8614.658203	1295.542114	5.028922
651.200134	903.298157	8601.283203	1295.170776	5.090587
651.533020	898.988586	8567.327148	1294.873535	5.162591
651.865845	904.338379	8540.354492	1297.994263	5.155252
652.198608	907.459167	8477.420898	1302.452515	5.217904
652.531433	900.103210	8450.894531	1300.669067	5.304952
652.864136	902.629395	8435.141602	1301.189209	5.291194
653.196777	1037.117310	8547.413086	1429.658569	5.226708
653.529358	1040.609497	8493.915039	1436.123047	5.306552
653.861938	1039.420776	8421.470703	1423.565796	5.203772
654.194519	896.685242	8221.076172	1286.105713	5.316762
654.526978	898.542786	8185.856934	1275.183228	5.168440
654.859375	900.400391	8136.371094	1271.542358	5.129125
655.191833	906.344666	8117.126465	1260.248413	4.907980
655.524170	908.053528	8096.990723	1243.901978	4.671740
655.856445	906.716064	8098.179688	1240.781128	4.645300
656.188660	908.870911	8139.937500	1241.078491	4.594172
656.520874	908.276428	8198.859375	1257.202026	4.785976
656.853088	912.734619	8293.668945	1249.400269	4.561287
657.185181	917.415710	8360.616211	1250.663452	4.477210
657.517212	917.490051	8495.699219	1242.564331	4.289592
657.849243	913.106140	8689.406250	1253.486816	4.377154
658.181274	911.248535	8929.180664	1266.712769	4.433365
658.513123	911.174255	9138.937500	1288.260620	4.583097
658.844971	913.849121	9350.700195	1296.582520	4.536448
659.176819	900.994812	9494.550781	1304.458618	4.694958
659.508667	907.904968	9569.000977	1299.703247	4.523657
659.840393	903.298157	9512.754883	1304.755737	4.662984
660.172058	911.694336	9380.050781	1293.981812	4.514306
660.503662	903.075195	9170.442383	1289.746582	4.677080
660.835266	899.880310	8969.377930	1276.149170	4.662854
661.166931	906.716125	8742.235352	1267.678711	4.606748
661.498413	910.505615	8554.843750	1260.397095	4.577133
661.829773	918.010193	8330.820313	1253.412598	4.524632
662.161194	920.164856	8139.565918	1240.929810	4.443097
662.492615	915.112305	7960.941895	1231.939087	4.496657
662.823975	913.551941	7840.349121	1233.276489	4.615763
663.155212	902.332214	7735.210449	1230.453125	4.802089
663.486450	903.149597	7672.572754	1224.137329	4.741729
663.817627	892.227051	7600.648438	1217.672852	4.851302
664.148743	888.734863	7549.082031	1224.954712	5.048083
664.479858	888.660583	7470.692871	1234.391113	5.252641
664.810913	901.366272	7421.727051	1234.762573	5.113157
665.141907	910.356934	7406.495605	1231.270386	4.940065
665.472778	915.112305	7407.907715	1220.273560	4.699998
665.803711	917.564270	7414.669434	1222.576904	4.694593
666.134583	908.722351	7391.857422	1233.796631	5.014153
666.465454	905.973083	7402.631348	1229.487061	4.979698
666.796143	898.914368	7381.826660	1221.239380	4.971917
667.126831	903.372559	7382.940918	1209.053833	4.717618
667.457458	911.545837	7369.417969	1208.533691	4.598850
667.788147	916.078308	7375.882813	1206.304688	4.492804
668.118774	913.997742	7379.448730	1199.617310	4.417628
668.449219	905.973083	7372.761719	1199.914551	4.545401
668.779663	905.304382	7358.124512	1196.942505	4.519545
669.110107	908.573669	7348.019531	1191.666992	4.396237
669.440552	903.818359	7322.236328	1192.187134	4.492833
669.770874	902.109375	7302.992188	1191.295532	4.517910
670.101135	898.320007	7272.156250	1192.781616	4.619849
670.431396	900.623352	7239.166016	1182.676392	4.449809
670.761597	906.641785	7174.225098	1181.859009	4.391122
671.091797	907.979248	7125.854004	1179.481323	4.366477
671.421875	912.586121	7068.714844	1180.150024	4.346301
671.751892	907.459167	7036.765137	1178.812622	4.427148
672.081909	916.672668	6999.910156	1179.184204	4.315326
672.411865	915.855286	6992.183594	1178.515625	4.322682
672.741821	918.158691	6952.654785	1173.240112	4.227054
673.071716	905.378662	6925.385254	1173.685913	4.456926
673.401550	905.304382	6863.193848	1175.171875	4.529582
673.731262	900.400391	6852.865723	1179.184204	4.683502
674.060974	907.236267	6812.816406	1169.747681	4.445142
674.390625	910.208313	6791.640137	1171.085083	4.435600
674.720276	906.864746	6767.640625	1161.054321	4.337132
675.049927	905.229980	6748.544434	1171.233765	4.552276
675.379395	901.589172	6716.669434	1173.462769	4.675320
675.708923	909.019470	6686.947754	1174.725952	4.598646
676.038330	909.539551	6660.941406	1166.106812	4.460952
676.367737	910.802734	6655.963379	1150.206055	4.167043
676.697083	904.412781	6660.867188	1143.741821	4.157577
677.026428	902.034973	6669.412109	1143.890259	4.193506
677.355652	896.536621	6696.235840	1156.967651	4.490423
677.684875	899.880188	6737.176270	1179.778442	4.794999
678.013977	901.069031	6771.578613	1189.512207	4.913426
678.343079	910.059753	6846.699219	1198.651489	4.861197
678.672180	907.087585	6889.942871	1198.577148	4.872081
679.001221	912.065918	7006.523438	1211.803101	4.918193
679.330139	903.298157	7092.714844	1226.069214	5.214887
679.659058	902.778015	7176.751465	1241.078247	5.392121
679.987976	900.623230	7247.115723	1240.781250	5.359780
680.316772	902.778076	7304.478027	1237.363281	5.226505
680.645630	910.802734	7354.854980	1242.490112	5.147186
680.974304	912.065918	7326.024902	1255.418701	5.353211
681.302979	911.471497	7289.765625	1258.836670	5.446052
681.631653	910.208313	7220.664063	1256.087402	5.481048
681.960266	910.431335	7180.243652	1249.325928	5.405179
682.288757	909.465332	7090.485840	1241.375610	5.369830
682.617249	908.499329	6986.833496	1236.545898	5.396982
682.945679	903.298157	6855.540527	1226.589355	5.431419
683.274109	908.350769	6744.904297	1222.131226	5.376125
683.602478	904.561279	6661.685059	1204.670044	5.212824
683.930725	896.313660	6578.614746	1188.769165	5.146779
684.259033	897.353821	6494.652344	1177.772339	5.009891
684.587280	893.861755	6414.925781	1166.701294	4.941793
684.915344	901.737793	6336.090332	1163.952148	4.825126
685.243469	898.691406	6281.255371	1156.076050	4.781822
685.571533	905.081360	6225.304688	1153.178223	4.663279
685.899536	912.065918	6227.756348	1151.989380	4.513496
686.227539	918.381592	6235.930176	1148.571411	4.328871
686.555420	914.072083	6255.769531	1146.862427	4.357985
686.883301	909.613953	6271.892578	1144.261841	4.375899
687.211121	896.016602	6307.706543	1153.921265	4.765696
687.538940	902.480896	6364.027832	1164.620728	4.799736
687.866638	904.338379	6372.572754	1173.239990	4.917521
688.194336	915.260925	6345.453125	1177.326660	4.826086
688.521973	912.140137	6294.332031	1183.939575	5.049977
688.849609	907.384766	6221.589844	1197.091187	5.451548
689.177063	909.985413	6150.407715	1203.852661	5.607702
689.504578	914.666504	6053.442871	1204.818726	5.646329
689.832031	916.746887	5992.736816	1202.143677	5.622486
690.159485	906.790344	5900.898926	1203.258301	5.936354
690.486816	899.583008	5837.370605	1212.768921	6.342637
690.814087	906.716125	5767.748535	1219.976196	6.444312
691.141296	912.734619	5731.562988	1217.375610	6.321889
691.468506	920.462097	5681.929199	1214.032104	6.165536
691.795715	918.233093	5630.882813	1202.738159	6.037051
692.122803	917.935852	5576.567871	1207.939331	6.225078
692.449829	906.270325	5542.908691	1195.010742	6.227366
692.776855	898.691406	5509.917969	1179.109985	6.081214
693.103821	896.685242	5473.509766	1156.373169	5.673976
693.430664	905.452942	5443.268066	1145.079224	5.280653
693.757568	905.898743	5428.779785	1139.060669	5.155164
694.084351	903.743958	5414.067871	1128.138184	4.975125
694.411133	900.400391	5388.061523	1122.937012	4.958855
694.737854	900.920410	5380.928711	1119.296265	4.874452
695.064575	899.805969	5399.578613	1121.005127	4.915785
695.391174	905.527344	5433.089355	1122.937012	4.801915
695.717773	906.493225	5447.949707	1130.293091	4.927931
696.044250	915.335205	5474.921875	1137.648926	4.875742
696.370789	912.214417	5540.605469	1143.444702	4.995911
696.697205	912.214417	5638.833496	1140.249512	4.824486
697.023621	899.434387	5764.033691	1140.175293	4.948833
697.349915	896.313660	5924.527344	1149.611694	5.037535
697.676208	899.805969	6141.863281	1171.828247	5.189228
698.002380	905.675842	6384.981934	1183.567993	5.071667
698.328674	912.734619	6624.607910	1189.735229	4.849558
698.654724	904.338379	6794.612793	1183.270874	4.735476
698.980896	905.378662	6909.039063	1191.518433	4.766089
699.306946	907.310547	6912.010254	1183.642334	4.601925
699.632935	915.260925	6841.497559	1185.276978	4.556282
699.958862	921.056580	6677.287598	1173.462891	4.384923
700.284729	915.929688	6483.357910	1158.379395	4.354788
700.610596	910.431213	6252.053223	1144.856323	4.388650
700.936340	901.514893	6057.157715	1129.252808	4.417256
701.262146	893.713135	5831.128906	1129.698486	4.779531
701.587830	901.812195	5641.210938	1118.924683	4.581013
701.913513	909.019531	5435.466797	1116.621216	4.586416
702.239075	913.551941	5291.319824	1113.203247	4.560573
702.564697	905.898743	5182.837891	1119.964844	5.005124
702.890137	903.149597	5094.789063	1130.367188	5.420733
703.215698	900.920471	5003.173340	1132.744995	5.651151
703.541016	908.202148	4912.003906	1142.255737	5.845784
703.866455	909.316650	4853.156250	1135.048340	5.723653
704.191711	910.579895	4812.215820	1140.398071	5.890303
704.517029	902.257996	4780.711426	1132.447754	5.935091
704.842163	900.920471	4753.813965	1138.837891	6.175032
705.167419	900.549011	4739.473633	1138.169189	6.189759
705.492493	901.440613	4732.043457	1146.490967	6.397175
705.817566	904.635559	4701.802246	1141.809937	6.246088
706.142578	910.579773	4705.294922	1143.593140	6.140471
706.467590	912.511658	4698.755859	1137.723267	5.948153
706.792480	909.539612	4722.012207	1134.825562	5.909182
707.117371	910.282715	4708.340332	1129.995728	5.784878
707.442200	919.347656	4716.513672	1117.958740	5.230508
707.766907	917.341492	4729.516602	1107.556519	4.989672
708.091675	912.140137	4754.779297	1098.268433	4.843762
708.416321	903.743958	4781.751465	1094.033203	4.906882
708.741028	906.270264	4804.042480	1097.748413	4.912502
709.065552	911.768738	4814.519531	1098.491333	4.784384
709.390137	914.889404	4811.844238	1097.302612	4.680917
709.714600	913.700623	4803.373535	1098.714478	4.756540
710.039063	904.932922	4830.048828	1099.977539	4.969143
710.363403	895.645020	4869.949219	1109.636841	5.384385
710.687744	893.267273	4939.867676	1111.791504	5.400193
711.012085	896.610901	5005.253906	1111.271484	5.224610
711.336304	898.691406	5065.587891	1114.169312	5.171185
711.660461	902.109314	5104.002441	1121.005127	5.209457
711.984619	901.960754	5086.467285	1135.271240	5.575580
712.308716	897.725525	5032.448730	1139.803711	5.854762
712.632751	894.976318	4953.391113	1132.670776	5.856830
712.956726	898.542786	4886.072754	1132.002075	5.854734
713.280701	909.539551	4843.273926	1130.441650	5.615582
713.604553	908.499329	4797.875488	1139.506592	5.939443
713.928467	902.852356	4761.912598	1138.466309	6.105475
714.252258	897.205383	4726.916504	1140.918335	6.363742
714.575989	897.725403	4712.427246	1139.209351	6.330349
714.899719	895.793640	4717.107910	1132.893677	6.204673
715.223267	899.954590	4737.318848	1119.519165	5.721755
715.546936	904.709961	4749.207031	1115.952515	5.494673
715.870422	908.796570	4753.665527	1115.729614	5.382057
716.193970	903.298157	4736.946777	1115.803955	5.543173
716.517395	908.499329	4700.761230	1112.757446	5.386182
716.840820	911.397156	4656.997559	1110.751465	5.322360
717.164124	921.576660	4594.583008	1107.704956	5.067464
717.487488	914.294922	4519.462891	1106.293213	5.325641
717.810730	909.390930	4446.126465	1094.702026	5.239608
718.133972	902.183594	4366.770996	1087.568970	5.350864
718.457092	902.034973	4297.446777	1079.247070	5.219163
718.780212	913.180481	4225.818848	1067.730103	4.665454
719.103210	917.787170	4166.524902	1068.473145	4.638293
719.426208	916.969910	4113.324707	1060.819946	4.500440
719.749207	913.626221	4065.176025	1067.358521	4.877991
720.072083	909.465332	4032.631592	1060.522583	4.836670
720.394958	909.613953	4019.479736	1063.494751	4.948149
720.717773	905.898743	3974.229736	1055.247192	4.867416
721.040527	912.660339	3936.112549	1056.881958	4.770098
721.363281	914.220703	3908.174561	1046.925293	4.432419
721.685913	908.945129	3913.301514	1049.005859	4.661921
722.008545	900.846191	3896.805908	1042.467163	4.727065
722.331055	898.468506	3862.180908	1034.442505	4.587962
722.653503	907.013367	3823.989502	1035.928589	4.419482
722.976013	911.397156	3819.531250	1036.077148	4.287285
723.298401	908.945129	3829.339111	1040.386719	4.500817
723.620789	898.840027	3835.060547	1038.380493	4.752384
723.943115	897.428284	3817.748291	1043.061523	4.986893
724.265381	897.279724	3795.234619	1055.470093	5.458690
724.587585	902.926758	3783.643311	1056.287476	5.323700
724.909790	905.898743	3788.696045	1054.801514	5.165218
725.231873	906.939026	3805.860107	1044.027588	4.728951
725.553894	911.099915	3839.147461	1048.262817	4.684449
725.875916	951.594971	3909.735107	1083.705200	4.465990
726.197937	954.715637	3928.682373	1097.228271	4.792005
726.519775	951.520691	3933.066162	1095.667847	4.834646
726.841675	909.316711	3902.676514	1067.581421	5.287193
727.163513	907.830627	3920.508789	1065.203735	5.223694
727.485291	903.000977	3946.960205	1059.259644	5.133402
727.806946	903.669617	3980.991211	1056.064453	4.952191
728.128662	899.508728	3988.495850	1053.315308	4.979191
728.450256	905.527283	3980.248047	1066.392578	5.231867
728.771790	905.527161	3956.322998	1065.872437	5.255851
729.093323	911.397156	3946.440430	1068.101685	5.163173
729.414795	910.579773	3939.901611	1059.705444	4.922741
729.736145	910.431152	3936.781006	1061.488647	4.991409
730.057495	915.781006	3951.270264	1055.470093	4.601864
730.378845	913.254700	3982.774170	1063.048950	4.880055
730.700134	902.034973	3996.446045	1058.516602	5.056911
731.021301	891.929932	4022.006104	1066.466919	5.576126
731.342468	896.611023	4043.182617	1056.436035	5.079338
731.663574	910.282715	4084.271729	1052.126465	4.468943
731.984680	916.969910	4096.605957	1044.101929	3.998320
732.305664	909.242371	4098.389160	1048.782959	4.375484
732.626648	905.898743	4089.844482	1055.990356	4.714013
732.947571	900.400391	4088.432861	1053.612549	4.805853
733.268433	911.768738	4073.423828	1047.371094	4.288968
733.589233	911.917297	4059.826416	1040.683960	4.090546
733.909973	915.112305	4006.477295	1045.216309	4.208626
734.230713	910.802734	3943.171143	1044.399048	4.405675
734.551331	904.115417	3864.410156	1042.467163	4.673580
734.871948	904.561279	3824.806885	1042.913086	4.737677
735.192505	910.134033	3787.952393	1046.999634	4.755880
735.513062	915.929626	3757.934570	1051.606323	4.773978
735.833435	912.660339	3707.037109	1051.234863	4.959050
736.153931	906.790344	3669.885742	1051.160522	5.224944
736.474304	909.168152	3620.400391	1051.829346	5.261858
736.794617	913.477722	3606.208252	1046.999634	4.958607
737.114807	910.951355	3583.992188	1040.832642	4.858934
737.434998	908.722229	3605.985596	1040.609741	4.889678
737.755188	901.812195	3594.617188	1043.507446	5.261995
738.075256	899.508728	3611.855469	1045.736450	5.391189
738.395325	897.279602	3627.384766	1043.135864	5.342515
738.715271	904.189758	3670.406006	1040.460938	4.926266
739.035278	910.431213	3696.560303	1040.312378	4.661706
739.355164	909.019531	3703.841797	1035.854248	4.538203
739.675049	904.115540	3685.934814	1031.470459	4.578116
739.994873	908.202148	3662.306641	1032.956421	4.529758
740.314636	909.613953	3628.870361	1033.402222	4.552284
740.634277	914.072083	3583.768799	1035.334106	4.542165
740.953979	906.716125	3540.376221	1029.761353	4.672024
741.273499	912.140198	3497.428955	1029.018433	4.520896
741.593140	907.384766	3467.188232	1026.343506	4.647182
741.912598	911.025574	3437.169922	1019.581970	4.297316
742.232117	914.889343	3396.749023	1013.266296	3.963840
742.551453	920.164856	3361.455078	1005.910339	3.512302
742.870850	920.239197	3333.814453	1010.739929	3.749655
743.190063	912.065918	3307.362549	1013.117676	4.218758
743.509338	910.579895	3281.728271	1012.523193	4.299322
743.828552	908.945251	3254.310547	1007.544922	4.204022
744.147705	909.242432	3246.805908	1004.944336	4.094088
744.466797	918.158752	3239.227295	1011.705872	4.030347
744.785828	916.598389	3232.985596	1007.916443	3.942262
745.104858	917.118591	3218.496826	1013.191895	4.174599
745.423706	905.230164	3207.946045	1007.396301	4.436767
745.742615	904.264160	3186.323486	1010.294128	4.646241
746.061401	906.938965	3171.760498	1004.275635	4.297763
746.380249	909.390930	3159.128906	1006.727539	4.326575
746.698975	910.133972	3159.203125	1000.931946	4.037136
747.017639	910.654114	3155.785156	1006.950500	4.289121
747.336304	913.329102	3150.137939	1003.309631	4.022719
747.654907	910.356934	3136.689453	1016.832703	4.782564
747.973389	909.539551	3135.128906	1017.724304	4.860949
748.291931	904.264099	3143.302002	1020.622131	5.196787
748.610352	904.264160	3151.846924	1015.569519	4.952225
748.928711	908.276428	3150.509766	1009.253845	4.503430
749.247070	908.499451	3148.503174	1006.578918	4.378541
749.565308	913.031799	3144.045166	1005.241516	4.133087
749.883545	909.168152	3135.797607	1007.916443	4.434878
750.201782	912.957520	3115.290283	1010.145508	4.412957
750.519836	916.524109	3106.447998	1009.179504	4.230987
750.837952	906.493164	3114.472900	1004.572754	4.442051
751.155884	909.762512	3116.181641	1010.665527	4.573157
751.473877	905.378662	3103.401611	1012.968933	4.894866
751.791809	915.186584	3085.123291	1015.272278	4.612378
752.109619	912.511719	3086.163818	1007.470520	4.368629
752.427490	906.344543	3081.111328	1005.390137	4.554308
752.745300	909.316650	3064.021484	1012.374512	4.782922
753.062988	901.663513	3037.123779	1017.278564	5.414058
753.380615	908.796570	3043.439453	1017.872986	5.109820
753.698303	904.189880	3044.479736	1013.117676	5.089395
754.015808	907.979248	3046.857422	1019.953552	5.235188
754.333374	907.533386	3039.278564	1031.098999	5.796453
754.650757	907.904846	3037.346436	1032.213379	5.837612
754.968262	911.545715	3034.077148	1026.269165	5.405029
755.285583	905.675781	3025.755127	1014.900879	5.151935
755.602905	907.310547	3022.188721	1008.585144	4.788673
755.920105	900.400391	3009.780273	1008.362305	5.118183
756.237305	903.149597	3005.248047	1006.430359	4.913222
756.554443	900.103088	3001.978516	1006.207458	5.048080
756.871582	907.756348	3029.024658	1001.526367	4.420470
757.188599	912.660339	3044.033936	1003.086731	4.242635
757.505615	912.883301	3067.141846	1007.619202	4.397611
757.822510	909.168152	3077.618896	1009.476807	4.625822
758.139465	904.932800	3100.578125	1009.773987	4.774960
758.456238	901.960693	3123.760498	1012.968994	4.996323
758.773010	900.846191	3150.286865	1010.591309	4.878774
759.089783	899.954590	3172.726318	1013.637695	5.001959
759.406433	901.737793	3174.732422	1012.523132	4.873981
759.723145	906.418945	3172.651611	1018.690247	4.954094
760.039673	903.743958	3167.896484	1018.318848	5.060387
760.356201	903.669678	3184.094482	1017.724426	5.001470
760.672668	899.954529	3190.410156	1021.588135	5.310455
760.989136	902.406494	3203.561768	1026.120483	5.376169
761.305481	903.743958	3202.075928	1030.578735	5.518558
761.621826	906.641785	3218.050781	1025.005981	5.120868
761.938049	907.236145	3240.044678	1029.464233	5.239525
762.254333	908.276367	3276.378662	1032.807983	5.258709
762.570496	909.911133	3351.795898	1043.581665	5.474072
762.886597	914.443604	3475.955811	1052.423706	5.386666
763.202637	914.815125	3686.752686	1058.070679	5.168066
763.518677	905.007141	3974.080811	1069.513428	5.360128
763.834656	898.617126	4255.093750	1078.132446	5.348326
764.150574	891.335449	4442.410645	1091.729858	5.643204
764.466370	894.233215	4440.999512	1087.048828	5.436378
764.782288	900.103088	4325.979004	1076.795044	5.157570
765.097961	908.722168	4159.615234	1062.900391	4.742642
765.413696	907.979187	3971.109375	1052.052124	4.703454
765.729309	907.904968	3779.779541	1034.368164	4.403507
766.044861	905.452942	3592.016602	1021.290955	4.311754
766.360474	912.363098	3467.782471	1014.157898	3.983487
766.675903	912.140198	3364.873047	1021.068054	4.441081
766.991394	915.038025	3283.511719	1018.393127	4.363785
767.306763	913.329041	3213.592529	1020.845154	4.674078
767.622131	911.174316	3162.621094	1012.225891	4.488295
767.937378	909.093750	3117.221924	1014.900879	4.791711
768.252625	903.075195	3060.900391	1007.842102	4.855208
768.567810	901.514893	2998.857666	1007.544922	5.055446
768.882996	898.468506	2956.356689	1007.544922	5.300406
769.197998	899.805969	2911.106445	1005.984558	5.279101
769.513062	897.502625	2888.369873	1005.167236	5.407926
769.828064	901.737793	2858.945557	998.108459	4.923885
770.142944	902.778076	2836.580322	1004.275635	5.248600
770.457825	904.412781	2813.917969	1003.904114	5.210320
770.772705	907.756348	2788.878174	1001.377747	4.976892
771.087402	909.391113	2773.720459	989.935242	4.320273
771.402100	910.579895	2751.132568	986.442932	4.121753
771.716736	899.657410	2729.213135	983.099365	4.560777
772.031372	896.908203	2715.764404	988.077637	5.012460
772.345947	904.264099	2699.269287	986.442871	4.578191
772.660461	908.499329	2688.049561	989.860840	4.572027
772.974854	910.728333	2669.473877	988.597656	4.427549
773.289246	905.824463	2660.557617	986.962952	4.623979
773.603638	910.282715	2640.198486	986.962952	4.432600
773.917908	909.836914	2619.913818	985.105469	4.401472
774.232178	908.202148	2600.520752	983.693665	4.460834
774.546265	900.103210	2591.158936	988.746338	5.241881
774.860474	905.675842	2572.731689	997.513977	5.509001
775.174561	908.053528	2565.449951	1000.486145	5.576977
775.488586	915.409485	2560.100342	994.096130	4.784282
775.802551	907.979248	2548.137695	982.727783	4.557397
776.116516	904.561340	2537.735352	981.018860	4.681529
776.430359	903.966980	2519.531006	981.316101	4.787747
776.744202	908.945129	2527.035645	987.854675	4.876708
777.057922	910.654114	2522.800293	989.712219	4.903904
777.371704	904.264099	2523.543457	993.798889	5.529299
777.685303	899.211426	2506.676514	999.222961	6.221693
777.998962	901.143372	2497.240234	1003.755371	6.428933
778.312500	901.440613	2498.131592	1001.674988	6.277632
778.626038	905.452942	2511.654785	997.662598	5.740851
778.939453	902.703796	2502.961426	995.582214	5.803967
779.252869	903.372498	2488.918213	993.724609	5.698487
779.566223	897.131104	2475.766602	995.210632	6.212931
779.879578	901.143372	2479.927490	993.873230	5.873498
780.192749	905.898743	2485.723389	992.164246	5.460448
780.505920	915.112305	2476.138428	980.721680	4.202965
780.819031	913.403320	2453.847412	971.062256	3.743007
781.132141	915.781006	2434.156982	971.953918	3.699539
781.445190	918.827454	2432.002197	969.650574	3.358708
781.758118	917.787109	2425.166504	979.607117	4.101158
782.071045	915.186584	2411.197510	981.984680	4.465081
782.383911	910.579834	2399.160400	992.758728	5.520621
782.696838	902.778015	2397.748779	982.579163	5.337974
783.009583	898.765808	2392.101807	980.721680	5.488107
783.322266	897.205322	2370.256836	977.155090	5.427493
783.634888	904.858582	2362.455078	983.916687	5.423868
783.947510	908.870911	2355.916260	975.594727	4.611038
784.260132	907.310547	2352.944336	973.142761	4.553865
784.572571	903.372498	2345.439697	969.056152	4.554826
784.885010	908.499329	2340.312744	976.189270	4.727567
785.197449	913.551941	2330.876221	972.994141	4.193974
785.509766	913.626282	2312.374756	979.458496	4.706508
785.822083	903.743958	2303.532959	976.857910	5.223212
786.134277	900.103210	2300.263672	979.309875	5.656971
786.446533	905.378601	2307.173584	968.461670	4.500164
786.758606	915.038086	2305.836182	972.919861	4.161767
787.070740	920.387878	2307.768311	973.885742	3.856034
787.382690	920.610657	2319.359375	981.761902	4.371853
787.694641	915.483826	2354.504639	979.309875	4.435381
788.006653	912.957520	2394.108154	980.647278	4.570079
788.318481	911.620117	2436.163330	984.065247	4.751924
788.630310	908.276428	2478.292969	985.774231	4.936113
788.942017	909.093811	2512.026611	986.814453	4.848652
789.253784	908.127930	2531.344971	981.464661	4.517987
789.565430	908.127930	2516.781982	973.811462	4.083136
789.877014	909.019470	2488.026611	971.136475	3.933928
790.188538	908.870850	2433.785645	973.885742	4.263510
790.500061	911.025635	2384.300049	984.065247	4.957638
790.811462	901.737793	2346.925781	982.876465	5.614403
791.122925	902.926697	2315.867188	985.625671	5.852970
791.434204	899.583008	2289.118164	975.000305	5.427520
791.745483	903.595398	2265.266846	973.811523	5.156613
792.056702	905.972961	2253.230225	968.684570	4.654761
792.367920	905.898682	2237.106201	976.857910	5.330441
792.678955	901.589172	2222.468750	976.412109	5.664629
792.990112	895.199219	2212.140625	974.331543	6.008796
793.301086	902.035095	2211.248779	967.124207	4.971619
793.612122	906.270325	2201.663818	969.427551	4.875524
793.922974	907.384827	2188.066406	965.192322	4.513807
794.233826	900.920471	2182.270752	971.508118	5.508848
794.544556	898.319885	2193.416260	965.489563	5.186461
794.855286	904.487061	2196.462646	965.786804	4.744652
795.166016	904.858582	2208.053955	959.694031	4.207769
795.476624	910.654114	2212.066162	968.907471	4.476165
795.787292	902.629456	2240.449951	980.721497	5.837258
796.097778	901.366211	2264.003906	982.133362	5.927265
796.408264	901.737793	2290.901367	970.467773	4.947580
796.718689	903.892578	2313.637939	964.003418	4.263950
797.029053	909.242371	2318.690674	966.455505	4.059258
797.339355	910.877014	2317.055908	967.198486	4.005285
797.649658	911.025635	2311.854736	965.043762	3.856154
797.959839	905.898743	2291.421631	963.483398	4.156168
798.270020	905.824463	2265.564209	967.644287	4.546445
798.580078	905.230042	2232.648193	970.616394	4.925829
798.890137	908.870911	2209.317139	973.737122	4.987996
799.200195	904.264099	2194.679443	973.142761	5.337713
799.510071	906.344543	2177.441162	966.901367	4.764140
799.820007	903.223877	2170.531250	960.808411	4.543849
800.129883	895.942200	2154.704590	954.492737	4.651437
800.439575	896.016602	2143.261963	964.226379	5.468834
800.749329	897.279602	2138.209229	962.740417	5.275143
801.058960	902.406494	2131.670654	966.678406	5.228487
801.368591	902.332214	2123.051514	962.963196	4.966825
801.678162	897.056824	2104.030029	964.746521	5.608219
801.987671	902.629456	2097.937256	967.272766	5.408089
802.297119	902.109375	2097.045654	963.557617	5.142386
802.606506	908.127869	2086.791992	959.396729	4.349743
802.915894	904.561340	2078.247070	949.811707	3.855407
803.225159	903.521057	2061.603271	952.189392	4.202494
803.534424	902.852356	2061.528809	951.743469	4.219565
803.843628	899.211609	2058.854248	962.814636	5.484710
804.152771	901.440674	2057.516602	956.944641	4.801066
804.461792	902.332214	2060.414307	963.631897	5.293207
804.770874	908.053528	2051.349365	964.820801	4.965230
805.079773	909.242371	2067.324463	968.610352	5.126406
805.388733	911.471436	2071.188232	966.604065	4.753973
805.697571	905.304382	2102.469727	965.043762	4.990069
806.006470	904.932800	2114.655518	962.666016	4.772434
806.315125	905.007080	2125.875244	958.950928	4.418483
806.623901	909.762512	2120.525635	958.876648	4.056461
806.932495	907.087585	2107.819580	953.080994	3.830448
807.241150	910.133972	2099.720703	951.892090	3.510305
807.549622	911.545715	2085.454346	942.604248	2.645737
807.858154	916.078186	2075.795166	943.570251	2.370584
808.166565	911.397156	2060.562744	942.752930	2.728569
808.474915	907.979187	2048.006104	957.093445	4.308167
808.783264	902.480774	2027.572632	955.012878	4.669139
809.091492	900.623291	2013.678101	957.316162	5.093448
809.399719	900.028809	2001.863892	952.189270	4.733963
809.707825	895.199219	1993.393433	954.269836	5.378886
810.015930	891.558350	1972.737305	952.189453	5.607869
810.323975	891.632629	1968.501953	942.158508	4.691923
810.632080	904.264160	1967.907593	946.245178	3.946907
810.939880	907.161926	1970.656860	942.232727	3.297693
811.247864	911.545837	1953.121460	949.068604	3.602500
811.555664	902.852356	1943.536499	951.223450	4.648009
811.863464	908.722351	1944.279297	953.824036	4.355307
812.171143	907.384766	1939.301147	949.440186	4.075468
812.478882	907.830566	1932.985352	946.170837	3.739949
812.786438	904.338379	1918.942017	949.142883	4.415961
813.094055	908.127869	1924.291992	949.588806	4.080142
813.401489	910.356934	1918.570679	951.223450	4.053359
813.708984	909.019531	1914.558228	950.554749	4.130643
814.016357	894.233337	1912.329102	960.957031	6.553774
814.323730	888.066162	1907.945313	960.659851	7.117872
814.630981	887.768982	1904.750122	956.275940	6.736306
814.938232	897.205383	1888.552124	949.217285	5.246590
815.245361	900.920593	1893.381714	946.096497	4.551907
815.552490	901.737793	1901.629395	958.133606	5.640193
815.859619	899.211487	1909.059570	957.019043	5.724381
816.166565	898.914307	1909.802856	961.625793	6.203600
816.473572	898.468506	1901.481079	957.093323	5.844873
816.780457	900.697571	1903.264282	963.260437	6.240270
817.087341	897.799805	1895.313843	968.758850	7.113589
817.394043	903.223877	1906.087769	959.248108	5.586424
817.700806	903.000977	1916.712891	954.418457	5.072198
818.007507	905.824463	1939.449585	948.994385	4.176555
818.314209	903.000977	1947.845825	955.458740	5.020627
818.620667	907.681946	1959.065430	952.560974	4.268569
818.927246	911.099915	1979.870239	954.864319	4.094837
819.233704	912.363098	2008.774048	954.641418	3.856065
819.540161	910.802734	2063.832275	964.449402	4.652671
819.846497	906.938965	2133.899658	963.706238	4.626658
820.152832	902.629456	2233.836914	966.158264	4.772269
820.458984	900.697571	2339.198242	960.436951	4.152892
820.765259	901.886414	2444.485107	968.090149	4.291702
821.071350	905.230042	2572.657227	977.006531	4.304625
821.377502	910.728455	2764.358154	988.746277	4.208922
821.683472	910.356934	3162.100830	1000.783386	4.015841
821.989441	904.635681	3914.936279	1028.721191	4.122031
822.295349	899.880188	5134.837891	1080.138672	4.256442
822.601196	902.034973	6647.419434	1143.073120	4.195335
822.907043	912.140198	8054.563965	1204.967285	4.099828
823.212769	916.226868	8881.999023	1237.660400	4.035184
823.518494	914.666504	8906.295898	1244.124756	4.122542
823.824097	902.332214	8231.477539	1216.558472	4.287352
824.129700	898.319885	7153.196777	1170.193481	4.346586
824.435242	897.353943	6026.916504	1117.958862	4.300658
824.740723	904.932861	5062.318359	1075.903442	4.112454
825.046082	902.257996	4340.839355	1045.588013	4.168289
825.351501	910.133972	3813.067139	1025.897705	3.987819
825.656799	909.465332	3452.030273	1011.631592	4.018236
825.962036	910.802734	3210.323242	1006.356018	4.155357
826.267212	911.694397	3113.432373	1004.275574	4.204913
826.572449	916.747009	3126.658447	1009.699707	4.206173
826.877502	923.880066	3307.882813	1019.433289	4.008101
827.182495	921.428040	3598.554932	1031.321777	4.104913
827.487488	920.387756	3964.867432	1039.940918	3.926883
827.792419	905.601563	4267.502441	1048.039917	4.236840
828.097290	900.325989	4383.563965	1049.526001	4.283371
828.402100	892.895813	4266.536621	1047.891235	4.594307
828.706848	899.731689	3946.811768	1031.619019	4.328319
829.011597	899.062988	3528.859131	1007.099060	4.108154
829.316223	898.468506	3118.559326	984.956848	3.895712
829.620789	900.994812	2777.733154	976.189209	4.006653
829.925354	899.880188	2531.047852	977.006531	4.728290
830.229797	909.539551	2349.971924	972.325439	4.358822
830.534302	912.734680	2215.038330	966.604187	4.136478
830.838562	920.313477	2116.587158	962.740417	3.546592
831.142944	912.214539	2050.086426	960.734192	4.264070
831.447144	904.561340	2014.346680	958.876648	4.894217
831.751404	895.273499	1989.678223	955.458679	5.499353
832.055542	888.586243	1962.855103	957.910706	6.453176
832.359619	885.316895	1947.474243	959.694031	7.002460
832.663635	894.010315	1970.062378	963.483398	6.456294
832.967651	896.462341	2035.820313	964.820801	5.999735
833.271545	904.041260	2161.020264	969.056152	5.172313
833.575439	901.440613	2356.733643	971.582336	4.819767
833.879211	905.230042	2621.177002	981.613281	4.451375
834.183044	902.629395	2893.125000	985.922791	4.184556
834.486694	900.623291	3097.680420	1006.133118	4.802325
834.790344	900.549011	3156.305420	1014.157898	5.036399
835.093933	904.041199	3090.844727	1011.854492	4.930178
835.397522	904.784180	2902.041260	993.501709	4.441968
835.700928	902.332214	2683.814209	978.641174	4.283454
836.004395	903.966980	2449.388916	979.458496	4.884849
836.307739	907.162048	2272.251221	975.966309	5.040276
836.611023	914.443665	2123.125732	968.387390	4.463020
836.914307	909.539551	2016.575806	956.424561	4.235183
837.217529	903.372498	1918.644897	944.461914	4.047132
837.520691	889.329285	1853.927124	941.192566	5.376674
837.823730	890.964050	1793.444824	938.369141	5.252753
838.126831	897.428223	1755.179077	949.737366	6.098408
838.429749	911.545715	1711.340332	948.028503	4.561520
838.732727	911.842957	1680.504517	946.170898	4.465937
839.035522	907.384827	1659.774048	936.734375	3.900846
839.338379	904.635559	1662.746460	932.870605	3.724395
839.641113	904.784180	1680.653320	935.248291	3.926450
839.943848	913.774902	1720.851074	936.808655	2.853975
840.246460	917.564392	1777.172485	945.799316	3.284628
840.549072	914.963684	1842.707520	956.647461	4.493027
840.851563	911.174255	1880.081665	960.957031	5.138032
841.154053	913.329041	1891.152832	969.576172	5.752277
841.456482	918.010193	1851.252319	949.885925	3.415591
841.758850	904.635681	1792.627563	942.307129	4.242319
842.061157	895.124939	1709.333984	936.957275	5.137788
842.363403	893.787415	1632.950806	946.542297	7.137107
842.665588	903.966980	1579.898804	948.548523	6.595568
842.967712	904.412781	1542.970337	935.694153	4.898755
843.269775	899.434387	1527.663940	931.310303	5.073928
843.571777	892.524231	1507.082031	930.864441	6.238666
843.873840	894.456238	1488.357788	932.573425	6.418098
844.175659	894.307617	1470.302246	938.814758	7.727006
844.477600	900.400391	1452.841187	933.539368	5.998648
844.779297	894.456238	1436.420288	933.390686	7.183954
845.081116	897.056824	1433.373901	927.818054	5.735642
845.382751	896.462341	1424.754761	929.675598	6.286908
845.684387	904.189880	1419.256470	933.539368	5.698193
845.985962	901.886475	1402.241089	926.480652	4.915349
846.287537	902.852356	1389.089355	919.124756	3.346598
846.588989	899.211487	1383.665161	911.620117	2.561366
846.890381	907.310547	1367.690063	916.078308	1.904464
847.191711	909.688171	1357.733643	922.245361	2.802660
847.493042	907.607666	1349.188843	922.171082	3.298015
847.794250	904.115479	1359.888550	920.833679	3.668097
848.095459	899.805908	1359.739868	923.211365	5.088873
848.396606	904.338379	1355.355957	927.000793	5.024730
848.697693	898.691406	1343.095947	923.805725	5.651229
848.998657	903.000977	1347.034058	922.394043	4.367482
849.299622	907.161926	1342.575806	924.994629	4.095575
849.600464	913.403381	1342.798828	927.743713	3.339656
849.901367	909.093811	1335.145630	926.480652	4.080922
850.202087	897.799805	1322.662720	918.455872	4.861819
850.502808	889.626465	1312.483276	924.994568	8.364085
850.803467	896.611023	1309.734131	920.833557	5.863273
851.104065	906.493164	1320.136475	931.235901	5.981660
851.404663	912.585999	1312.186035	929.675598	4.276676
851.705139	908.499329	1307.876465	936.808655	7.088369
852.005615	909.168030	1301.337769	930.492981	5.437684
852.306030	915.558105	1302.378052	924.474426	2.305031
852.606384	916.524109	1302.378052	918.530212	0.519913
852.906616	916.226868	1300.669067	923.062683	1.778113
853.206909	912.957520	1305.424438	920.759277	1.987877
853.506958	916.746887	1298.068481	918.901672	0.565083
853.807129	915.409485	1293.833374	913.180359	-0.589055
854.107178	912.808838	1286.551636	923.062744	2.743573
854.407166	906.344543	1284.768433	925.737610	5.124694
854.707092	906.716003	1281.573364	928.263977	5.748313
855.007019	909.762451	1276.669434	925.440369	4.272995
855.306763	910.133972	1273.400024	930.344421	5.563539
855.606567	908.573669	1267.901611	927.149353	5.169563
855.906250	902.629395	1269.536255	923.880066	5.791843
856.205933	905.973083	1259.134033	921.279480	4.334114
856.505493	902.778015	1260.768677	919.867676	4.773773
856.805054	907.459167	1271.913940	918.827454	3.119258
857.104492	906.195984	1283.505249	914.963684	2.323744
857.403931	911.397156	1289.598022	924.103027	3.359556
857.703308	908.870850	1284.173950	927.372253	4.929723
858.002563	910.505554	1285.214233	934.356750	6.365264
858.301819	911.397217	1280.978882	927.000732	4.221940
858.601013	914.220703	1265.003784	927.446594	3.770390
858.900208	914.294922	1255.790405	921.056458	1.979978
859.199219	914.294983	1242.341431	915.112305	0.249148
859.498291	916.746887	1248.508667	914.072083	-0.806243
859.797302	908.053528	1250.514771	919.273254	3.276203
860.096191	899.360168	1260.025513	927.595154	7.828583
860.395020	892.821472	1249.474487	929.006897	10.145835
860.693787	896.685242	1249.920410	926.109131	8.329830
860.992554	897.948425	1246.428101	929.378418	9.019176
861.291260	903.223938	1248.285645	925.960510	6.589132
861.589844	902.035156	1233.425171	928.783997	8.071710
861.888428	911.917297	1229.264160	926.703613	4.659355
862.186890	907.013367	1230.081543	929.972839	7.106696
862.485413	913.254700	1235.728516	927.892334	4.539170
862.783813	909.242432	1239.889526	924.325867	4.561793
863.082153	909.762512	1242.713013	920.833679	3.325169
863.380371	913.477722	1240.038086	918.678894	1.592714
863.678589	914.294922	1238.774902	924.920227	3.274564
863.976746	919.867676	1240.038208	924.400146	1.415643
864.274902	913.031738	1246.205200	931.681824	5.597711
864.572937	906.418945	1248.582886	924.697449	5.342031
864.870911	901.514893	1244.124756	921.353821	5.790530
865.168884	898.022705	1247.468384	916.969910	5.422074
865.466736	903.521057	1247.765625	922.691223	5.568764
865.764587	904.412781	1245.685181	923.582825	5.617227
866.062317	901.960693	1235.505737	919.421875	5.235030
866.360107	902.109314	1234.539673	918.381592	4.894943
866.657715	904.635559	1243.604614	919.421814	4.362125
866.955322	908.499329	1247.839844	915.260803	1.992534
867.252808	909.985413	1251.926514	907.161865	-0.825741
867.550293	904.635559	1242.192871	911.768738	2.113176
867.847717	907.459167	1232.310669	916.226868	2.698987
868.145081	902.778076	1228.892700	911.991638	2.825253
868.442383	902.034973	1232.236206	911.471436	2.857791
868.739624	902.332214	1239.666504	905.675842	0.991191
869.036804	901.143372	1231.419067	908.722351	2.294743
869.333984	907.236267	1230.378784	903.298157	-1.218691
869.631042	908.870911	1228.669800	910.802734	0.604075
869.928101	915.929688	1226.143555	916.375427	0.143688
870.224976	914.072083	1222.428345	915.335144	0.409611
870.521851	912.808899	1219.604858	919.496094	2.179688
870.818726	911.991516	1223.840088	913.551941	0.500379
871.115479	914.072083	1227.183716	916.672668	0.830562
871.412231	912.585999	1237.066040	916.746887	1.282325
871.708862	908.053528	1240.929810	929.452820	6.428602
872.005493	901.217712	1240.558228	931.533203	8.933649
872.302063	904.189758	1237.214600	923.805725	5.890241
872.598572	908.053467	1226.663574	910.579773	0.792915
872.895020	913.923523	1230.898804	907.979187	-1.875331
873.191406	916.449768	1232.533569	909.836853	-2.092140
873.487671	914.889465	1240.706909	920.982178	1.869977
873.783997	910.134094	1236.174316	920.164856	3.076541
874.080200	906.939026	1240.335327	918.381592	3.432122
874.376343	906.493164	1231.938965	913.774902	2.237466
874.672424	909.762512	1228.818359	921.205139	3.586402
874.968445	909.242371	1223.022827	924.400208	4.830714
875.264465	904.412781	1233.573730	924.325867	6.049650
875.560364	902.926697	1233.499390	918.901672	4.832515
875.856201	904.041260	1230.973145	916.301086	3.749964
876.152039	904.709961	1225.548950	914.443542	3.033790
876.447754	905.898743	1232.459106	911.397156	1.683736
876.743469	897.725525	1241.226807	917.341370	5.710559
877.039063	904.858582	1238.849243	918.232971	4.004420
877.334595	909.688171	1243.233032	925.960449	4.878587
877.630127	916.003906	1242.564331	927.743835	3.595025
877.925537	919.347595	1253.486816	932.870789	4.047174
878.221008	909.093750	1248.434204	929.824219	6.109047
878.516296	905.601563	1249.548828	924.771667	5.573559
878.811646	900.623291	1260.917114	928.412537	7.712940
879.106812	904.635681	1272.879883	927.372253	6.174319
879.401978	900.920471	1297.028198	928.412537	6.940553
879.697083	906.418945	1326.526489	920.387756	3.325056
879.992126	904.858582	1363.009155	920.090576	3.324670
880.287109	912.288818	1422.451294	920.536377	1.616653
880.582031	905.081482	1496.233887	927.669434	3.821003
880.876892	903.149597	1654.795898	939.260742	4.804274
881.171753	900.251770	1932.390991	954.790039	5.284003
881.466492	903.000977	2398.194580	983.470886	5.381906
881.761230	908.276428	3021.594482	1014.232178	5.013715
882.055786	906.121643	3638.381592	1042.690186	4.998373
882.350403	903.372559	4044.446045	1058.442261	4.936838
882.644958	904.784180	4107.454590	1064.312134	4.981092
882.939453	910.208313	3858.242920	1057.996338	5.013103
883.233826	911.322815	3445.045654	1039.940796	5.076245
883.528137	902.629395	2990.610352	1017.055664	5.480235
883.822449	904.338379	2606.688232	990.678223	5.071804
884.116577	901.217773	2295.954102	968.833191	4.847899
884.410828	907.830750	2063.386475	960.288391	4.539603
884.704956	898.691406	1870.645142	952.040833	5.488885
884.999023	900.177429	1727.315308	946.319519	5.578525
885.292969	896.685242	1626.337891	928.412537	4.348274
885.586914	908.945129	1557.682251	920.387756	1.763831
885.880798	908.350769	1504.852905	918.455994	1.694080
886.174622	910.505554	1458.785156	929.452698	3.455745
886.468384	910.579834	1431.887695	932.424805	4.190416
886.762085	908.870850	1408.853882	928.338135	3.893589
887.055664	909.391052	1389.758179	918.010071	1.794257
887.349304	897.576843	1359.442505	922.096680	5.308867
887.642822	903.000977	1328.904175	920.164856	4.029995
887.936340	902.406555	1307.059082	921.799561	4.792508
888.229736	902.629395	1279.567261	910.356934	2.050083
888.523071	900.623230	1268.496094	909.762512	2.484359
888.816284	905.007141	1249.177368	908.796570	1.101033
889.109619	917.564270	1234.316772	918.678894	0.351891
889.402710	911.694397	1220.793579	922.691162	3.557682
889.695862	905.230164	1207.939331	920.907898	5.179141
889.988892	893.861816	1211.951660	918.901672	7.871944
890.281921	896.313782	1218.193115	919.719116	7.271462
>>>>>End Processed Spectral Data<<<<<
