Jaz Data File
++++++++++++++++++++++++++++++++++++
Date: Fri Jun 04 13:51:15 2021
User: jaz
Dark Spectrum Present: Yes
Reference Spectrum Present: Yes
Processed Spectrum Present: Yes
Spectrometers: JAZA3586
Integration Time (usec): 475000 (JAZA3586)
Spectra Averaged: 10 (JAZA3586)
Boxcar Smoothing: 1 (JAZA3586)
Correct for Electrical Dark: No (JAZA3586)
Strobe/Lamp Enabled: Yes (JAZA3586)
Correct for Detector Non-linearity: No (JAZA3586)
Correct for Stray Light: No (JAZA3586)
Number of Pixels in Processed Spectrum: 2048
>>>>>Begin Processed Spectral Data<<<<<
W	D	R	S	P
191.335022	0.000000	0.000000	0.000000	0.000000
191.713211	273.656952	280.864258	281.012909	102.062508
192.091385	560.985596	563.065979	565.072205	196.435379
192.469528	843.187317	849.131531	848.611389	91.249619
192.847641	854.035583	856.413147	848.537109	-231.265076
193.225739	875.731934	879.001221	864.437805	-345.461517
193.603790	896.908142	893.341614	883.385071	379.166229
193.981842	915.112305	915.409485	904.932861	-3425.343994
194.359863	913.031738	918.158691	915.558167	49.277382
194.737854	934.430969	942.678650	928.858337	-67.566048
195.115829	926.926453	938.591980	935.545593	73.885567
195.493774	924.102966	937.254578	929.601379	41.807903
195.871704	908.796570	920.239197	927.223633	161.038742
196.249603	939.409363	938.963440	942.604309	-716.479614
196.627457	941.341125	930.641602	935.099792	58.332809
197.005310	934.802551	933.687988	930.715881	366.661194
197.383133	922.245422	918.901794	913.477722	262.221161
197.760910	936.734375	944.090393	942.084229	72.727577
198.138687	946.319519	947.434021	951.520691	466.681274
198.516449	936.660095	941.564026	950.034607	272.730438
198.894180	919.941956	925.068848	925.143066	101.447639
199.271866	914.889343	917.267090	911.917236	-124.996788
199.649536	913.328918	915.186707	915.038086	92.000130
200.027191	923.211243	920.239258	925.589050	-80.007393
200.404816	913.997742	916.301208	924.251465	445.143097
200.782410	928.041016	934.728271	931.384583	49.999088
201.159988	926.703552	948.548523	934.208069	34.353519
201.537537	935.025391	962.888977	944.684753	34.666618
201.915070	923.359863	955.681580	938.146179	45.747311
202.292557	916.003967	945.279236	937.997559	75.126862
202.670029	915.260925	945.130615	940.449524	84.328293
203.047485	915.335266	943.867432	937.997559	79.427170
203.424911	909.911133	948.919983	941.118225	80.000031
203.802292	913.774902	957.019043	938.517578	57.216251
204.179688	908.499329	964.003479	936.808655	51.003983
204.557037	916.598389	964.895203	934.653992	37.384666
204.934357	917.118469	965.786804	925.514709	17.251957
205.311661	917.415588	962.145996	925.217529	17.442141
205.688934	910.356934	959.471008	912.214539	3.782225
206.066177	888.511902	937.774658	903.521057	30.467550
206.443390	887.471680	931.756104	913.254700	58.221420
206.820587	879.372742	928.189514	916.301086	75.646835
207.197769	901.292053	952.932373	934.208069	63.740921
207.574921	909.316711	958.876648	931.384583	44.527641
207.952042	921.353699	953.601135	934.505310	40.783432
208.329147	918.381653	952.783875	933.539368	44.060280
208.706223	1058.368042	1113.203247	1081.624634	42.411789
209.083267	1064.757935	1125.983398	1090.541016	42.111694
209.460297	1063.866333	1125.834839	1093.736206	48.201698
209.837280	922.542480	963.557800	941.564148	46.376984
210.214264	911.322937	956.498962	930.864441	43.256359
210.591217	905.155762	942.009827	920.313477	41.129017
210.968124	912.883240	959.916809	929.749939	35.860981
211.345016	920.685059	967.198486	933.242188	26.996782
211.721893	916.152527	967.347107	933.539368	33.962269
212.098724	905.750183	955.235657	918.901672	26.576464
212.475555	905.155762	958.133606	930.790222	48.387135
212.852356	910.431213	967.347107	942.158508	55.744175
213.229126	914.220703	970.839355	954.121277	70.472488
213.605865	911.322937	961.923035	936.214294	49.192310
213.982590	908.796631	954.344177	925.589050	36.867889
214.359283	898.542908	950.926270	913.774841	29.077808
214.735931	893.118713	953.972656	912.957520	32.600693
215.112579	899.583008	968.313049	917.044128	25.405369
215.489197	904.338440	967.421387	928.189514	37.809067
215.865799	906.567444	965.712585	935.471191	48.869183
216.242355	899.805969	963.929199	932.053223	50.289501
216.618896	903.743958	975.743347	941.564026	52.528316
216.995407	900.325989	979.309814	935.545593	44.590908
217.371902	894.976257	968.535950	925.886230	42.020260
217.748367	890.815247	964.226379	916.895569	35.526386
218.124802	889.403564	957.241882	916.003906	39.211380
218.501236	897.725403	958.653625	916.226807	30.365902
218.877609	894.530457	955.607239	906.641785	19.829676
219.253983	894.901917	958.282227	914.963684	31.652996
219.630295	896.016418	955.533020	926.629211	51.435722
220.006592	895.273438	958.579407	927.223694	50.469578
220.382889	903.075195	971.136536	924.771667	31.877821
220.759140	901.440613	979.384216	925.514648	30.886480
221.135391	909.613953	976.560608	925.514648	23.751293
221.511581	898.319885	968.015808	919.570496	30.490463
221.887772	894.456116	972.102539	918.604553	31.100515
222.263931	898.022705	991.941345	932.945007	37.183567
222.640060	913.403320	1015.123779	943.050049	29.145296
223.016159	913.551941	1023.594421	941.043945	24.983084
223.392212	906.641785	1018.393127	924.920227	16.356352
223.768265	897.725403	1009.625305	919.347595	19.322798
224.144302	890.815247	1009.030945	921.428040	25.895708
224.520294	883.905212	1010.071106	920.907959	29.328644
224.896286	895.793640	1026.417847	927.520813	24.288893
225.272217	907.607727	1040.163696	932.499207	18.778090
225.648148	916.672607	1062.008789	953.898254	25.613476
226.024048	899.434387	1060.745605	950.554688	31.690481
226.399902	896.610901	1074.788940	949.142883	29.482861
226.775772	888.957703	1076.200684	935.545593	24.880981
227.151581	893.713135	1108.968262	946.765320	24.646189
227.527374	893.490234	1129.698608	946.616699	22.491356
227.903137	899.434387	1176.360718	956.498962	20.606411
228.278870	907.904968	1230.750366	965.341003	17.790569
228.654572	906.047363	1315.826782	973.291321	16.409794
229.030273	903.298157	1394.662109	980.275818	15.666119
229.405930	894.456238	1473.942993	973.662842	13.668406
229.781555	902.034973	1526.400757	978.269531	12.209919
230.157181	900.920471	1553.298462	973.439941	11.116174
230.532761	899.434387	1529.447266	967.644348	10.826756
230.908325	890.592468	1478.252808	960.511230	11.897819
231.283859	893.787415	1421.782715	975.743347	15.522095
231.659332	895.124939	1381.510620	971.210876	15.643128
232.034821	891.632629	1353.498413	965.935364	16.087517
232.410263	884.573914	1337.300415	942.901550	12.883636
232.785690	880.858826	1309.808350	942.009949	14.256019
233.161087	890.369568	1290.415283	948.697083	14.580213
233.536469	896.090820	1271.245239	948.697083	14.022562
233.911804	903.298157	1275.109009	961.402893	15.627499
234.287140	897.353943	1282.762085	957.316223	15.558125
234.662430	898.096985	1309.956909	969.278992	17.283062
235.037704	896.536621	1321.473877	960.511230	15.055072
235.412933	892.524353	1329.572876	968.981750	17.494030
235.788162	885.465576	1316.421387	963.186218	18.034481
236.163345	890.295227	1326.303589	970.913757	18.490133
236.538513	903.595398	1339.678101	975.891907	16.578623
236.913635	907.013367	1363.009155	977.898132	15.545049
237.288742	908.796570	1377.498169	981.910461	15.599241
237.663834	906.641785	1376.012085	975.148926	14.595542
238.038879	910.877014	1367.615845	982.653503	15.714996
238.413910	905.527283	1354.910034	988.374817	18.435850
238.788910	899.583008	1372.965698	999.743103	21.158377
239.163879	899.285828	1388.049194	994.839050	19.549997
239.538834	898.468506	1407.590820	983.842346	16.768827
239.913757	900.400391	1446.525391	988.151855	16.068018
240.288651	902.034973	1487.391968	998.479980	16.476271
240.663528	902.852356	1542.673218	1016.684021	17.791178
241.038361	895.942200	1590.821289	1021.959534	18.135145
241.413177	895.645020	1686.671875	1037.414551	17.922215
241.787979	885.985657	1796.937012	1051.383423	18.156597
242.162735	884.573914	1931.350586	1075.309082	18.221191
242.537476	871.793762	2042.433228	1086.380005	18.330687
242.912170	891.781250	2170.828369	1116.398315	17.561281
243.286865	898.319885	2226.332520	1120.039185	16.695570
243.661514	905.973145	2232.425293	1118.998901	16.059814
244.036148	902.109375	2152.178223	1103.024048	16.072289
244.410751	909.762512	2054.470215	1079.024170	14.786451
244.785339	909.242371	1965.232788	1070.405151	15.261765
245.159882	903.446777	1925.332031	1073.674316	16.658186
245.534378	900.400391	1950.743530	1105.624512	19.538769
245.908890	900.177490	2049.566162	1128.881226	19.897860
246.283356	894.753418	2210.208740	1145.302124	19.046539
246.657791	884.276672	2434.528564	1171.531006	18.529526
247.032196	891.632629	2687.826660	1215.443848	18.027630
247.406586	887.620300	2915.341797	1238.032104	17.281063
247.780960	896.610901	3066.473389	1237.660522	15.717568
248.155289	889.849365	3106.968018	1227.109497	15.211641
248.529602	896.908203	3012.306641	1210.019897	14.801547
248.903870	899.360168	2826.178467	1196.199463	15.405671
249.278122	898.319885	2611.666260	1169.673462	15.837636
249.652344	896.982422	2435.568848	1144.187500	16.067026
250.026550	903.520996	2293.353516	1130.664551	16.343231
250.400711	923.880066	2194.456543	1135.865723	16.684212
250.774857	926.332031	2123.868896	1138.169067	17.689396
251.148987	907.384827	2093.330566	1132.522095	18.983774
251.523071	884.276672	2084.042725	1117.884399	19.471106
251.897125	899.062927	2141.627197	1146.713867	19.930635
252.271164	899.954590	2196.462891	1156.670410	19.800554
252.645187	900.326111	2255.681885	1156.001709	18.864096
253.019165	874.988831	2255.607666	1134.899780	18.825684
253.393112	898.542786	2255.904785	1142.998657	18.009628
253.767044	892.227051	2177.812744	1137.500366	19.078722
254.140930	908.796570	2096.748291	1138.763550	19.358278
254.514801	903.521057	2008.551147	1123.605835	19.916634
254.888657	912.065918	1965.307007	1120.039185	19.746027
255.262466	905.081360	1944.428101	1105.401611	19.273670
255.636276	912.957520	1958.916992	1117.810181	19.585144
256.010010	919.347473	1992.353149	1135.568481	20.150967
256.383759	927.595154	2030.544922	1147.308350	19.920509
256.757446	919.421875	2072.971680	1147.828491	19.800325
257.131134	919.496277	2134.197021	1162.168823	19.977970
257.504791	912.957520	2227.149658	1188.472046	20.964554
257.878418	903.818359	2327.681396	1213.883667	21.776344
258.252014	902.257996	2479.704834	1248.880249	21.973625
258.625580	908.350769	2656.619873	1296.359741	22.193893
258.999115	900.028809	2886.735107	1350.080444	22.653154
259.372650	894.381836	3172.354492	1403.727051	22.359585
259.746124	884.350891	3488.438477	1450.389160	21.736528
260.119598	890.369446	3794.565674	1476.320801	20.176025
260.493042	894.976257	3980.991455	1483.082397	19.057137
260.866425	897.576843	4016.284912	1464.209473	18.168825
261.239838	904.858582	3859.952148	1433.522461	17.889921
261.613159	910.208313	3581.465576	1383.665161	17.724119
261.986511	902.778015	3278.607422	1341.387085	18.461304
262.359802	889.700745	3034.151367	1305.870361	19.406816
262.733063	881.230225	2881.459229	1289.969604	20.434629
263.106293	886.580078	2788.878174	1278.304077	20.592146
263.479523	907.013245	2748.383545	1285.734375	20.567352
263.852692	910.951355	2708.333984	1284.694214	20.793730
264.225861	912.363037	2661.374756	1276.966553	20.846260
264.598969	907.310547	2632.619629	1280.384644	21.623610
264.972076	904.932800	2637.746582	1287.591797	22.083101
265.345154	911.917236	2690.427490	1313.151978	22.560160
265.718201	905.527283	2737.832764	1312.780396	22.226269
266.091217	926.406250	2836.506592	1355.950317	22.488037
266.464203	931.236023	2934.437500	1387.751953	22.789318
266.837158	926.703430	3036.009033	1407.070679	22.773714
267.210114	899.583008	3100.281006	1391.541382	22.354652
267.583038	894.827637	3147.166016	1378.166870	21.459442
267.955902	898.022705	3184.391846	1382.550781	21.192032
268.328766	907.607727	3183.351563	1386.637329	21.049364
268.701569	896.462219	3169.976807	1392.730103	21.828224
269.074371	889.997986	3168.342529	1389.015137	21.902620
269.447144	888.660461	3211.214844	1406.773438	22.307894
269.819885	890.889648	3273.257813	1430.550293	22.652277
270.192596	899.285828	3384.637451	1489.175171	23.734644
270.565277	927.446594	3532.871826	1551.738159	23.961216
270.937927	927.000732	3728.064697	1601.892212	24.094112
271.310577	926.183411	3937.598389	1636.442993	23.585575
271.683136	892.970032	4148.618652	1641.941406	23.005289
272.055725	895.422058	4301.979004	1645.359375	22.014524
272.428284	896.685242	4338.461426	1628.864258	21.273291
272.800812	909.316711	4269.211426	1620.468140	21.165884
273.173279	914.443542	4137.250000	1602.858276	21.360723
273.545776	909.762451	4032.111328	1584.654175	21.614872
273.918152	915.186584	3932.471436	1570.462280	21.717396
274.290558	908.796570	3850.738525	1548.765991	21.753300
274.662964	911.917297	3785.574951	1556.493530	22.430515
275.035278	895.793640	3735.792236	1553.372681	23.154203
275.407593	900.028809	3746.268799	1580.567383	23.910091
275.779907	913.254700	3789.290283	1601.669434	23.936237
276.152161	907.682068	3868.422607	1616.381348	23.936556
276.524384	910.654114	3959.220459	1633.842407	23.722242
276.896606	893.787415	4020.668701	1638.375000	23.812468
277.268799	899.657410	4071.789063	1646.250977	23.536022
277.640930	894.456116	4081.671143	1643.056030	23.487587
278.013031	900.846191	4089.101563	1646.622681	23.391367
278.385162	901.960693	4068.296631	1652.344116	23.698793
278.757233	903.372375	4055.293701	1664.529663	24.148993
279.129272	903.446777	4067.628174	1669.656372	24.215097
279.501282	909.019531	4097.572266	1678.572754	24.134874
279.873230	908.276367	4157.385742	1690.758423	24.082970
280.245178	907.236145	4250.858887	1730.361694	24.617775
280.617126	901.291992	4405.705566	1787.500488	25.288353
280.988983	889.552185	4571.549316	1827.475464	25.473221
281.360870	902.629395	4756.562988	1876.663696	25.273769
281.732697	893.713074	4911.038574	1902.595337	25.113281
282.104492	902.332214	5047.012695	1919.462280	24.540613
282.476288	875.731873	5143.160156	1912.329224	24.290916
282.848053	887.323059	5197.847168	1915.747070	23.858448
283.219757	888.586182	5222.069824	1926.223755	23.944653
283.591461	910.728333	5151.110352	1933.802734	24.126940
283.963135	909.242371	5074.429688	1925.257813	24.393030
284.334747	918.678772	5050.132813	1942.421753	24.779242
284.706360	911.545715	5142.045410	1972.959961	25.089575
285.077942	920.982239	5291.171387	2021.999878	25.193821
285.449524	917.787292	5434.129883	2053.727295	25.151766
285.821014	912.140320	5514.525391	2042.358887	24.557234
286.192535	903.000977	5621.298340	2056.996338	24.457876
286.563995	894.010254	5703.031250	2059.448486	24.234417
286.935425	893.415833	5732.455078	2065.095703	24.213070
287.306824	887.620300	5674.424316	2026.012329	23.781881
287.678223	885.837097	5543.429199	1990.198364	23.710993
288.049561	903.595398	5421.795410	1984.848633	23.931059
288.420898	907.459167	5308.854980	1964.043579	24.005667
288.792145	914.443542	5266.576660	1985.145630	24.601778
289.163452	904.412781	5303.579590	2008.179688	25.090361
289.534668	898.988586	5425.956543	2070.816650	25.885498
289.905914	893.415955	5575.453613	2102.766846	25.829584
290.277039	901.960693	5761.953125	2154.258789	25.767492
290.648193	926.109131	5925.196777	2187.695068	25.236322
291.019318	924.994568	6055.894531	2191.484375	24.683578
291.390381	908.796570	6076.773438	2139.918213	23.822119
291.761475	884.573914	5994.966309	2086.197510	23.513330
292.132507	882.864929	5879.796875	2066.210205	23.681435
292.503510	883.459290	5781.791504	2073.045898	24.285545
292.874481	917.564270	5762.175781	2130.110352	25.028761
293.245422	918.976074	5800.367188	2171.571289	25.660620
293.616364	924.102966	5927.128418	2214.295166	25.788239
293.987213	898.171326	6074.470215	2240.078369	25.924063
294.358093	900.400391	6273.304688	2275.149414	25.586702
294.728943	889.998047	6467.160156	2317.576172	25.596855
295.099731	884.276672	6694.154785	2332.436768	24.925827
295.470490	889.626465	6846.476074	2378.281494	24.990643
295.841248	902.852356	6962.685059	2424.869385	25.116488
296.211975	901.143372	7048.430176	2476.732666	25.630648
296.582642	905.230164	7212.490723	2521.091553	25.619066
296.953308	899.137207	7351.808594	2547.617676	25.547256
297.323883	896.165100	7476.414063	2549.400879	25.124214
297.694519	891.558411	7485.033203	2506.676758	24.495710
298.065063	903.892578	7448.550781	2456.225342	23.719080
298.435608	909.390930	7233.667480	2399.086426	23.555193
298.806122	904.858582	6925.756348	2327.830078	23.633875
299.176575	903.372498	6596.224609	2264.969727	23.917664
299.547028	907.459167	6351.619629	2211.397461	23.951134
299.917450	907.830750	6208.289551	2187.843750	24.149096
300.287872	891.855530	6115.187988	2184.054443	24.738976
300.658234	884.796875	6074.396484	2190.815918	25.166084
301.028564	884.128113	6029.071777	2191.930420	25.419174
301.398865	883.607910	5962.125000	2173.206055	25.393204
301.769135	889.329285	5898.521484	2148.537598	25.137949
302.139374	892.821472	5868.354004	2131.745361	24.900326
302.509583	895.570618	5820.726563	2104.401611	24.544016
302.879791	899.731689	5747.167480	2084.934326	24.450096
303.249939	891.929871	5647.006348	2050.606445	24.367147
303.620087	896.165100	5568.022949	2029.578735	24.260447
303.990173	883.682190	5502.488281	2017.318848	24.543934
304.360260	894.753357	5449.658691	2033.145142	24.992657
304.730286	895.347717	5433.460449	2053.801514	25.527216
305.100281	900.325989	5423.949707	2061.825928	25.676319
305.470276	894.158936	5418.154297	2061.157471	25.795752
305.840179	890.815369	5428.333984	2060.265625	25.772902
306.210144	891.855469	5432.791504	2064.723877	25.828781
306.579987	900.548889	5464.296875	2084.414063	25.940636
306.949890	904.264160	5499.218750	2100.463623	26.032890
307.319702	909.093811	5587.193359	2135.311523	26.211878
307.689484	902.778015	5690.102051	2156.190674	26.181904
308.059265	904.709900	5809.655762	2202.778320	26.464479
308.429016	895.719299	5940.725098	2229.601563	26.439659
308.798737	898.022644	6076.030762	2268.387695	26.465097
309.168396	894.233215	6193.057129	2286.294678	26.271143
309.538055	903.298157	6266.246094	2291.867432	25.891905
309.907684	896.165222	6265.131348	2289.712646	25.955599
310.277313	893.193054	6285.490234	2281.241943	25.741325
310.646851	902.703796	6296.264160	2283.470947	25.600288
311.016388	918.233093	6312.908203	2287.409180	25.380138
311.385895	940.300964	6268.994629	2292.907471	25.383451
311.755371	922.616882	6215.125488	2272.177002	25.499439
312.124817	913.923523	6166.308594	2240.301514	25.252869
312.494232	897.874084	6097.801270	2214.741211	25.324724
312.863617	901.960693	6005.071777	2204.487549	25.524172
313.232971	900.177490	5965.988281	2212.289063	25.901316
313.602295	894.158997	5958.707031	2213.329346	26.047152
313.971619	888.660583	6020.378418	2246.616943	26.462023
314.340820	885.242615	6042.000000	2251.372559	26.492033
314.710083	897.576843	6110.135254	2280.870850	26.537716
315.079285	909.465271	6124.326660	2265.118408	25.995956
315.448486	917.935791	6133.837891	2258.802734	25.707287
315.817596	912.808899	6015.028809	2198.320313	25.195141
316.186707	904.338379	5845.395020	2139.918213	25.006390
316.555786	905.378662	5650.275879	2093.924805	25.048933
316.924866	901.589172	5491.490723	2074.754639	25.559711
317.293884	901.217773	5414.513672	2078.767334	26.090679
317.662872	901.886475	5388.729980	2077.726807	26.206402
318.031830	898.914368	5413.102051	2091.398682	26.416368
318.400757	912.660339	5457.312012	2114.878174	26.453463
318.769684	904.264099	5488.222168	2130.259033	26.745335
319.138550	895.199158	5511.181152	2119.633789	26.525982
319.507416	888.957764	5511.032715	2110.866211	26.436359
319.876190	888.289063	5506.351563	2099.126221	26.219593
320.244995	920.090576	5471.429688	2103.435547	25.999931
320.613770	924.251526	5391.554199	2087.014648	26.028305
320.982483	924.845947	5322.155762	2074.160400	26.136765
321.351166	897.948425	5272.595215	2070.296631	26.798691
321.719818	888.289001	5276.681641	2091.101563	27.408955
322.088440	883.533630	5320.148926	2143.187744	28.392231
322.457062	890.072266	5445.571777	2206.716553	28.902304
322.825623	896.685242	5618.697266	2272.697266	29.140373
323.194183	905.824402	5789.371094	2308.957031	28.731834
323.562653	902.555115	5922.892578	2340.833008	28.649027
323.931183	900.028809	6027.808594	2359.185791	28.455921
324.299591	893.713135	6098.024902	2359.631592	28.167385
324.668060	887.843262	6125.962402	2334.145508	27.611099
325.036407	885.391296	6116.302734	2303.681641	27.113634
325.404755	887.843201	6048.093750	2277.452637	26.929108
325.773102	886.059875	5968.886719	2253.750244	26.908068
326.141388	895.347839	5874.299316	2238.444092	26.975481
326.509674	895.719238	5808.912598	2212.586426	26.802673
326.877899	920.536377	5745.309082	2186.282959	26.234327
327.246124	913.106140	5686.759277	2153.664307	25.987604
327.614288	920.759277	5625.756348	2146.010986	26.041498
327.982422	902.778015	5577.682129	2144.896484	26.569921
328.350525	920.313477	5541.645020	2164.958496	26.932606
328.718628	907.310547	5529.459473	2178.184326	27.495302
329.086700	915.781067	5536.221191	2209.020020	27.989521
329.454712	903.521057	5576.865234	2225.440674	28.286375
329.822693	917.638611	5636.604980	2256.796631	28.378206
330.190674	919.199036	5693.520996	2289.563965	28.702820
330.558563	922.319763	5717.000000	2314.826904	29.042751
330.926483	919.496277	5751.773438	2352.349854	29.651724
331.294312	908.202148	5803.636719	2375.160889	29.965853
331.662231	904.115540	5905.357422	2433.042725	30.570953
332.029999	893.564636	6004.625488	2469.005127	30.824137
332.397766	895.496399	6100.253418	2508.682861	30.994465
332.765503	894.901917	6181.912109	2532.088135	30.966202
333.133240	892.747253	6262.828125	2548.137451	30.826166
333.500916	896.982483	6349.167969	2563.741211	30.570471
333.868561	889.403625	6392.634766	2554.676025	30.259905
334.236176	895.422119	6397.984375	2563.295166	30.310843
334.603790	894.902039	6350.504395	2559.134277	30.505011
334.971344	898.022705	6298.493652	2556.533691	30.710489
335.338867	894.530457	6244.326660	2552.595703	30.993052
335.706360	885.168274	6192.686035	2553.487305	31.433134
336.073853	880.784424	6180.203125	2576.223877	31.992931
336.441284	884.871094	6174.407715	2597.028564	32.368763
336.808655	894.679016	6198.927246	2636.854736	32.844913
337.176086	897.354004	6214.753906	2678.464600	33.495892
337.543396	901.812195	6226.642090	2712.569580	34.005917
337.910706	888.809265	6203.385254	2724.532227	34.541286
338.277954	897.131104	6182.952637	2717.919189	34.446644
338.645264	885.539856	6145.132324	2716.061523	34.803490
339.012421	887.248840	6136.958984	2701.424072	34.557629
339.379669	882.642090	6125.739746	2695.182373	34.570026
339.746796	900.994812	6127.225098	2680.173340	34.043247
340.113953	913.997742	6152.042969	2666.055908	33.448700
340.481018	914.146301	6144.092285	2648.743408	33.166637
340.848114	905.824463	6184.661621	2649.189209	33.025547
341.215118	899.137207	6204.648438	2688.346924	33.723606
341.582153	898.542786	6306.146484	2773.720703	34.676693
341.949066	899.062805	6383.420410	2870.833984	35.952641
342.316010	896.759521	6530.168457	2993.136475	37.213291
342.682922	888.660461	6642.217285	3104.813477	38.517967
343.049835	881.453125	6817.497559	3252.750000	39.947426
343.416656	910.505554	7021.681152	3435.980713	41.325520
343.783478	915.260925	7283.449219	3586.146484	41.941055
344.150269	932.499207	7560.450684	3703.916748	41.814087
344.516998	920.759338	7811.444824	3718.108154	40.596088
344.883728	932.870667	7957.375488	3696.337646	39.340382
345.250427	918.827454	7993.412109	3644.994141	38.534657
345.617065	903.000977	7901.276855	3569.725586	38.105450
345.983704	897.354004	7767.458496	3504.190430	37.944641
346.350281	899.731628	7606.592285	3434.123047	37.788040
346.716827	898.617126	7404.935059	3386.346436	38.235592
347.083405	894.381836	7256.403809	3374.532227	38.983681
347.449860	939.632324	7164.045410	3403.436279	39.582912
347.816376	957.762146	7089.593750	3418.519531	40.130871
348.182770	965.341003	7009.570313	3422.234619	40.648582
348.549194	922.468262	6922.189941	3407.596924	41.420731
348.915558	911.991638	6929.174316	3450.841553	42.193333
349.281921	904.858459	6958.895996	3489.924561	42.699871
349.648193	892.895752	7020.417969	3525.218018	42.959000
350.014526	889.923645	7077.110840	3560.289063	43.159607
350.380737	886.282898	7170.732422	3605.242188	43.264874
350.746948	915.335266	7255.140625	3670.331299	43.455532
351.113159	918.976074	7323.869629	3720.783203	43.744789
351.479309	913.700623	7355.449219	3765.587158	44.271931
351.845428	892.004211	7415.634277	3816.781982	44.833595
352.211517	891.186829	7505.912598	3875.184326	45.111435
352.577576	888.586243	7624.573730	3961.821289	45.624123
352.943604	886.877258	7752.969238	4050.984375	46.083088
353.309601	890.295227	7899.196777	4163.998535	46.707798
353.675537	890.889648	8082.724121	4263.118652	46.889690
354.041473	891.484070	8267.291992	4362.833008	47.063980
354.407379	883.905212	8419.760742	4435.352051	47.127319
354.773254	897.948425	8594.373047	4526.298828	47.143322
355.139038	898.468506	8736.663086	4617.914063	47.452835
355.504913	921.502380	8997.540039	4785.318359	47.842964
355.870636	912.140198	9217.996094	4954.802246	48.672436
356.236389	911.545837	9521.151367	5133.946289	49.042904
356.602081	901.663574	9809.891602	5284.780762	49.203018
356.967804	902.257996	10078.718750	5403.591309	49.053043
357.333405	898.914307	10326.073242	5491.342285	48.714863
357.699036	877.738037	10490.058594	5500.407715	48.091095
358.064606	878.778320	10616.298828	5492.976563	47.385761
358.430176	879.967102	10643.567383	5452.705078	46.834545
358.795654	893.341614	10667.196289	5486.290527	46.992195
359.161163	900.103088	10696.545898	5609.707031	48.074635
359.526581	899.137207	10816.098633	5830.979980	49.731392
359.892029	908.870850	11083.291992	6153.528809	51.547485
360.257416	906.641785	11505.925781	6486.330566	52.642132
360.622772	911.397156	12032.953125	6773.732910	52.711475
360.988098	892.895813	12530.707031	6949.087891	52.038925
361.353394	885.688416	12980.833008	7031.043457	50.808445
361.718658	890.369446	13238.218750	6985.867188	49.364849
362.083893	894.753235	13293.203125	6789.931152	47.547699
362.449097	900.103088	13083.817383	6449.550781	45.548080
362.814209	897.428223	12673.961914	6069.269043	43.916496
363.179382	904.784241	12042.687500	5692.183105	42.982944
363.544434	907.830627	11328.934570	5425.361816	43.349834
363.909546	904.858582	10642.155273	5239.530762	44.516178
364.274536	898.171387	10163.051758	5154.305176	45.938354
364.639587	897.428284	9817.543945	5076.956543	46.855095
365.004517	892.301453	9632.901367	5041.736816	47.473122
365.369507	883.979492	9459.553711	4992.028320	47.904068
365.734344	884.053711	9386.142578	5005.477051	48.475422
366.099274	893.861755	9297.276367	4996.337891	48.819153
366.464081	909.019470	9225.054688	4990.616699	49.081047
366.828918	910.728455	9143.469727	4945.812012	49.012634
367.193665	902.332214	9050.666016	4893.948730	48.986904
367.558411	905.824402	9001.031250	4871.806641	48.991734
367.923126	901.143372	8909.789063	4821.428711	48.950668
368.287781	913.923523	8847.002930	4810.135254	49.113483
368.652435	900.474670	8750.483398	4758.271973	49.143860
369.017059	906.121765	8709.393555	4775.436035	49.585793
369.381653	919.942078	8691.783203	4811.397949	50.071220
369.746185	932.053406	8690.296875	4870.468750	50.764263
370.110687	924.697327	8716.452148	4899.298340	51.010345
370.475220	899.434387	8773.367188	4946.555176	51.398979
370.839661	900.177490	8858.815430	4978.430664	51.243107
371.204041	909.316711	8939.211914	5035.272461	51.382435
371.568451	911.174316	8982.159180	5019.445801	50.901737
371.932770	906.864746	9004.078125	5006.889160	50.635006
372.297150	908.796570	8997.761719	4959.706543	50.079456
372.661377	909.316711	8979.781250	4947.892578	50.041431
373.025696	899.583191	9000.584961	4950.047363	49.999546
373.389862	892.004211	9012.919922	4973.675781	50.261227
373.754059	895.942200	9049.253906	5029.477051	50.697617
374.118225	900.771912	9094.579102	5099.767090	51.245956
374.482361	895.793640	9197.339844	5210.701172	51.977158
374.846436	891.335449	9344.309570	5330.625488	52.517490
375.210510	888.883484	9572.938477	5495.800781	53.050304
375.574524	904.932800	9846.447266	5671.303223	53.306076
375.938538	898.022644	10179.695313	5850.299316	53.355434
376.302460	907.161926	10478.466797	6007.895020	53.291927
376.666412	908.722351	10776.940430	6104.711426	52.653774
377.030304	915.335266	10982.090820	6118.384277	51.685459
377.394196	910.579834	11089.161133	6038.879395	50.383247
377.757996	907.384766	11085.222656	5914.942871	49.200607
378.121796	911.025635	10950.660156	5732.380371	48.023205
378.485565	905.378662	10747.665039	5563.564941	47.328297
378.849304	890.815247	10455.135742	5400.990723	47.156254
379.212982	888.809143	10176.277344	5320.743652	47.719517
379.576630	905.007141	9919.338867	5278.167969	48.513420
379.940277	917.861572	9739.972656	5280.991699	49.456753
380.303864	919.496277	9644.940430	5291.839844	50.110271
380.667450	914.443665	9629.112305	5293.846191	50.253227
381.030945	916.152649	9595.007813	5273.115723	50.202045
381.394501	927.892395	9633.199219	5285.523926	50.057182
381.757935	930.195801	9629.038086	5335.976074	50.647896
382.121399	918.976074	9682.757813	5412.581543	51.274734
382.484741	908.722351	9762.708008	5522.921387	52.114376
382.848145	896.536621	9855.586914	5598.635254	52.484341
383.211487	896.239441	10002.038086	5667.960449	52.403103
383.574768	897.428223	10130.582031	5703.923340	52.056911
383.938019	901.663513	10235.051758	5752.145020	51.969135
384.301270	908.647949	10328.820313	5791.525879	51.834278
384.664459	898.468445	10366.565430	5797.915527	51.746906
385.027649	900.549011	10422.665039	5815.079590	51.611748
385.390778	904.041199	10484.114258	5880.911621	51.950237
385.753876	920.536438	10551.358398	5966.359375	52.392441
386.116943	917.861572	10638.143555	6044.006348	52.736580
386.479980	914.592285	10661.326172	6077.144531	52.966995
386.842987	913.477600	10722.032227	6111.472656	52.994507
387.205994	923.285583	10762.526367	6122.321777	52.839809
387.568909	916.598328	10801.907227	6128.934082	52.728104
387.931793	901.366272	10790.910156	6091.040527	52.476376
388.294678	894.679016	10778.055664	6076.030762	52.424911
388.657471	897.205322	10761.559570	6067.114746	52.410011
389.020294	911.545837	10762.526367	6122.767090	52.900532
389.383057	913.552002	10824.047852	6236.004395	53.705204
389.745819	918.233093	10947.687500	6354.962891	54.207638
390.108521	920.387878	11078.536133	6508.621094	55.012321
390.471191	913.106140	11261.765625	6673.424316	55.662460
390.833801	901.812195	11469.963867	6825.671387	56.053886
391.196442	900.028870	11713.304688	6922.710449	55.697109
391.558960	901.217773	11923.581055	6935.787598	54.748421
391.921509	908.647949	12081.918945	6926.351563	53.858028
392.284027	904.635559	12183.045898	6888.976563	53.060146
392.646484	901.366272	12173.534180	6871.515625	52.963631
393.008911	899.062927	12057.770508	6856.357910	53.386959
393.371307	910.728455	11991.864258	6898.562012	54.036278
393.733673	909.316711	11920.385742	6885.113281	54.270809
394.096008	908.127869	11884.348633	6838.525391	54.029503
394.458344	892.524231	11840.360352	6728.482910	53.306961
394.820587	888.066101	11736.559570	6594.960938	52.605415
395.182831	887.694580	11637.664063	6474.516113	51.970577
395.545013	877.143616	11407.473633	6317.588379	51.664524
395.907196	891.038269	11189.915039	6219.435059	51.737652
396.269287	900.103210	10966.784180	6156.797363	52.218746
396.631409	914.592224	10765.498047	6146.098145	53.106850
396.993469	922.171082	10623.505859	6133.392090	53.716537
397.355530	922.468262	10548.311523	6117.863281	53.973400
397.717499	925.960510	10554.924805	6118.829590	53.929676
398.079468	915.038025	10556.633789	6141.863281	54.211205
398.441376	915.632385	10552.249023	6168.537598	54.509853
398.803284	907.459167	10539.915039	6163.410156	54.565018
399.165131	906.047363	10560.274414	6147.955566	54.296513
399.526978	897.205383	10521.116211	6113.255859	54.198860
399.888763	894.901917	10503.506836	6098.470215	54.155296
400.250519	897.651184	10497.117188	6095.498047	54.147247
400.612244	916.449768	10549.723633	6135.101563	54.173195
400.973938	921.873840	10561.909180	6182.209473	54.567596
401.335602	915.706726	10585.463867	6218.542969	54.839397
401.697205	921.799500	10688.149414	6309.490234	55.165863
402.058807	921.650879	10866.252930	6395.829590	55.046738
402.420349	920.313477	11154.398438	6556.025879	55.068062
402.781860	897.353943	11452.649414	6682.787109	54.810715
403.143341	898.245605	11786.715820	6834.810547	54.521568
403.504822	910.951416	12115.653320	6944.035156	53.844215
403.866241	922.988464	12490.510742	7045.829590	52.931313
404.227631	926.777832	12801.168945	7121.172363	52.166000
404.588959	926.554871	13040.870117	7158.993652	51.446892
404.950287	913.626221	13073.414063	7111.662598	50.971581
405.311554	907.161865	12972.289063	7041.223145	50.841251
405.672821	907.236267	12771.151367	6947.229980	50.910629
406.034027	913.923523	12485.458008	6863.193848	51.412979
406.395203	916.524109	12156.964844	6737.548340	51.786446
406.756348	913.254700	11902.182617	6661.684082	52.311104
407.117493	910.728455	11743.545898	6635.307129	52.844780
407.478516	908.425049	11722.590820	6670.749512	53.284962
407.839600	904.412781	11695.471680	6707.009277	53.772266
408.200592	915.855286	11751.049805	6784.135254	54.159431
408.561554	924.177246	11770.963867	6872.778809	54.842060
408.922485	923.880066	11821.860352	6964.617188	55.429878
409.283417	913.106140	11828.398438	7004.220703	55.803497
409.644257	911.025696	11971.356445	7063.143066	55.623264
410.005096	922.096863	12125.683594	7108.392578	55.217102
410.365906	928.783997	12227.997070	7120.503906	54.797798
410.726715	930.492981	12247.614258	7106.832031	54.575176
411.087433	919.347595	12200.358398	7061.878906	54.450184
411.448120	912.363098	12204.370117	7018.040527	54.070789
411.808807	910.059753	12144.629883	6960.381348	53.854500
412.169434	904.189880	12053.833008	6922.561035	53.978149
412.530029	912.734619	12018.539063	6974.498535	54.581940
412.890564	911.025696	12009.624023	7036.318848	55.189789
413.251099	930.270203	12077.906250	7153.568848	55.826176
413.611572	930.938782	12180.445313	7233.443848	56.024723
413.972076	933.390808	12324.518555	7334.272949	56.191822
414.332489	925.663269	12433.520508	7389.107910	56.165493
414.692871	927.520813	12598.769531	7516.091797	56.451290
415.053223	918.753113	12779.844727	7614.468750	56.451092
415.413574	918.678894	13078.541992	7768.646484	56.332603
415.773834	913.923523	13280.867188	7885.673828	56.374081
416.134094	921.799622	13498.129883	8075.591309	56.882980
416.494263	921.576660	13711.972656	8264.022461	57.405930
416.854462	925.663269	14089.058594	8495.772461	57.508789
417.214630	928.189514	14475.581055	8761.776367	57.823582
417.574738	932.350586	14883.948242	9019.086914	57.962799
417.934784	937.328857	15305.541992	9302.254883	58.218277
418.294861	943.644531	15840.077148	9622.647461	58.262291
418.654846	939.706482	16417.185547	10000.997070	58.545006
419.014832	927.743713	17026.990234	10395.321289	58.807579
419.374756	910.505554	17668.666016	10791.653320	58.963200
419.734680	927.669434	18394.531250	11224.391602	58.950047
420.094543	929.452698	19036.580078	11554.742188	58.680149
420.454376	935.396973	19559.748047	11778.245117	58.218658
420.814148	928.561035	19993.599609	11904.113281	57.569000
421.173920	924.028625	20402.783203	12046.403320	57.100033
421.533691	927.743835	20785.517578	12139.281250	56.459187
421.893341	918.381653	20963.693359	12102.575195	55.794556
422.253021	918.530273	21036.585938	12027.827148	55.220531
422.612640	912.957520	20940.140625	11955.531250	55.137928
422.972260	917.712891	20902.544922	12000.261719	55.454800
423.331757	911.991638	20876.464844	12046.997070	55.774105
423.691315	938.443359	21014.294922	12176.507813	55.978020
424.050781	951.223450	21159.185547	12205.187500	55.690739
424.410248	959.545227	21149.080078	12108.371094	55.220818
424.769653	936.660095	21046.763672	11876.472656	54.399582
425.128998	919.719055	20871.039063	11638.332031	53.723831
425.488373	913.477600	20584.082031	11354.496094	53.079300
425.847656	913.403320	20195.701172	11082.993164	52.740551
426.206940	912.808899	19739.556641	10781.770508	52.419895
426.566193	921.873840	19261.197266	10546.379883	52.480156
426.925385	918.158691	18800.224609	10287.063477	52.392738
427.284576	914.592285	18216.798828	10037.331055	52.725864
427.643677	924.103027	17775.664063	9824.083008	52.813984
428.002777	933.539368	17409.796875	9674.511719	53.051929
428.361847	946.468079	17098.914063	9563.057617	53.345417
428.720856	937.700378	16759.796875	9441.795898	53.748222
429.079865	936.511536	16504.195313	9348.100586	54.032372
429.438812	931.830383	16328.246094	9300.545898	54.354961
429.797760	932.722107	16283.887695	9276.323242	54.351582
430.156616	937.180237	16071.679688	9205.661133	54.633327
430.515503	931.310364	15963.940430	9120.064453	54.473194
430.874268	919.050354	15883.766602	9113.600586	54.759140
431.233093	909.911133	15938.230469	9184.485352	55.059879
431.591827	910.877014	15993.734375	9328.557617	55.809589
431.950562	928.486816	16078.512695	9435.480469	56.151684
432.309204	922.542480	16176.666992	9513.275391	56.317440
432.667877	926.406250	16381.668945	9608.457031	56.175369
433.026459	929.006836	16631.400391	9660.171875	55.604038
433.385010	931.236023	17007.744141	9722.362305	54.683056
433.743561	928.709717	17479.123047	9711.812500	53.068779
434.102051	925.960510	18014.250000	9723.476563	51.482719
434.460510	943.347351	18641.958984	9749.928711	49.758598
434.818939	953.006653	19157.470703	9731.873047	48.223698
435.177338	936.957275	19543.326172	9725.928711	47.236362
435.535675	927.298035	19721.873047	9704.232422	46.699299
435.894012	925.068848	19694.011719	9718.721680	46.852142
436.252289	931.979004	19639.472656	9829.952148	47.563679
436.610535	936.957214	19258.224609	9866.658203	48.739536
436.968719	954.121155	18944.818359	10064.452148	50.639122
437.326935	952.635193	18469.724609	10200.352539	52.792545
437.685028	950.851868	18180.462891	10392.350586	54.798096
438.043152	936.660156	17927.759766	10500.535156	56.287560
438.401215	940.746765	17976.724609	10664.594727	57.078304
438.759277	939.780823	18180.314453	10865.956055	57.574638
439.117249	936.957336	18644.558594	11165.692383	57.764656
439.475250	947.805481	19050.697266	11414.161133	57.815929
439.833130	953.898376	19543.177734	11682.617188	57.714550
440.191071	959.396790	19787.259766	11773.710938	57.437820
440.548889	952.040771	20011.804688	11817.625000	57.007969
440.906708	940.821045	20160.259766	11749.563477	56.238594
441.264496	933.985168	20241.099609	11658.690430	55.547943
441.622223	942.158508	20198.822266	11509.416992	54.875854
441.979950	946.319519	19985.869141	11327.152344	54.522472
442.337616	950.480408	19800.263672	11141.471680	54.064236
442.695251	944.684753	19525.863281	11006.164063	54.148773
443.052887	936.882996	19317.888672	10942.041992	54.432056
443.410461	932.127625	19192.095703	11022.809570	55.261219
443.768005	929.081238	19198.931641	11136.195313	55.868629
444.125458	940.226624	19264.392578	11312.366211	56.603611
444.482941	943.273010	19476.750000	11534.679688	57.147434
444.840393	957.539124	19780.794922	11850.688477	57.870697
445.197754	957.687683	20175.714844	12137.944336	58.175880
445.555084	954.121094	20522.560547	12343.539063	58.202995
445.912415	932.201904	20923.943359	12492.813477	57.826931
446.269714	932.944885	21195.816406	12598.695313	57.572048
446.626953	929.527039	21381.943359	12591.859375	57.021782
446.984161	934.208008	21453.869141	12484.789063	56.290314
447.341309	941.935547	21496.298828	12324.295898	55.376858
447.698456	955.384338	21469.845703	12173.088867	54.681934
448.055542	952.858093	21363.964844	12046.921875	54.353069
448.412598	949.440125	21099.744141	11830.331055	53.998642
448.769653	940.152344	20757.505859	11582.902344	53.704193
449.126617	947.359680	20287.167969	11269.196289	53.370937
449.483582	969.724915	19966.775391	11125.792969	53.461288
449.840515	982.059082	19545.330078	10980.902344	53.863586
450.197388	973.068420	19276.652344	10914.475586	54.313992
450.554230	955.681458	19018.078125	10828.954102	54.662029
450.911041	945.502136	18909.076172	10800.570313	54.861401
451.267822	956.350281	18844.285156	10795.293945	55.003235
451.624573	939.557922	18767.232422	10793.584961	55.273769
451.981262	932.722107	18694.044922	10737.486328	55.202900
452.337921	928.858398	18516.611328	10636.879883	55.197620
452.694580	942.901550	18292.958984	10419.321289	54.618958
453.051147	946.245117	18147.771484	10302.889648	54.394264
453.407715	948.325623	17900.195313	10104.204102	54.011028
453.764221	959.991150	17854.275391	10075.448242	53.955860
454.120728	959.173828	17499.478516	9845.407227	53.724728
454.477142	960.511230	17413.882813	9819.773438	53.844662
454.833557	944.981995	17155.458984	9726.151367	54.169716
455.189911	948.919983	17094.382813	9758.250000	54.562263
455.546265	940.300964	16980.550781	9772.739258	55.064220
455.902557	941.861328	16956.771484	9815.909180	55.411163
456.258820	946.542480	17042.962891	9944.528320	55.900543
456.615051	951.000549	17182.802734	10119.807617	56.486683
456.971252	964.746582	17317.585938	10329.043945	57.264042
457.327393	959.768250	17619.478516	10665.932617	58.261299
457.683502	967.495789	18093.083984	11073.483398	59.011040
458.039612	960.808533	18786.847656	11621.687500	59.805092
458.395630	970.244934	19538.419922	12197.609375	60.465630
458.751648	965.638184	20205.212891	12645.581055	60.707909
459.107605	958.356506	20986.357422	13056.995117	60.408623
459.463562	948.399963	21564.804688	13200.325195	59.428040
459.819458	953.898438	21939.958984	13145.191406	58.092339
460.175323	943.644531	22008.541016	12795.226563	56.262238
460.531158	948.102722	21937.583984	12363.377930	54.385696
460.886932	948.771423	21648.171875	11908.050781	52.944912
461.242676	960.659851	21185.341797	11489.950195	52.061584
461.598419	966.901367	20590.099609	11155.737305	51.922401
461.954102	965.192383	19949.240234	10835.416992	51.992207
462.309723	968.981750	19310.236328	10568.819336	52.340141
462.665344	959.248108	18718.712891	10341.303711	52.828484
463.020905	960.511230	18313.835938	10225.243164	53.388805
463.376373	962.963196	18066.855469	10194.257813	53.971893
463.731873	974.034363	17878.423828	10211.496094	54.645348
464.087341	967.718689	17740.517578	10216.698242	55.142731
464.442749	967.198547	17698.312500	10292.709961	55.737545
464.798126	951.074890	17715.255859	10311.136719	55.833691
465.153503	946.096497	17856.205078	10444.361328	56.169151
465.508820	926.703430	17937.791016	10532.708008	56.469082
465.864105	927.223633	18052.738281	10624.471680	56.624561
466.219330	943.124451	18249.193359	10726.415039	56.530987
466.574524	951.892151	18375.880859	10755.467773	56.264816
466.929657	959.396729	18411.248047	10720.323242	55.930607
467.284790	961.551514	18406.123047	10623.060547	55.384041
467.639893	964.077820	18338.505859	10464.573242	54.680908
467.994934	961.923096	18285.232422	10353.340820	54.212612
468.349945	952.932434	18118.421875	10213.057617	53.946171
468.704926	954.567078	17942.173828	10141.058594	54.077606
469.059875	962.443115	17740.591797	10061.851563	54.233685
469.414764	955.904541	17538.935547	10007.461914	54.583252
469.769653	953.303955	17418.044922	9986.954102	54.866642
470.124451	954.567139	17403.703125	9999.882813	54.989605
470.479248	958.430847	17355.927734	10047.064453	55.426960
470.834015	958.282227	17329.251953	10084.884766	55.748699
471.188721	947.805481	17428.150391	10192.475586	56.095119
471.543365	947.954102	17628.023438	10341.155273	56.313919
471.898010	946.468079	17814.226563	10465.687500	56.434410
472.252625	951.743591	17988.986328	10606.788086	56.670235
472.607178	961.774414	18230.617188	10725.375000	56.538822
472.961700	967.124268	18444.091797	10786.674805	56.185669
473.316193	981.836182	18646.937500	10837.349609	55.790871
473.670654	978.789795	18671.531250	10801.907227	55.520603
474.025055	984.065247	18736.769531	10868.706055	55.679630
474.379456	963.409119	18776.818359	10888.618164	55.717625
474.733795	969.278992	18894.291016	10966.190430	55.770737
475.088104	967.718567	19076.033203	11105.210938	55.982529
475.442383	984.882568	19262.087891	11290.893555	56.387238
475.796570	974.925964	19538.791016	11490.171875	56.643623
476.150787	978.938293	19887.718750	11738.640625	56.903202
476.504944	976.857849	20234.337891	11944.608398	56.953197
476.859070	996.993896	20593.890625	12162.315430	56.974945
477.213135	998.851501	20874.607422	12287.886719	56.798016
477.567200	987.037415	21275.396484	12469.557617	56.596596
477.921173	969.353333	21551.728516	12634.731445	56.676540
478.275146	958.876709	21948.056641	12779.027344	56.315449
478.629089	967.124268	22143.326172	12937.515625	56.527569
478.983002	967.867249	22573.687500	13196.312500	56.597923
479.336823	978.789734	22978.414063	13512.692383	56.973255
479.690643	975.371765	23579.521484	13907.686523	57.212124
480.044403	984.585266	24210.572266	14391.247070	57.722683
480.398163	981.390320	25055.546875	15082.262695	58.572655
480.751862	979.309875	26200.181641	16043.293945	59.728249
481.105499	973.439941	27724.947266	17351.841797	61.224220
481.459137	972.028137	29959.974609	19280.441406	63.158710
481.812744	975.891907	32820.550781	21829.544922	65.485558
482.166290	983.470703	36470.671875	24982.357422	67.626877
482.519806	984.362488	40591.355469	28283.849609	68.925926
482.873291	993.204529	44961.097656	31318.896484	68.972351
483.226715	994.987793	48869.496094	33467.433594	67.828262
483.580139	992.015625	51266.425781	34170.707031	65.995186
483.933502	997.291077	53068.863281	33748.000000	62.895565
484.286804	1010.591309	53768.718750	32213.646484	59.143597
484.640106	1015.792480	54196.406250	30290.544922	55.047791
484.993347	1000.708984	53400.031250	28199.146484	51.906090
485.346558	979.830017	52090.292969	26703.728516	50.330002
485.699738	976.560730	50591.089844	26034.039063	50.504318
486.052887	981.241699	49086.605469	26104.697266	52.225891
486.405975	985.179871	48353.535156	26718.216797	54.325375
486.759064	996.473816	48011.667969	27410.125000	56.181091
487.112061	1000.337585	48070.441406	27767.076172	56.865685
487.464996	995.582214	48056.921875	27544.687500	56.413834
487.817963	980.870300	47910.917969	26811.617188	55.040955
488.170868	968.981750	47386.562500	25697.892578	53.274879
488.523743	972.622620	46449.011719	24416.099609	51.550873
488.876587	969.799072	45208.011719	23204.593750	50.261517
489.229401	1003.458191	43944.714844	22422.705078	49.880341
489.582153	1004.424133	42643.152344	22165.095703	50.819691
489.934845	1022.925537	41790.230469	22513.353516	52.714859
490.287537	997.662598	41489.972656	23222.126953	54.885647
490.640198	1018.021667	41829.312500	24019.693359	56.361053
490.992798	1005.241516	42149.703125	24433.187500	56.940704
491.345337	1006.133240	42408.875000	24345.509766	56.371574
491.697876	1000.263245	42130.015625	23600.697266	54.949108
492.050354	1023.891418	41636.347656	22406.357422	52.650021
492.402832	1028.498291	40499.964844	20809.814453	50.115486
492.755219	1021.365051	39015.246094	19182.435547	47.799984
493.107605	1012.300110	36976.894531	17680.703125	46.346699
493.459930	1027.680786	34896.421875	16558.138672	45.854843
493.812225	1020.696472	32828.722656	15745.416992	46.292469
494.164490	1013.563477	31118.052734	15244.838867	47.272934
494.516724	987.706055	29766.708984	15006.401367	48.711536
494.868896	990.158020	28778.257813	14930.910156	50.168064
495.221039	984.733948	28186.365234	15086.648438	51.842163
495.573120	998.479980	27768.117188	15183.018555	52.987415
495.925201	1039.866577	27690.767578	15413.504883	53.933033
496.277222	1059.482544	27713.208984	15493.901367	54.155350
496.629211	1058.367920	27783.494141	15543.980469	54.202221
496.981140	1014.752258	27721.080078	15454.965820	54.070381
497.333069	1020.845032	27588.525391	15312.824219	53.794609
497.684967	1021.736633	27465.851563	15105.891602	53.260075
498.036804	1019.136047	27273.853516	14798.500000	52.483387
498.388580	1000.337585	26966.242188	14497.277344	51.979469
498.740326	997.736877	26534.244141	14204.301758	51.716408
499.092072	999.297363	25997.037109	13924.180664	51.704205
499.443756	1000.411804	25494.078125	13665.831055	51.708958
499.795410	1007.767822	25035.037109	13461.127930	51.830109
500.147003	1019.581848	24716.947266	13327.010742	51.935852
500.498566	1024.188721	24329.828125	13177.661133	52.148209
500.850098	1015.718201	23979.343750	13023.781250	52.291672
501.201599	1001.749207	23619.052734	12908.313477	52.643608
501.553009	992.461426	23378.978516	12818.409180	52.826202
501.904449	995.953613	23219.822266	12799.535156	53.112183
502.255859	1019.359070	23149.681641	12840.996094	53.418278
502.607178	1034.071045	23171.748047	12934.171875	53.754963
502.958405	1029.835815	23160.083984	12983.211914	54.013744
503.309692	1013.489075	23142.625000	12973.331055	54.045677
503.660919	993.947510	23101.609375	12984.549805	54.237316
504.012115	1007.099060	23106.958984	12983.508789	54.192245
504.363251	1014.455078	23142.771484	12983.656250	54.089977
504.714294	1029.538452	23166.994141	12908.090820	53.658169
505.065369	1030.950317	23162.906250	12870.643555	53.495922
505.416443	1035.111206	23066.906250	12813.950195	53.462910
505.767395	1035.482788	23004.123047	12820.042969	53.642647
506.118317	1021.959656	22887.914063	12781.628906	53.780724
506.469238	1001.229187	22903.812500	12814.840820	53.937065
506.820160	986.368652	22887.166016	12896.723633	54.383205
507.170929	1007.693542	23029.312500	13048.002930	54.674950
507.521729	1028.572632	23175.093750	13200.101563	54.959103
507.872498	1034.591187	23414.869141	13352.050781	55.037121
508.223236	1016.535461	23653.007813	13488.098633	55.094994
508.573883	1000.634766	23864.625000	13592.640625	55.073528
508.924500	1013.043274	24056.623047	13703.204102	55.070267
509.275116	1018.541687	24186.650391	13796.973633	55.155262
509.625702	1026.640747	24387.416016	13934.956055	55.256367
509.976196	1018.467468	24605.421875	13987.414063	54.983555
510.326660	1027.235107	24841.181641	14103.546875	54.910305
510.677124	1037.786133	25009.775391	14202.519531	54.917152
511.027557	1057.624878	25210.468750	14350.157227	55.035061
511.377869	1048.634277	25392.287109	14417.179688	54.915939
511.728180	1046.182251	25489.771484	14434.492188	54.772274
512.078430	1036.448608	25537.474609	14406.777344	54.570488
512.428650	1033.179321	25567.416016	14331.656250	54.203751
512.778931	1037.563232	25576.187500	14269.243164	53.921848
513.129028	1039.123535	25494.007813	14170.124023	53.694794
513.479126	1035.482788	25369.177734	14081.926758	53.614727
513.829285	1027.458008	25227.187500	13922.546875	53.286083
514.179382	1019.656250	25072.337891	13814.734375	53.196056
514.529297	1028.349609	24959.992188	13798.015625	53.358921
514.879272	1024.931641	24998.037109	13899.290039	53.703339
515.229187	1021.439392	25006.580078	14003.833008	54.126820
515.579163	1009.996887	25156.599609	14198.209961	54.617260
515.928955	1004.944336	25398.380859	14447.643555	55.107853
516.278748	1007.247742	25866.115234	14868.867188	55.761265
516.628540	1027.458008	26445.822266	15314.906250	56.209160
516.978333	1033.253540	27088.099609	15835.469727	56.811756
517.327942	1035.705688	27833.947266	16312.343750	57.006119
517.677612	1013.711975	28548.070313	16754.593750	57.168148
518.027222	1005.835938	29161.662109	17019.783203	56.876141
518.376831	990.009460	29668.406250	17075.210938	56.088215
518.726379	996.176514	29929.062500	16930.767578	55.074322
519.075867	999.371582	29917.396484	16596.849609	53.936874
519.425293	1030.058594	29743.007813	16238.932617	52.968693
519.774658	1036.002808	29390.740234	15820.832031	52.142357
520.124084	1046.256714	29013.724609	15492.117188	51.652370
520.473389	1029.092773	28494.052734	15191.636719	51.565861
520.822693	1024.040161	28021.041016	14997.484375	51.759247
521.171997	1033.550781	27644.031250	14873.546875	52.009567
521.521240	1057.179077	27337.009766	14871.465820	52.566120
521.870361	1060.597046	27168.271484	14900.296875	53.010086
522.219482	1051.457886	27108.382813	15027.280273	53.635731
522.568604	1037.488892	27187.587891	15163.176758	54.017719
522.917664	1043.284546	27352.689453	15445.528320	54.741810
523.266724	1045.587891	27674.345703	15798.614258	55.402607
523.615662	1048.634277	28186.812500	16311.304688	56.240585
523.964600	1047.445313	28912.822266	16948.228516	57.062866
524.313538	1048.559937	29785.287109	17662.796875	57.815342
524.662354	1042.541382	30801.001953	18388.660156	58.289703
525.011169	1065.426636	31907.890625	19090.525391	58.442474
525.359985	1054.950073	33058.171875	19810.517578	58.605247
525.708740	1045.587891	34298.808594	20581.779297	58.749775
526.057434	1040.683960	35711.968750	21537.015625	59.116158
526.406067	1051.234985	37440.550781	22808.781250	59.791031
526.754700	1059.556763	39426.734375	24480.146484	61.043301
527.103333	1042.467163	41918.773438	26521.539063	62.332130
527.451782	1027.903809	44608.605469	28683.599609	63.458580
527.800293	1030.578735	47369.542969	30542.656250	63.687393
528.148743	1034.070923	49481.527344	31661.802734	63.218452
528.497131	1035.854126	50965.128906	31757.728516	61.530788
528.845642	1027.383789	51526.042969	30852.646484	59.061493
529.193909	1017.501465	51424.917969	29096.427734	55.703957
529.542175	1016.386902	50458.683594	26878.490234	52.307652
529.890503	1029.612793	48847.800781	24657.953125	49.412872
530.238770	1028.423950	46568.562500	22764.642578	47.729805
530.586914	1036.820190	44392.753906	21466.576172	47.121014
530.934998	1039.643677	42190.199219	20703.041016	47.784039
531.283142	1048.337158	40727.625000	20649.322266	49.398525
531.631226	1048.782959	39510.996094	20951.361328	51.745792
531.979248	1041.129761	39152.847656	21588.953125	53.914715
532.327148	1040.238159	39161.324219	22266.666016	55.681591
532.675110	1041.724243	39492.562500	22809.599609	56.612221
533.023071	1028.498169	39783.308594	22930.337891	56.513863
533.370850	1026.789307	39914.082031	22514.687500	55.256863
533.718689	1028.795532	39814.371094	21774.263672	53.487591
534.066467	1041.204102	39367.511719	20858.111328	51.705753
534.414246	1039.718018	38531.457031	19958.156250	50.460285
534.761963	1050.417603	37630.984375	19271.376953	49.810490
535.109619	1062.231689	36789.953125	18909.892578	49.954655
535.457153	1065.946899	36078.429688	18764.705078	50.549847
535.804749	1049.451660	35479.250000	18716.408203	51.312988
536.152344	1040.163696	34989.000000	18601.982422	51.730251
536.499817	1045.587769	34461.156250	18409.835938	51.964542
536.847229	1043.358765	34059.253906	18053.851563	51.522129
537.194641	1038.603394	33614.621094	17621.111328	50.904037
537.542114	1033.402222	33381.835938	17155.904297	49.840134
537.889404	1035.185425	32981.714844	16758.755859	49.218399
538.236694	1038.677734	32717.718750	16515.488281	48.855049
538.583984	1035.928589	32594.150391	16558.880859	49.188297
538.931213	1039.049316	33018.343750	17004.029297	49.922867
539.278381	1035.408569	34015.042969	17853.458984	50.995262
539.625488	1040.535278	35570.796875	18958.117188	51.889507
539.972595	1051.829346	37668.066406	20331.601563	52.653610
540.319641	1047.296875	40057.710938	21631.900391	52.766945
540.666687	1062.826172	42588.535156	22775.865234	52.288181
541.013611	1052.200806	44832.175781	23433.072266	51.121250
541.360596	1055.395752	46377.300781	23563.474609	49.662689
541.707458	1047.593994	47441.019531	23155.103516	47.652248
542.054260	1058.888062	47728.652344	22303.521484	45.521191
542.401062	1065.203857	47686.222656	21327.927734	43.462639
542.747864	1070.702271	46894.902344	20213.460938	41.774342
543.094666	1069.736206	45769.886719	19163.636719	40.478386
543.441284	1078.503906	44255.296875	18122.210938	39.474232
543.787903	1069.884888	43006.636719	17306.144531	38.716064
544.134460	1064.757935	41989.210938	16609.259766	37.983406
544.481079	1061.562988	41478.011719	16120.049805	37.258312
544.827637	1073.897217	41121.429688	15782.863281	36.728771
545.174072	1081.921997	40974.386719	15598.147461	36.388390
545.520508	1084.968262	40879.949219	15587.670898	36.443550
545.866943	1072.039673	40674.050781	15572.885742	36.616436
546.213318	1073.154175	40291.464844	15552.229492	36.919170
546.559631	1083.482300	39637.976563	15345.518555	36.991890
546.905823	1085.785767	38608.292969	15002.239258	37.088280
547.252136	1076.423584	37219.945313	14543.270508	37.259365
547.598389	1062.083130	35481.484375	14007.102539	37.609657
547.944458	1065.129517	33728.675781	13482.006836	38.014477
548.290588	1073.599976	31953.884766	12932.166992	38.401741
548.636658	1080.807373	30352.960938	12452.096680	38.846779
548.982727	1069.141846	28785.248047	12014.303711	39.490261
549.328735	1065.203735	27448.318359	11697.700195	40.300381
549.674622	1054.950073	26233.687500	11468.328125	41.357822
550.020569	1044.250366	25288.484375	11346.545898	42.493797
550.366455	1030.355835	24447.599609	11249.729492	43.640377
550.712280	1023.222839	23782.962891	11191.772461	44.677795
551.058044	1033.328003	23334.843750	11231.003906	45.726379
551.403748	1042.467163	22983.169922	11292.082031	46.715073
551.749512	1051.532104	22763.306641	11412.675781	47.721310
552.095154	1044.919067	22522.568359	11439.499023	48.397198
552.440735	1049.600220	22407.322266	11514.469727	48.998058
552.786316	1042.392822	22263.695313	11466.840820	49.122566
553.131897	1043.878906	22054.904297	11390.012695	49.241451
553.477417	1030.207275	21780.802734	11184.120117	48.933117
553.822815	1020.250732	21464.791016	10974.363281	48.688362
554.168213	1024.485962	21124.041016	10752.495117	48.399124
554.513672	1019.804871	20755.572266	10559.680664	48.338005
554.859009	1034.665405	20406.648438	10401.860352	48.354347
555.204285	1035.036987	20070.130859	10286.393555	48.601582
555.549500	1048.485718	19744.611328	10205.553711	48.978428
555.894714	1030.801636	19430.162109	10132.811523	49.469162
556.239990	1022.702637	19159.775391	10069.875977	49.882217
556.585022	1025.600464	18909.001953	10021.356445	50.302261
556.930115	1036.820190	18678.144531	9944.825195	50.495102
557.275146	1039.123657	18478.791016	9858.484375	50.570690
557.620178	1028.869751	18334.716797	9770.213867	50.510925
557.965149	1021.588196	18213.455078	9715.674805	50.570930
558.310059	1024.114380	18082.013672	9674.362305	50.711102
558.654968	1030.652954	17957.037109	9634.833984	50.832951
558.999756	1036.448608	17871.662109	9636.617188	51.084408
559.344604	1037.414673	17841.271484	9668.790039	51.365437
559.689331	1027.086548	17818.314453	9694.053711	51.616039
560.033997	1027.012207	17813.632813	9720.207031	51.786449
560.378723	1022.331116	17835.775391	9740.640625	51.853207
560.723389	1025.377563	17875.750000	9786.633789	51.994434
561.067932	1016.535583	17877.681641	9792.578125	52.048908
561.412476	1019.730530	17886.744141	9772.813477	51.894680
561.757019	1027.903809	17879.835938	9727.266602	51.622353
562.101501	1035.259644	17864.603516	9687.811523	51.413483
562.445862	1034.219482	17777.373047	9642.188477	51.411869
562.790222	1012.820313	17719.712891	9608.159180	51.447861
563.134644	1011.928772	17675.429688	9618.858398	51.651390
563.478943	1011.854553	17718.896484	9643.229492	51.663097
563.823181	1012.003113	17743.044922	9716.864258	52.028210
564.167358	1002.343750	17845.509766	9787.080078	52.156086
564.511536	999.074402	17953.544922	9930.335938	52.677914
564.855774	1004.201233	18137.666016	10088.303711	53.019646
565.199768	1018.615967	18386.132813	10311.731445	53.508598
565.543823	1014.975159	18632.966797	10466.875977	53.649136
565.887817	1017.798645	18866.576172	10584.942383	53.601116
566.231812	1018.021484	19023.429688	10581.672852	53.115437
566.575745	1017.724304	19130.349609	10553.438477	52.646782
566.919617	1017.352783	19148.703125	10430.838867	51.918289
567.263428	1008.510803	19051.365234	10273.317383	51.348900
567.607239	1011.482910	18907.144531	10112.526367	50.856140
567.950989	1023.668640	18768.050781	9995.276367	50.560268
568.294678	1032.956421	18652.287109	9933.381836	50.515121
568.638367	1036.374390	18527.531250	9879.809570	50.559467
568.981995	1013.786316	18386.578125	9847.415039	50.847496
569.325623	1012.003113	18266.357422	9869.036133	51.332165
569.669128	1019.061829	18225.343750	9928.626953	51.780888
570.012573	1021.588196	18253.132813	10035.771484	52.312103
570.356140	1023.445740	18413.179688	10177.987305	52.643368
570.699524	1011.780212	18526.044922	10311.360352	53.097176
571.042908	1022.554016	18731.568359	10465.092773	53.320526
571.386230	1004.201233	18830.537109	10552.696289	53.563980
571.729492	1017.055664	19049.732422	10638.886719	53.357754
572.072815	1015.198059	19184.072266	10642.750000	52.989258
572.416016	1023.074219	19268.181641	10572.012695	52.336983
572.759094	1022.182556	19231.103516	10486.044922	51.973766
573.102234	1014.529297	19151.673828	10374.887695	51.608776
573.445374	1014.529297	19023.949219	10296.424805	51.539116
573.788391	997.662598	18943.777344	10210.828125	51.337940
574.131409	1003.532471	18801.412109	10155.993164	51.424446
574.474365	1001.972168	18768.197266	10106.656250	51.247150
574.817261	1013.340515	18719.826172	10081.319336	51.212749
575.160156	1013.340515	18739.814453	10000.775391	50.700630
575.502930	1007.619202	18707.271484	9849.198242	49.953407
575.845703	998.554260	18668.333984	9644.493164	48.930653
576.188477	1019.581848	18636.607422	9484.815430	48.051434
576.531250	1026.566406	18520.101563	9315.554688	47.383152
576.873901	1032.659058	18349.947266	9129.723633	46.757114
577.216431	1013.712097	18137.740234	8908.079102	46.101112
577.559082	1003.904053	17975.240234	8735.918945	45.559258
577.901611	993.575989	17782.349609	8575.574219	45.161121
578.244080	986.442871	17563.380859	8417.531250	44.827873
578.586487	1003.681152	17383.195313	8318.560547	44.658710
578.928955	1156.150391	17308.671875	8355.934570	44.573750
579.271301	1163.729248	17091.408203	8299.836914	44.803185
579.613647	1156.076050	16768.785156	8146.253418	44.772354
579.955872	1017.650085	16361.680664	7919.555176	44.981045
580.298157	1018.764648	16104.296875	7829.351563	45.146481
580.640320	1015.941101	15894.317383	7808.695801	45.655216
580.982483	1000.857666	15755.965820	7763.742188	45.834194
581.324524	997.737000	15617.985352	7728.003418	46.033875
581.666626	1005.835938	15518.049805	7676.140137	45.963383
582.008728	1012.151672	15433.046875	7631.112793	45.898403
582.350647	1008.287903	15344.106445	7579.843262	45.840111
582.692566	1014.232178	15313.493164	7560.821777	45.782715
583.034424	1008.956726	15227.004883	7539.571777	45.931870
583.376343	1010.517029	15170.460938	7497.144531	45.809696
583.718201	998.108398	15132.046875	7466.234375	45.763084
584.059937	995.953674	15079.661133	7442.457520	45.772778
584.401611	986.740173	15041.247070	7413.701660	45.728828
584.743347	986.888855	14998.078125	7396.984375	45.749832
585.085022	983.470886	14968.356445	7345.046387	45.488937
585.426514	994.839172	14968.356445	7359.981934	45.551468
585.768127	989.935242	14978.834961	7335.238770	45.359562
586.109619	998.331360	15061.309570	7359.833496	45.235809
586.451172	998.108398	15149.433594	7339.548340	44.811634
586.792542	1001.006165	15231.760742	7353.294434	44.637745
587.133850	1005.018555	15232.057617	7362.433594	44.685440
587.475220	1000.114563	15239.190430	7402.779785	44.965454
587.816589	1000.931946	15206.051758	7458.580566	45.460007
588.157776	1003.904053	15207.612305	7519.880859	45.875179
588.498962	1004.498474	15139.031250	7572.933105	46.470829
588.840210	1002.492371	15065.992188	7588.313965	46.829182
589.181335	1012.523193	15041.395508	7632.003906	47.184696
589.522400	1026.863647	14990.202148	7636.015625	47.332172
589.863403	1024.411621	14952.604492	7648.795410	47.560970
590.204407	1027.606567	14816.260742	7600.499512	47.668850
590.545410	1007.767761	14780.296875	7558.221191	47.561733
590.886353	1027.458008	14729.250000	7487.187988	47.145145
591.227112	1005.390137	14735.417969	7411.399902	46.656933
591.567932	1005.464539	14707.703125	7330.855469	46.163197
591.908752	985.105469	14694.774414	7277.951660	45.900787
592.249512	992.832947	14774.575195	7269.480957	45.543213
592.590149	987.037292	14822.948242	7269.556152	45.407337
592.930786	997.959778	14892.569336	7320.973145	45.506950
593.271423	988.226135	14860.469727	7357.307129	45.912411
593.612000	996.028015	14840.854492	7434.209473	46.502438
593.952576	993.353027	14855.492188	7497.515625	46.920341
594.292969	982.430603	14874.661133	7572.709473	47.438595
594.633484	974.331543	14894.128906	7657.935547	48.015099
594.973877	964.895203	14949.929688	7758.244141	48.575848
595.314209	987.780457	15045.112305	7920.595703	49.318146
595.654480	997.439758	15204.045898	8105.683594	50.034775
595.994812	1003.532532	15363.500000	8260.976563	50.539417
596.335022	992.089905	15512.847656	8346.944336	50.650623
596.675171	998.034180	15657.441406	8376.293945	50.331230
597.015320	995.359192	15723.347656	8327.106445	49.781048
597.355408	997.737000	15706.926758	8187.565918	48.879845
597.695496	988.077576	15628.536133	7972.013184	47.702984
598.035461	986.220032	15391.511719	7724.436035	46.775974
598.375366	990.381042	15201.148438	7487.410645	45.719063
598.715271	987.780457	14943.242188	7280.181152	45.089161
599.055176	1011.260071	14724.421875	7143.909668	44.720898
599.395081	1000.337585	14423.346680	7040.851563	45.001194
599.734802	996.696716	14141.442383	6948.642090	45.280033
600.074524	973.217041	13869.198242	6866.537598	45.698891
600.414246	969.650452	13669.247070	6814.971191	46.027611
600.753906	991.124023	13498.500000	6854.203125	46.876972
601.093506	985.031250	13361.856445	6881.175781	47.638588
601.433044	997.365417	13276.855469	6957.484375	48.537186
601.772583	982.207703	13254.043945	7018.857910	49.191093
602.112122	1009.551086	13352.125000	7165.160156	49.872974
602.451538	1008.139343	13476.656250	7337.616699	50.763676
602.790894	1012.300354	13686.041992	7531.843750	51.441349
603.130310	987.706116	13922.323242	7713.811035	52.000805
603.469604	979.532776	14225.776367	7888.868652	52.160721
603.808838	966.158264	14481.898438	8069.571777	52.556599
604.148010	964.449219	14769.003906	8187.192871	52.321453
604.487305	977.675110	14967.987305	8237.868164	51.894428
604.826416	985.105469	15135.613281	8183.032715	50.866917
605.165527	987.631653	15130.487305	8032.123535	49.809544
605.504456	968.535950	15063.984375	7821.475098	48.618099
605.843445	969.576172	14860.989258	7552.351074	47.387367
606.182434	965.266602	14648.855469	7326.247559	46.486202
606.521423	985.997070	14392.659180	7141.605957	45.914551
606.860229	984.585266	14169.008789	7005.558105	45.667316
607.199036	985.476990	14023.672852	6912.232910	45.456871
607.537903	971.062256	13965.122070	6873.001953	45.420288
607.876648	978.938416	14048.563477	6909.781250	45.378830
608.215271	981.018860	14233.503906	6994.709473	45.377831
608.553955	982.059082	14646.106445	7094.869629	44.736458
608.892578	990.529602	15290.683594	7193.915527	43.379852
609.231140	988.969238	16265.980469	7264.428223	41.077793
609.569641	986.888855	17484.619141	7281.295410	38.153168
609.908081	966.158386	18991.701172	7248.304688	34.851357
610.246521	984.733948	20550.349609	7161.371094	31.568836
610.584961	991.346924	22014.781250	7013.136719	28.643229
610.923340	1001.674988	23023.664063	6835.701660	26.491827
611.261597	994.096130	23519.931641	6680.186035	25.242525
611.599854	999.445862	23596.091797	6550.453125	24.565624
611.938110	1000.263184	23344.281250	6436.250000	24.328600
612.276245	1009.328125	22893.187500	6315.136719	24.245306
612.614319	1009.551086	22113.234375	6202.494141	24.606808
612.952393	1010.219788	21157.326172	6094.457520	25.235575
613.290466	997.216797	20110.253906	6022.532715	26.292608
613.628479	996.993958	19042.896484	5963.907715	27.523775
613.966370	997.662598	18035.052734	5926.087402	28.927111
614.304260	988.523376	17030.925781	5857.431641	30.350245
614.642151	979.012695	16069.300781	5792.788574	31.899828
614.979980	965.118103	15255.833008	5737.210449	33.392956
615.317749	967.941589	14537.252930	5713.136719	34.970051
615.655396	974.257324	13985.778320	5708.380859	36.384090
615.993164	970.170654	13462.463867	5686.089844	37.750626
616.330811	983.322266	13055.731445	5695.303223	39.030991
616.668396	971.582336	12664.007813	5678.882324	40.259396
617.005859	988.151855	12335.366211	5700.504395	41.528717
617.343445	983.545105	12012.668945	5702.957031	42.790451
617.680908	985.179749	11794.590820	5684.678223	43.475990
618.018311	996.176575	11624.512695	5678.733887	44.057293
618.355652	990.083801	11502.878906	5642.845703	44.258083
618.692993	1001.229187	11343.277344	5667.736816	45.121700
619.030273	984.362488	11197.270508	5642.103027	45.606411
619.367554	984.213867	11076.454102	5599.378418	45.729832
619.704712	968.833191	11038.116211	5547.515625	45.471783
620.041870	971.062256	11019.985352	5533.175293	45.399029
620.379028	965.415222	10954.598633	5508.283691	45.477879
620.716064	972.473938	10890.327148	5483.540527	45.484303
621.053040	964.449280	10808.742188	5437.175781	45.434715
621.389954	972.028137	10779.170898	5423.429688	45.389381
621.726929	971.879578	10753.461914	5398.018066	45.249722
622.063843	972.399658	10740.903320	5402.847656	45.354420
622.400635	963.632019	10748.780273	5407.306152	45.412437
622.737427	962.814636	10765.795898	5423.727051	45.505672
623.074219	965.117981	10792.172852	5431.528809	45.450146
623.410889	969.650574	10816.692383	5449.584473	45.495228
623.747559	974.926025	10841.361328	5480.197266	45.662605
624.084167	987.706116	10872.344727	5515.788574	45.809288
624.420715	985.402649	10946.945313	5568.691895	46.009830
624.757324	983.842285	11050.151367	5629.100098	46.146587
625.093750	982.430603	11178.695313	5702.734375	46.294441
625.430176	986.368591	11285.914063	5775.402344	46.497524
625.766602	999.000061	11420.328125	5865.011230	46.692814
626.102905	986.740173	11540.773438	5940.502441	46.937149
626.439209	984.362488	11652.450195	6004.328125	47.055908
626.775452	966.158203	11724.375000	6006.037598	46.846790
627.111694	960.511230	11745.402344	5976.539063	46.509769
627.447876	954.492737	11743.471680	5921.926270	46.041740
627.783997	954.269958	11685.217773	5859.363770	45.709789
628.120056	964.152161	11661.440430	5804.900391	45.252106
628.456055	973.142822	11585.502930	5716.851563	44.699848
628.792053	964.523682	11507.559570	5628.803223	44.240379
629.128052	952.560852	11428.129883	5546.847168	43.857151
629.463928	959.099609	11421.590820	5520.542969	43.598061
629.799744	958.356506	11412.377930	5473.286621	43.188454
630.135559	958.579407	11370.991211	5406.191406	42.714520
630.471375	942.827209	11288.218750	5322.452637	42.334072
630.807068	971.136536	11199.128906	5300.607910	42.329628
631.142700	992.238525	11107.737305	5279.729004	42.385357
631.478333	1000.709045	10932.679688	5248.670410	42.770580
631.813965	979.384094	10752.717773	5203.196777	43.217724
632.149475	961.031433	10539.692383	5148.063965	43.712086
632.484924	964.895081	10388.857422	5149.253418	44.401264
632.820435	968.387390	10194.778320	5129.785645	45.103210
633.155884	975.891907	10024.625977	5163.519043	46.278591
633.491150	999.966003	9918.669922	5195.543457	47.042458
633.826477	1003.829773	9824.825195	5212.261719	47.709267
634.161804	1010.591309	9719.463867	5191.977051	48.012936
634.497009	981.539001	9571.156250	5123.841309	48.224525
634.832153	965.341003	9420.766602	5069.972168	48.544350
635.167297	954.195618	9319.864258	5011.792969	48.502964
635.502380	952.189453	9176.088867	4945.812012	48.561180
635.837463	958.653809	9090.566406	4878.122070	48.198605
636.172424	959.619629	8989.811523	4835.397949	48.265076
636.507324	959.099548	8916.624023	4811.398438	48.410770
636.842224	960.734192	8824.562500	4808.798340	48.933727
637.177124	967.867249	8732.129883	4785.244141	49.165993
637.511963	958.728027	8608.341797	4742.445801	49.462860
637.846741	953.452576	8511.526367	4683.746582	49.355087
638.181396	936.734375	8402.894531	4611.152832	49.214298
638.516113	943.050110	8370.276367	4577.493652	48.934063
638.850769	947.656921	8304.518555	4554.979980	49.033447
639.185303	945.799316	8237.793945	4547.475098	49.392189
639.519836	945.650696	8157.547363	4522.063477	49.590462
639.854370	942.232727	8089.783203	4482.757813	49.534805
640.188843	949.440186	8032.570313	4446.498047	49.371647
640.523254	955.681641	7968.298340	4423.909668	49.456974
640.857605	968.164490	7921.339355	4411.649414	49.523922
641.191895	962.071716	7868.583984	4379.179199	49.476601
641.526184	947.805481	7791.829590	4346.783691	49.663448
641.860413	935.025391	7721.613281	4317.730957	49.843983
642.194580	936.808655	7653.253906	4303.911133	50.132210
642.528748	938.666199	7628.362793	4263.564941	49.701786
642.862793	954.269775	7612.907715	4253.162109	49.543053
643.196838	962.443176	7603.248535	4237.335938	49.314693
643.530823	971.285156	7575.905762	4252.642090	49.682747
643.864746	965.563782	7550.568359	4237.855957	49.693092
644.198669	966.083984	7536.153809	4227.750488	49.644321
644.532532	967.792908	7505.020996	4217.868652	49.716419
644.866333	968.164368	7469.429688	4199.589844	49.704563
645.200073	966.232605	7431.535156	4213.558594	50.226974
645.533813	958.653625	7420.093262	4203.602051	50.220211
645.867554	950.108887	7408.129395	4206.574219	50.425133
646.201172	946.245117	7423.584473	4198.549316	50.210495
646.534729	949.068665	7430.643066	4190.673340	50.012615
646.868225	946.245178	7452.191406	4195.503418	49.942902
647.201782	937.923157	7435.250000	4191.490723	50.075481
647.535217	944.833313	7469.429688	4215.564941	50.129257
647.868591	966.381165	7478.048828	4232.803223	50.162605
648.201965	985.254089	7496.773438	4249.818359	50.135212
648.535278	965.341003	7471.436035	4226.784668	50.129047
648.868591	937.626038	7495.881348	4199.515625	49.737156
649.201782	924.400085	7503.608887	4155.602051	49.112316
649.534912	936.660095	7544.252441	4152.333008	48.666332
649.868103	934.876770	7560.450684	4139.701660	48.370529
650.201172	928.263855	7595.670410	4153.225098	48.369049
650.534180	924.028625	7588.239746	4150.252930	48.411198
650.867188	931.161621	7578.580566	4154.116211	48.484303
651.200134	941.861328	7563.125488	4143.639160	48.355991
651.533020	933.613586	7540.760254	4133.980469	48.437958
651.865845	950.331726	7522.556152	4128.853516	48.362949
652.198608	954.567078	7516.908691	4135.243652	48.468620
652.531433	958.653625	7475.447754	4108.494629	48.334213
652.864136	945.204895	7408.649902	4091.330811	48.675686
653.196777	2267.421875	8794.840820	6426.070801	63.710464
653.529358	2331.842285	8793.800781	6495.469238	64.432892
653.861938	2330.504883	8728.117188	6459.878906	64.545547
654.194519	999.000000	7178.311035	4053.510498	49.431248
654.526978	950.851868	7087.291016	3969.548584	49.192974
654.859375	944.239014	7023.835938	3950.378174	49.446358
655.191833	949.663086	6999.390625	3950.378906	49.600842
655.524170	932.499084	6946.561035	3921.697510	49.703487
655.856445	939.260742	6948.716309	3942.874023	49.981453
656.188660	1015.421082	7016.331543	4032.483154	50.276737
656.520874	1030.727417	7041.371094	4065.027344	50.482113
656.853088	1029.464233	7070.721191	4079.888428	50.493206
657.185181	948.028503	7029.111816	4043.405518	50.901733
657.517212	941.043945	7082.312500	4093.114014	51.326042
657.849243	946.170898	7152.380371	4171.875000	51.975430
658.181274	958.579346	7278.396973	4268.914063	52.380226
658.513123	945.576416	7372.315918	4333.111816	52.710018
658.844971	938.740540	7505.020996	4407.562988	52.827816
659.176819	930.790222	7607.335449	4475.029785	53.084930
659.508667	931.904785	7706.826660	4521.246094	52.979820
659.840393	933.390808	7727.779785	4503.636230	52.546967
660.172058	935.694153	7721.315918	4421.159668	51.365459
660.503662	953.229553	7669.675293	4344.331055	50.489525
660.835266	961.997253	7624.127441	4273.000488	49.698864
661.166931	959.842529	7517.279785	4181.311035	49.126942
661.498413	958.505066	7435.845215	4092.816650	48.388866
661.829773	957.316223	7318.743652	4012.124023	48.020794
662.161194	963.780579	7207.958496	3952.236084	47.859875
662.492615	951.446350	7069.161621	3905.871094	48.292942
662.823975	969.353333	6960.605469	3858.986084	48.230869
663.155212	970.616455	6846.476074	3819.605469	48.486336
663.486450	974.034363	6728.186035	3746.417236	48.180565
663.817627	959.694031	6612.719238	3691.284424	48.320858
664.148743	953.229675	6528.831543	3643.285156	48.246906
664.479858	960.139709	6453.488281	3637.637939	48.740730
664.810913	944.313232	6362.616699	3616.907471	49.325294
665.141907	941.786926	6291.210938	3615.198486	49.975693
665.472778	934.876770	6239.199219	3606.282471	50.362812
665.803711	971.953796	6257.032715	3629.836670	50.290314
666.134583	969.724792	6229.316895	3628.499023	50.550957
666.465454	984.808289	6219.063965	3633.477295	50.602589
666.796143	954.046936	6134.582031	3603.087158	51.134491
667.126831	970.913635	6144.314941	3615.050049	51.110214
667.457458	966.455566	6136.810547	3616.387451	51.252419
667.788147	966.678406	6142.085938	3598.257813	50.847767
668.118774	964.226379	6121.207031	3597.589600	51.064053
668.449219	966.455505	6126.259277	3602.270508	51.083630
668.779663	977.675110	6145.949219	3631.025391	51.339199
669.110107	956.498840	6124.996094	3609.997803	51.339859
669.440552	947.136780	6115.262207	3585.997803	51.060314
669.770874	928.858215	6068.972656	3555.608154	51.102951
670.101135	939.112000	6052.477051	3541.490479	50.893654
670.431396	940.300964	5980.402832	3518.531250	51.154327
670.761597	944.238953	5950.830566	3494.234131	50.932755
671.091797	937.254456	5910.707031	3476.401123	51.054005
671.421875	920.387756	5879.945801	3445.937256	50.922874
671.751892	921.279480	5857.060547	3436.352295	50.955921
672.081909	928.858398	5828.007813	3407.076904	50.584667
672.411865	951.520691	5800.516113	3401.132568	50.517921
672.741821	944.461914	5761.433594	3371.040039	50.375595
673.071716	937.105896	5732.826660	3356.699951	50.453190
673.401550	929.601257	5712.318848	3346.371826	50.531322
673.731262	935.174011	5694.486328	3351.647217	50.773575
674.060974	929.155518	5640.988281	3337.604248	51.114899
674.390625	932.127625	5624.716309	3325.418213	51.001495
674.720276	933.019287	5597.966797	3317.319336	51.110977
675.049927	938.443359	5589.199219	3322.371826	51.258945
675.379395	930.567322	5556.951660	3316.873291	51.580364
675.708923	931.236023	5507.466309	3294.954102	51.652077
676.038330	935.099792	5474.401855	3288.638428	51.848026
676.367737	939.186340	5459.020996	3284.105713	51.880650
676.697083	957.167664	5480.568848	3321.851563	52.276676
677.026428	960.288391	5491.193848	3327.795898	52.252419
677.355652	952.412292	5484.581543	3323.114502	52.308331
677.684875	948.697083	5494.240234	3337.901123	52.561466
678.013977	935.694153	5507.392090	3335.448975	52.491547
678.343079	939.334961	5531.168457	3364.575928	52.816395
678.672180	914.815125	5536.146973	3348.971924	52.672188
679.001221	916.747009	5585.484375	3370.594482	52.559124
679.330139	926.109070	5653.768066	3406.631104	52.468292
679.659058	937.551758	5723.539063	3441.553467	52.319439
679.987976	933.762268	5775.921875	3491.039063	52.812733
680.316772	931.458984	5807.277832	3512.141357	52.928185
680.645630	925.737610	5828.380371	3518.457031	52.884121
680.974304	941.192627	5847.400879	3501.961670	52.194466
681.302979	931.384583	5857.134766	3487.249268	51.887829
681.631653	931.013123	5837.296387	3465.033203	51.648468
681.960266	936.214294	5820.949707	3441.925049	51.296753
682.288757	946.022217	5782.460938	3407.894531	50.902588
682.617249	955.458679	5758.535156	3372.526367	50.323318
682.945679	954.046875	5700.802246	3326.532959	49.981216
683.274109	962.443115	5661.569824	3305.504883	49.861641
683.602478	960.808594	5580.505859	3273.554688	50.062721
683.930725	949.217285	5495.800781	3225.332764	50.062107
684.259033	929.601379	5391.034180	3158.980469	49.970028
684.587280	922.096741	5304.471191	3110.609131	49.938965
684.915344	924.400146	5239.084473	3108.528564	50.620811
685.243469	938.443359	5205.425781	3101.544189	50.693924
685.571533	939.855042	5207.431641	3097.011719	50.547581
685.899536	943.421631	5191.457031	3083.117188	50.369064
686.227539	923.880066	5173.178223	3050.126953	50.037598
686.555420	925.811951	5170.577637	3044.108154	49.903725
686.883301	919.273254	5172.583984	3049.755127	50.089970
687.211121	919.570496	5185.512207	3075.760986	50.544300
687.538940	923.657166	5215.308105	3098.720703	50.681278
687.866638	922.988464	5221.995117	3097.457764	50.580734
688.194336	928.858337	5200.076172	3093.371094	50.676712
688.521973	915.855286	5144.497559	3061.718018	50.745907
688.849609	912.883118	5111.209961	3038.312500	50.625633
689.177063	922.988342	5087.284668	3012.380859	50.173965
689.504578	929.378418	5032.672363	2989.421143	50.204609
689.832031	928.263855	4951.830566	2948.480713	50.209602
690.159485	920.684998	4881.465820	2914.152588	50.330166
690.486816	923.137024	4807.980469	2883.688477	50.466679
690.814087	961.848694	4806.865723	2891.193115	50.177788
691.141296	978.121094	4748.983887	2885.843018	50.591125
691.468506	974.257324	4685.678223	2853.001221	50.620609
691.795715	939.186340	4591.759277	2798.760498	50.911350
692.122803	928.858215	4548.292480	2776.023682	51.034645
692.449829	929.006836	4553.642578	2777.510010	50.998314
692.776855	926.109070	4533.729004	2759.602783	50.822807
693.103821	911.917297	4504.528320	2716.135986	50.220264
693.430664	899.285828	4460.244141	2681.510986	50.049030
693.757568	899.062927	4437.878418	2672.446045	50.112335
694.084351	899.583008	4406.597168	2674.749268	50.617596
694.411133	910.877014	4394.039551	2684.483154	50.919422
694.737854	917.118469	4372.120605	2692.136230	51.375301
695.064575	915.632507	4369.297363	2712.272217	52.021252
695.391174	927.669434	4357.631348	2723.714844	52.363422
695.717773	916.003906	4356.071289	2722.971680	52.527103
696.044250	916.598328	4351.464355	2708.780029	52.176174
696.370789	898.171326	4368.479980	2728.990234	52.756657
696.697205	900.251770	4400.281738	2759.751709	53.128117
697.023621	901.812195	4461.952637	2816.221680	53.773426
697.349915	914.666504	4555.648438	2869.868408	53.699852
697.676208	917.935791	4666.507813	2954.796143	54.336967
698.002380	923.805664	4794.011719	3044.776611	54.802532
698.328674	923.731445	4919.062988	3141.444580	55.507610
698.654724	925.366150	5024.349609	3208.540039	55.700977
698.980896	924.028625	5147.098145	3261.072266	55.339931
699.306946	935.322693	5205.797363	3276.527344	54.823055
699.632935	942.158508	5236.930176	3247.846436	53.685928
699.958862	942.307129	5169.834473	3177.555908	52.873669
700.284729	923.434143	5089.290527	3067.365234	51.464355
700.610596	926.629150	5002.430664	2996.554443	50.785725
700.936340	931.013000	4900.041504	2916.084717	50.014046
701.262146	926.777832	4777.367676	2856.642334	50.118671
701.587830	930.270081	4633.814941	2790.438721	50.226707
701.913513	933.019287	4486.323730	2733.745361	50.677505
702.239075	950.777649	4369.743164	2672.966064	50.371624
702.564697	941.266846	4252.567871	2615.455811	50.559853
702.890137	930.195801	4177.893555	2579.344727	50.779015
703.215698	912.288818	4095.863281	2539.518311	51.113285
703.541016	904.561340	4041.622314	2491.890381	50.599243
703.866455	907.087585	3996.520508	2449.240723	49.917027
704.191711	913.254700	3975.938477	2449.314941	50.154060
704.517029	916.895569	3953.721924	2439.358154	50.133343
704.842163	919.644714	3951.196045	2426.355225	49.700974
705.167419	922.691162	3931.059570	2404.361816	49.251637
705.492493	923.211243	3949.189453	2412.238037	49.208115
705.817566	918.455994	3942.576416	2415.135742	49.491405
706.142578	918.084473	3964.124756	2410.603271	48.998657
706.467590	924.920349	3984.186279	2405.402100	48.393364
706.792480	928.115295	4014.353271	2406.516602	47.903023
707.117371	925.886230	4028.916748	2415.804443	48.014938
707.442200	939.483582	4064.284424	2434.454346	47.842113
707.766907	944.090332	4082.488525	2435.568848	47.523560
708.091675	950.703308	4108.197266	2425.760986	46.716087
708.416321	933.836609	4096.086426	2407.036621	46.587086
708.741028	935.545593	4108.271973	2417.736084	46.716618
709.065552	935.025391	4126.995605	2425.166260	46.684048
709.390137	934.950989	4111.466309	2423.234619	46.852715
709.714600	937.328796	4110.872559	2422.268799	46.791225
710.039063	943.867371	4096.457520	2444.485107	47.599518
710.363403	960.808411	4129.819824	2486.689209	48.150059
710.687744	959.173767	4125.138184	2508.088135	48.923935
711.012085	948.474304	4151.738770	2510.391846	48.760181
711.336304	944.684814	4171.131348	2525.623779	48.999386
711.660461	942.827332	4205.236328	2536.917969	48.862377
711.984619	957.762146	4223.143066	2543.753662	48.569878
712.308716	950.406189	4214.747070	2508.459961	47.729504
712.632751	945.427917	4186.586426	2477.326904	47.263931
712.956726	952.115051	4146.908691	2471.605713	47.561466
713.280701	949.514465	4100.172852	2463.581055	48.055561
713.604553	962.145935	4063.913330	2463.209717	48.393822
713.928467	952.635193	4000.756104	2442.107422	48.865261
714.252258	952.338074	3941.313721	2427.692627	49.359871
714.575989	944.907715	3879.270752	2411.345947	49.974670
714.899719	931.161682	3816.559326	2395.445313	50.748070
715.223267	929.304138	3763.507080	2390.244141	51.546768
715.546936	937.625977	3726.504639	2401.092529	52.475090
715.870422	941.043945	3702.058594	2403.990234	52.985821
716.193970	938.294739	3689.650391	2385.934570	52.615513
716.517395	934.579590	3684.597900	2366.021484	52.052086
716.840820	935.842773	3655.545654	2337.860840	51.550411
717.164124	932.796326	3610.815186	2322.554443	51.895008
717.487488	933.687988	3551.447021	2303.310059	52.320404
717.810730	926.406250	3513.701172	2275.743896	52.152447
718.133972	927.149353	3462.655273	2243.867920	51.931194
718.457092	913.923523	3405.145264	2198.691650	51.571808
718.780212	910.654114	3359.300537	2178.184326	51.764526
719.103210	908.945129	3319.622803	2148.463135	51.417824
719.426208	906.418762	3285.146240	2121.863037	51.096409
719.749207	936.437195	3274.223877	2119.113525	50.589573
720.072083	937.105957	3243.833984	2112.798096	50.967957
720.394958	938.220520	3219.908447	2120.079834	51.797588
720.717773	910.654114	3158.608643	2087.460693	52.350109
721.040527	903.818359	3126.064453	2073.120361	52.618027
721.363281	918.604553	3102.435791	2056.624756	52.111179
721.685913	936.585876	3088.318359	2061.826172	52.294617
722.008545	949.811707	3068.256592	2066.952881	52.734020
722.331055	939.855042	3043.067627	2048.377197	52.706142
722.653503	925.811829	3019.365234	2030.098999	52.747021
722.976013	924.325867	3010.895264	2021.033813	52.560345
723.298401	933.242188	3006.065186	2028.241211	52.826462
723.620789	932.424866	2987.861084	2023.114380	53.063648
723.943115	933.242188	2996.628906	2015.089844	52.430679
724.265381	931.830383	2986.077881	2007.065063	52.342018
724.587585	936.214294	3004.430420	2005.727539	51.711868
724.909790	935.025391	2993.953857	2015.907227	52.497299
725.231873	924.028625	2994.325439	2017.170288	52.801201
725.553894	937.923340	3003.910400	2038.049316	53.249413
725.875916	1415.169800	3514.964111	2527.109619	52.954700
726.197937	1440.135376	3531.162109	2552.001221	53.173199
726.519775	1416.432983	3517.044678	2538.478027	53.415154
726.841675	932.573486	3025.458008	2053.355713	53.552032
727.163513	907.756348	3028.355713	2038.123657	53.304142
727.485291	911.991638	3052.801514	2054.395996	53.363186
727.806946	928.635437	3084.305908	2079.064453	53.367573
728.128662	931.236023	3102.807373	2086.866455	53.216324
728.450256	940.449524	3120.714111	2096.599854	53.027985
728.771790	932.796326	3105.556641	2082.705078	52.923866
729.093323	936.511414	3100.949951	2090.878418	53.333321
729.414795	932.424805	3088.169922	2076.835205	53.086536
729.736145	920.536377	3074.349365	2068.885010	53.317009
730.057495	911.322815	3073.234619	2055.287598	52.914501
730.378845	912.734558	3082.820068	2059.968506	52.865841
730.700134	927.149231	3107.191406	2062.494873	52.079067
731.021301	931.681824	3129.110352	2072.080078	51.896942
731.342468	928.189636	3130.745361	2089.615234	52.730816
731.663574	927.520813	3131.116455	2093.776367	52.925117
731.984680	938.517639	3122.869141	2102.098389	53.268936
732.305664	923.062683	3125.172607	2086.791992	52.846104
732.626648	922.988342	3125.023682	2093.999268	53.178574
732.947571	912.437317	3130.447998	2089.987061	53.090355
733.268433	931.830383	3124.280518	2083.894287	52.546871
733.589233	931.533203	3126.955811	2081.144775	52.364021
733.909973	953.303955	3133.642822	2084.265625	51.870914
734.230713	969.724854	3136.094971	2088.798096	51.656605
734.551331	961.700134	3080.590820	2049.045898	51.316746
734.871948	936.214355	3025.532471	2001.715210	50.997540
735.192505	924.697327	2965.644531	1961.963257	50.822765
735.513062	933.093567	2944.839844	1946.582520	50.378567
735.833435	941.935547	2900.035156	1938.037720	50.870865
736.153931	933.985168	2862.958008	1926.595337	51.457962
736.474304	924.846008	2834.277344	1921.914185	52.218067
736.794617	924.920227	2823.949219	1921.319702	52.468891
737.114807	927.669434	2833.757080	1914.186523	51.756123
737.434998	927.669495	2819.416748	1912.180298	52.042404
737.755188	936.288574	2814.215576	1921.839844	52.480808
738.075256	932.870667	2803.961670	1932.390991	53.419117
738.395325	937.031555	2824.766602	1933.951172	52.810356
738.715271	932.573425	2845.051514	1944.353516	52.904140
739.035278	930.121399	2846.240234	1949.703247	53.210781
739.355164	930.344299	2834.203125	1958.619751	54.010063
739.675049	925.068848	2821.794189	1935.511719	53.273022
739.994873	938.591980	2832.122314	1925.257813	52.107212
740.314636	936.734375	2820.457031	1904.601685	51.380562
740.634277	937.848877	2801.138428	1896.799805	51.465481
740.953979	927.075012	2762.798096	1878.669922	51.837605
741.273499	936.882996	2742.885010	1866.781616	51.489346
741.593140	946.839600	2719.479736	1855.933228	51.284725
741.912598	950.406067	2699.492188	1838.992310	50.802887
742.232117	945.947937	2680.396240	1828.367065	50.876072
742.551453	933.910889	2653.052979	1802.881226	50.546741
742.870850	940.226563	2636.334961	1808.750977	51.206894
743.190063	933.910889	2619.914063	1808.082397	51.848747
743.509338	933.613708	2603.418701	1807.339478	52.325020
743.828552	927.966614	2588.335205	1789.283813	51.875057
744.147705	927.372314	2570.874023	1781.184937	51.950821
744.466797	928.041016	2544.347900	1774.349121	52.360607
744.785828	946.393799	2533.648193	1785.791626	52.883636
745.104858	959.768250	2518.044922	1778.881470	52.565327
745.423706	968.535950	2522.948975	1771.079590	51.630009
745.742615	953.601074	2498.651855	1746.708374	51.332119
746.061401	961.254211	2506.453857	1754.361694	51.327183
746.380249	957.093262	2492.261963	1755.104614	51.981998
746.698975	951.520569	2476.583984	1746.708374	52.141293
747.017639	932.573425	2454.144531	1733.333862	52.627213
747.336304	926.777832	2448.274658	1716.912964	51.931435
747.654907	928.041016	2461.574951	1731.030396	52.362022
747.973389	936.660156	2462.466553	1732.219360	52.140247
748.291931	937.477478	2464.918457	1742.101563	52.677917
748.610352	929.304199	2460.534424	1732.367798	52.445648
748.928711	928.115295	2462.020508	1741.432739	53.022663
749.247070	933.316589	2470.937012	1739.723999	52.445156
749.565308	942.678711	2469.450928	1733.482422	51.795788
749.883545	938.740662	2470.045410	1709.557007	50.337231
750.201782	938.517761	2447.828857	1710.448730	51.144592
750.519836	930.567322	2432.819580	1709.408325	51.844891
750.837952	928.932617	2414.838623	1711.117310	52.640255
751.155884	925.217529	2419.370850	1705.173218	52.200512
751.473877	927.595215	2413.649658	1695.067871	51.644989
751.791809	924.400208	2409.042725	1689.272461	51.518948
752.109619	922.542664	2396.559814	1678.944336	51.315666
752.427490	930.121521	2395.296631	1670.102173	50.504589
752.745300	951.074890	2398.268799	1678.052734	50.233620
753.062988	948.771484	2402.726807	1675.229126	49.964233
753.380615	939.112122	2392.398682	1679.167114	50.922852
753.698303	932.424866	2406.144775	1671.662598	50.161343
754.015808	940.152344	2400.646484	1678.572754	50.559628
754.333374	934.653992	2400.795166	1685.557251	51.216301
754.650757	919.793457	2367.656250	1683.030884	52.714764
754.968262	916.672668	2368.176270	1693.061890	53.488617
755.285583	932.053406	2370.553955	1708.368164	53.966946
755.602905	939.483643	2368.399170	1705.247437	53.590557
755.920105	939.855164	2351.680908	1691.575684	53.244572
756.237305	928.412415	2343.507568	1674.337524	52.712009
756.554443	923.582825	2340.089844	1674.040405	52.979443
756.871582	917.861511	2344.399414	1677.012329	53.216312
757.188599	914.592224	2353.984619	1675.452026	52.859791
757.505615	920.685059	2373.451904	1689.198120	52.899960
757.822510	928.783997	2384.597412	1706.139038	53.396610
758.139465	940.523865	2399.160645	1724.120239	53.721146
758.456238	929.229797	2405.104736	1727.761108	54.105621
758.773010	922.988281	2416.027344	1725.829224	53.772266
759.089783	924.028564	2419.148193	1734.151001	54.184456
759.406433	927.149353	2420.039795	1737.717651	54.295231
759.723145	917.935791	2421.451416	1737.568970	54.514442
760.039673	915.335205	2429.847656	1735.859985	54.177486
760.356201	917.787170	2423.383301	1739.872437	54.601974
760.672668	926.554871	2429.327393	1739.055176	54.066753
760.989136	916.598328	2424.200684	1736.677368	54.396244
761.305481	913.626282	2431.779541	1730.659180	53.817547
761.621826	923.062683	2435.197510	1744.999390	54.356049
761.938049	958.653625	2464.992920	1774.794922	54.180439
762.254333	960.957031	2496.348633	1801.172241	54.723186
762.570496	952.115051	2536.620850	1819.450806	54.738564
762.886597	917.415710	2581.870850	1845.085327	55.734135
763.202637	914.963684	2684.260254	1916.787231	56.622700
763.518677	919.793457	2829.447510	2014.718384	57.336296
763.834656	925.589050	2986.746338	2107.225342	57.328777
764.150574	922.839844	3085.123047	2150.840820	56.791866
764.466370	919.273254	3133.123047	2159.608643	56.026176
764.782288	912.511719	3113.952881	2126.692627	55.153912
765.097961	920.982178	3079.178955	2084.711182	53.921356
765.413696	918.307312	2985.780518	2021.776978	53.372868
765.729309	920.164856	2885.174805	1950.595093	52.438927
766.044861	915.929688	2777.287109	1878.224243	51.698536
766.360474	913.923401	2681.882568	1825.617798	51.567616
766.675903	917.341370	2589.895752	1785.271484	51.892487
766.991394	910.208313	2508.980225	1749.160278	52.474773
767.306763	919.050354	2467.444580	1721.668335	51.835503
767.622131	920.164856	2431.853760	1705.767578	51.968544
767.937378	934.059509	2392.250244	1686.746094	51.617844
768.252625	936.288574	2349.971924	1672.702759	52.091877
768.567810	928.115234	2309.699951	1645.953735	51.957619
768.882996	927.075134	2294.913818	1644.096313	52.420013
769.197998	915.632507	2250.629150	1620.542358	52.802372
769.513062	926.406311	2233.911377	1619.130493	52.980610
769.828064	922.096741	2196.760010	1604.418579	53.529572
770.142944	925.217468	2190.146973	1600.257813	53.365849
770.457825	920.164856	2170.159668	1587.774902	53.409023
770.772705	915.038025	2145.862793	1572.468384	53.413811
771.087402	915.706787	2125.652344	1572.617188	54.292557
771.402100	927.966736	2106.482178	1559.762695	53.609478
771.716736	937.254578	2101.058105	1557.682251	53.310349
772.031372	937.105957	2097.417236	1538.140625	51.799435
772.345947	919.421814	2081.219238	1532.122070	52.737274
772.660461	921.205139	2073.194580	1528.184082	52.689625
772.974854	930.121399	2054.173096	1534.574097	53.774456
773.289246	950.257507	2039.089478	1548.914429	54.981567
773.603638	942.381409	2016.130249	1535.614258	55.248756
773.917908	935.471191	2004.538940	1520.605103	54.733101
774.232178	918.604492	2002.606934	1497.199707	53.375824
774.546265	916.078308	2002.903931	1491.032715	52.902172
774.860474	908.127869	1995.993774	1481.373413	52.694500
775.174561	920.164856	1991.015625	1479.069946	52.192619
775.488586	937.625977	1988.860962	1489.398071	52.487988
775.802551	942.901550	1972.885742	1491.107056	53.224655
776.116516	931.013123	1951.560913	1484.865601	54.270119
776.430359	914.815125	1938.929565	1477.583862	54.951740
776.744202	929.452820	1947.400024	1487.614746	54.832111
777.057922	929.155518	1953.641602	1484.791138	54.235546
777.371704	934.802551	1945.616821	1479.589966	53.895897
777.685303	922.988464	1925.183594	1465.398315	54.122181
777.998962	930.121399	1922.805786	1462.797729	53.660191
778.312500	919.793396	1912.329102	1458.711060	54.297054
778.626038	915.632385	1909.505493	1456.036133	54.373516
778.939453	920.387756	1916.935913	1468.370483	54.988083
779.252869	948.251282	1944.576538	1486.351685	54.008507
779.566223	952.263672	1940.712769	1486.351685	54.032932
779.879578	940.523865	1921.691284	1472.234009	54.191582
780.192749	933.539368	1891.895874	1462.872070	55.233379
780.505920	928.932617	1895.239380	1463.466431	55.317196
780.819031	921.056458	1880.007446	1460.122681	56.214157
781.132141	970.765076	1950.520874	1510.871582	55.126644
781.445190	978.195313	1952.378296	1511.911743	54.786057
781.758118	997.885498	1970.285278	1530.115845	54.733696
782.071045	933.985168	1890.632813	1464.506714	55.456318
782.383911	927.892334	1865.295532	1447.640015	55.445477
782.696838	917.415710	1840.404175	1417.473022	54.178066
783.009583	924.623047	1835.054199	1419.479126	54.354034
783.322266	918.976074	1840.626953	1419.627930	54.321205
783.634888	912.734558	1831.636353	1409.448364	54.055157
783.947510	903.892578	1819.227905	1385.819946	52.650364
784.260132	911.025574	1810.980347	1379.727173	52.080574
784.572571	913.254700	1807.636719	1384.779785	52.720768
784.885010	921.205078	1804.070190	1392.953125	53.433762
785.197449	928.338196	1795.822632	1392.135742	53.464653
785.509766	948.325623	1784.305664	1396.593872	53.621883
785.822083	944.684814	1783.116699	1395.776489	53.801826
786.134277	942.678528	1779.624390	1395.479492	54.101585
786.446533	933.242188	1782.447876	1394.290649	54.291729
786.758606	945.799316	1797.828613	1406.550415	54.076908
787.070740	945.947937	1802.955566	1409.448242	54.083569
787.382690	939.929382	1803.921509	1408.779663	54.265572
787.694641	918.084412	1788.095093	1393.027344	54.590473
788.006653	918.827454	1791.735840	1406.996460	55.924427
788.318481	923.062683	1832.379395	1421.782593	54.845566
788.630310	925.068848	1865.592773	1441.101196	54.866478
788.942017	907.979248	1885.134399	1436.717407	54.109951
789.253784	910.059753	1894.496460	1453.955688	55.249458
789.565430	911.471497	1897.171387	1454.104370	55.050514
789.877014	922.765564	1884.168457	1448.160156	54.648743
790.188538	926.406311	1864.181030	1419.999390	52.634506
790.500061	926.554932	1832.082153	1409.968384	53.384750
790.811462	917.638611	1814.918335	1402.240845	54.007935
791.122925	918.901672	1796.788452	1405.584595	55.438007
791.434204	913.923401	1780.887695	1394.959351	55.485092
791.745483	920.462097	1775.760742	1394.141968	55.381809
792.056702	908.127869	1745.668091	1376.532227	55.926193
792.367920	922.988464	1739.278320	1376.680664	55.579792
792.678955	918.678894	1713.569336	1355.207275	54.916798
792.990112	926.183411	1717.136108	1353.423950	54.015942
793.301086	908.127930	1697.891602	1337.894897	54.417160
793.612122	917.044189	1713.346313	1351.566528	54.567524
793.922974	911.248535	1694.696411	1340.495361	54.789455
794.233826	920.982178	1699.154663	1347.182739	54.769421
794.544556	919.570496	1681.693481	1340.941284	55.289082
794.855286	918.604492	1680.876343	1343.021606	55.677921
795.166016	924.920227	1692.467407	1351.343506	55.556622
795.476624	921.205078	1701.755249	1353.126831	55.335552
795.787292	921.873840	1713.643555	1355.058716	54.710968
796.097778	910.059753	1725.160522	1354.315796	54.503204
796.408264	907.681946	1745.816772	1363.157715	54.343975
796.718689	912.957520	1754.956055	1389.832397	56.636070
797.029053	916.152527	1744.553711	1393.621704	57.637432
797.339355	917.341370	1732.367798	1390.501099	58.054527
797.649658	914.963684	1731.327637	1376.012085	56.475842
797.959839	923.359863	1729.916016	1364.420898	54.684479
798.270020	929.972839	1728.801392	1365.981079	54.580952
798.580078	943.124451	1738.980835	1376.532227	54.458038
798.890137	933.985168	1723.377319	1379.875854	56.485321
799.200195	925.143250	1702.572632	1364.866577	56.561192
799.510071	910.951355	1668.764771	1336.557251	56.162361
799.820007	914.443604	1662.671875	1329.275635	55.441910
800.129883	912.140137	1652.789673	1329.498535	56.350323
800.439575	907.681946	1661.483276	1326.897949	55.613594
800.749329	908.870911	1668.393188	1321.771118	54.363148
801.058960	908.276428	1667.130249	1323.034180	54.655815
801.368591	912.511719	1648.703125	1327.418091	56.358490
801.678162	908.796570	1628.418335	1323.182861	57.583900
801.987671	915.112305	1625.669312	1324.966187	57.680649
802.297119	917.415710	1631.762085	1323.851685	56.896206
802.606506	911.025635	1628.864258	1313.003418	55.998348
802.915894	906.418945	1631.390625	1300.966431	54.422470
803.225159	899.657410	1607.613647	1286.774536	54.680939
803.534424	907.830627	1607.242188	1295.021973	55.359585
803.843628	907.979187	1590.969849	1286.997437	55.493916
804.152771	918.827454	1600.703613	1303.195313	56.369160
804.461792	929.229797	1607.167969	1311.591553	56.400684
804.770874	933.613770	1618.164673	1316.941406	55.996952
805.079773	925.440430	1614.969604	1313.300659	56.250011
805.388733	909.688232	1609.248413	1306.241821	56.686131
805.697571	911.768738	1607.019165	1312.928955	57.700104
806.006470	911.620117	1615.861328	1314.563599	57.216686
806.315125	908.573730	1623.514526	1313.151978	56.589054
806.623901	904.709961	1620.468140	1314.266479	57.219955
806.932495	901.514954	1616.009766	1304.978638	56.468384
807.241150	908.053528	1609.248413	1308.916870	57.168606
807.549622	915.335266	1603.304077	1303.418457	56.409996
807.858154	919.273254	1590.078125	1310.179932	58.274277
808.166565	919.050354	1582.202148	1298.217163	57.176472
808.474915	914.815125	1583.242310	1301.932251	57.914631
808.783264	922.691223	1590.003906	1304.087036	57.153988
809.091492	916.895569	1579.898804	1298.365845	57.536713
809.399719	912.214539	1571.205444	1290.712524	57.435997
809.707825	909.316711	1565.855469	1279.418579	56.371670
810.015930	914.889404	1557.682251	1282.910767	57.253494
810.323975	924.474426	1550.623413	1277.783813	56.425770
810.632080	912.734619	1538.214844	1272.656860	57.543346
810.939880	904.115540	1531.230469	1262.848999	57.203781
811.247864	899.657410	1534.128418	1258.762329	56.599106
811.555664	900.177490	1520.308105	1251.034790	56.577969
811.863464	899.434509	1511.317383	1240.038208	55.664852
812.171143	882.716309	1489.472290	1230.230103	57.274063
812.478882	883.830811	1493.633301	1227.926758	56.427441
812.786438	902.109192	1507.973633	1246.948364	56.916885
813.094055	920.759277	1513.695190	1250.588989	55.626537
813.401489	912.660339	1496.011108	1243.233032	56.667912
813.708984	909.985413	1478.847168	1231.418945	56.504684
814.016357	921.130859	1498.537476	1242.490112	55.655624
814.323730	939.929382	1525.583496	1260.174194	54.681561
814.630981	927.075012	1522.611328	1250.589233	54.323174
814.938232	915.037903	1509.756958	1245.462280	55.559742
815.245361	903.000977	1493.707642	1226.886475	54.830173
815.552490	908.796570	1499.874634	1236.025757	55.361416
815.859619	905.304382	1491.701538	1227.926758	55.017727
816.166565	917.564270	1485.757202	1233.796753	55.655827
816.473572	922.691223	1478.624023	1237.809082	56.682724
816.780457	922.616882	1478.104004	1245.908081	58.199585
817.087341	917.564270	1487.094604	1248.582886	58.121330
817.394043	907.979187	1495.936646	1250.291870	58.220654
817.700806	909.019348	1498.165649	1249.177368	57.737446
818.007507	910.431213	1502.549683	1254.824341	58.162876
818.314209	914.889343	1509.014038	1251.035034	56.578308
818.620667	913.774841	1521.273926	1249.400269	55.247066
818.927246	910.579834	1540.221069	1255.493042	54.779324
819.233704	912.140198	1562.883423	1276.372192	55.971691
819.540161	911.471497	1572.988647	1297.994263	58.429741
819.846497	912.437439	1607.910767	1327.492432	59.679497
820.152832	909.539551	1646.622681	1356.098999	60.584679
820.458984	905.229980	1716.838745	1391.764282	59.946899
820.765259	905.675781	1774.274780	1423.417358	59.606514
821.071350	911.174316	1853.184082	1476.469360	60.009468
821.377502	913.477722	1952.972656	1539.626587	60.235878
821.683472	914.517883	2160.946045	1678.349976	61.281673
821.989441	902.852356	2553.041260	1929.047241	62.186504
822.295349	905.155762	3164.776123	2335.483154	63.299458
822.601196	896.313721	3951.344482	2843.342041	63.731873
822.907043	906.641846	4674.830078	3290.793213	63.270496
823.212769	905.081543	5176.150879	3557.019775	62.090733
823.518494	913.997742	5288.941895	3558.728760	60.451763
823.824097	910.134033	5051.173340	3331.585205	58.474483
824.129700	917.118469	4596.515137	2985.260498	56.208729
824.435242	912.214539	4081.596924	2597.474365	53.173130
824.740723	911.620117	3637.563721	2284.362793	50.358440
825.046082	899.880188	3256.836914	2038.718140	48.318150
825.351501	898.096985	2957.322998	1871.611206	47.275734
825.656799	898.617126	2715.170166	1752.206665	46.989521
825.962036	896.239441	2524.212158	1675.526367	47.868553
826.267212	906.567566	2379.544678	1648.851685	50.393459
826.572449	917.564270	2305.985107	1659.179688	53.414307
826.877502	920.982239	2336.746338	1706.213379	55.463413
827.182495	932.350586	2483.197021	1817.370117	57.066872
827.487488	917.935852	2657.139648	1945.913940	59.106239
827.792419	921.873840	2808.345703	2047.634399	59.675446
828.097290	894.456116	2836.134766	2061.231689	60.091076
828.402100	903.446777	2805.447998	2009.888550	58.172504
828.706848	906.716064	2688.272461	1918.942017	56.816948
829.011597	911.991638	2511.283447	1781.036133	54.339336
829.316223	898.840027	2304.201416	1644.467773	53.055946
829.620789	908.499329	2131.447998	1538.883789	51.546272
829.925354	927.149353	2007.956665	1472.977173	50.501858
830.229797	936.511475	1909.877075	1420.816772	49.755745
830.534302	951.966492	1824.503296	1391.318481	50.353405
830.838562	936.734375	1725.012085	1349.857544	52.408329
831.142944	937.031555	1652.195313	1317.387207	53.184414
831.447144	902.926697	1577.521118	1265.226685	53.706341
831.751404	901.514954	1551.292358	1248.062744	53.333309
832.055542	908.499329	1536.283203	1248.434326	54.148411
832.359619	907.979248	1530.338867	1252.298096	55.324741
832.663635	919.644714	1537.917603	1267.010010	56.183167
832.967651	907.533386	1559.465454	1281.127563	57.305691
833.271545	914.963684	1615.638306	1321.250977	57.985157
833.575439	900.771973	1696.479858	1383.665405	60.687275
833.879211	899.434509	1824.206055	1463.243530	60.967384
834.183044	900.994812	1968.130493	1549.806274	60.799339
834.486694	899.657288	2088.203369	1604.418579	59.296082
834.790344	923.285583	2161.540283	1652.121094	58.859905
835.093933	914.517883	2145.639648	1631.539185	58.241295
835.397522	912.957520	2078.395752	1577.298218	57.003510
835.700928	888.289063	1953.121460	1474.537476	55.055462
836.004395	914.369324	1873.988892	1416.284180	52.303524
836.307739	923.657043	1784.231079	1352.012329	49.775528
836.611023	930.418640	1716.318481	1319.170532	49.465832
836.914307	903.966858	1616.084351	1263.294922	50.459099
837.217529	914.740784	1576.035034	1254.155640	51.325844
837.520691	913.403320	1519.193359	1223.691528	51.220421
837.823730	910.877014	1478.475464	1204.075562	51.655979
838.126831	896.090820	1420.370728	1175.692017	53.330521
838.429749	903.075256	1393.993286	1167.295654	53.821693
838.732727	906.270325	1375.491821	1162.243042	54.552639
839.035522	904.932800	1361.077271	1152.063599	54.178185
839.338379	895.942200	1351.269165	1137.574707	53.067909
839.641113	897.205322	1345.547974	1136.608643	53.397400
839.943848	904.115540	1369.027710	1152.583740	53.444115
840.246460	907.013367	1390.203979	1176.063477	55.681980
840.549072	903.075256	1426.017700	1194.119019	55.655029
840.851563	899.211487	1443.850464	1207.716431	56.643932
841.154053	899.731628	1445.113647	1204.892944	55.953682
841.456482	900.028809	1434.711304	1195.010620	55.169529
841.758850	904.487000	1415.095337	1180.447266	54.045391
842.061157	900.697571	1396.371094	1162.540405	52.825665
842.363403	908.053528	1365.832642	1144.633423	51.679924
842.665588	891.186829	1320.953735	1118.181763	52.818150
842.967712	905.007141	1299.108765	1107.407837	51.357487
843.269775	904.189758	1284.173950	1103.172485	52.366055
843.571777	907.459167	1271.245239	1093.290161	51.082493
843.873840	899.211609	1258.019409	1096.039429	54.856060
844.175659	905.824524	1243.753296	1091.358398	54.903248
844.477600	935.694153	1259.208252	1101.240601	51.171326
844.779297	938.963562	1254.452881	1092.918701	48.798843
845.081116	930.418701	1244.347656	1087.940308	50.177471
845.382751	911.397217	1228.149780	1084.002319	54.492092
845.684387	899.657410	1211.728638	1076.869263	56.785706
845.985962	896.833801	1198.131348	1065.649536	56.029575
846.287537	891.929871	1179.630005	1048.485718	54.416328
846.588989	905.081482	1172.274048	1043.879028	51.946636
846.890381	909.019531	1171.456665	1046.330933	52.321636
847.191711	919.421875	1170.713745	1049.823120	51.892345
847.493042	911.471436	1176.732300	1049.302979	51.960754
847.794250	923.657166	1182.973633	1055.692993	50.916870
848.095459	918.901794	1181.413208	1057.253418	52.703091
848.396606	915.483887	1175.394775	1062.974731	56.746696
848.697693	902.406555	1169.450562	1053.018188	56.399555
848.998657	901.366394	1160.162720	1045.439331	55.670395
849.299622	917.861572	1164.174927	1051.309204	54.177994
849.600464	907.459167	1160.979980	1050.863403	56.565075
849.901367	899.954590	1158.305054	1048.262817	57.405830
850.202087	885.762695	1144.707642	1033.104980	56.901009
850.502808	904.635559	1143.741821	1035.185425	54.599098
850.803467	907.682068	1147.902710	1035.259766	53.108551
851.104065	924.697449	1163.803589	1051.383423	52.983154
851.404663	921.205139	1163.134888	1045.736450	51.474163
851.705139	918.901794	1162.540405	1046.850952	52.515961
852.005615	907.533386	1156.298950	1032.956421	50.418167
852.306030	894.604797	1151.097778	1027.681030	51.882992
852.606384	900.771912	1151.989380	1034.516846	53.238708
852.906616	902.703796	1147.902710	1044.844849	57.969692
853.206909	908.499329	1141.884155	1049.154419	60.267452
853.506958	899.508789	1134.825439	1034.293823	57.278152
853.807129	888.214661	1127.172241	1014.083496	52.674133
854.107178	896.982422	1130.070190	1019.581848	52.597965
854.407166	912.437439	1131.184692	1032.064697	54.687435
854.707092	917.267090	1126.949341	1034.070923	55.705158
855.007019	909.539551	1129.029785	1028.201050	54.062313
855.306763	905.378601	1123.531372	1019.656189	52.384201
855.606567	903.000977	1115.283813	1007.247620	49.107430
855.906250	901.291992	1107.407837	1002.715271	49.206928
856.205933	901.737793	1109.934082	1011.111511	52.533943
856.505493	903.075195	1111.420044	1015.941162	54.172668
856.805054	915.335205	1120.485107	1026.789429	54.328186
857.104492	910.728516	1122.639771	1019.730530	51.437576
857.403931	913.106140	1131.481812	1029.612793	53.351479
857.703308	901.663513	1116.398438	1011.037109	50.934238
858.002563	895.645020	1107.407715	1012.820374	55.333332
858.301819	896.759583	1109.636841	1008.808105	52.635273
858.601013	904.189880	1125.686157	1020.770813	52.633362
858.900208	909.242432	1122.193970	1015.569641	49.930237
859.199219	910.877136	1122.639771	1019.136169	51.122822
859.498291	915.929688	1116.992798	1018.913269	51.219532
859.797302	931.310364	1126.503540	1031.693237	51.427452
860.096191	950.926270	1141.438477	1042.615723	48.127861
860.395020	937.848938	1135.642944	1042.318604	52.817406
860.693787	919.198975	1126.503540	1018.541748	47.921169
860.992554	892.672852	1095.742188	992.238525	49.030384
861.291260	905.824402	1101.760742	997.216797	46.643921
861.589844	909.242371	1104.732910	1008.659424	50.855175
861.888428	920.387756	1106.590454	1022.777039	54.988075
862.186890	918.307312	1105.253052	1019.804871	54.292522
862.485413	922.171082	1098.714355	1018.318787	54.461269
862.783813	908.796570	1098.342896	1016.312683	56.722870
863.082153	901.514832	1086.677246	1013.934875	60.714291
863.380371	900.920410	1100.200439	1023.297058	61.409389
863.678589	903.075256	1098.788696	1033.253662	66.514801
863.976746	904.635559	1105.624512	1028.201050	61.478748
864.274902	902.778076	1093.735962	1018.021545	60.350201
864.572937	906.195984	1091.804199	1010.739929	56.325062
864.870911	917.638611	1101.835083	1017.947266	54.457424
865.168884	913.477600	1099.828979	1014.009216	53.947342
865.466736	910.133972	1110.528442	1007.099060	48.387108
865.764587	894.233215	1093.290161	998.702820	52.482269
866.062317	899.657288	1102.057983	1006.281738	52.679882
866.360107	903.446777	1097.376953	1015.123718	57.586159
866.657715	906.939026	1099.754517	1016.758362	56.955662
866.955322	896.908203	1088.757690	1012.151672	60.069729
867.252808	887.397400	1091.209839	999.891663	55.194992
867.550293	886.654297	1090.838379	1001.600647	56.295452
867.847717	892.747131	1097.822754	993.278809	49.021759
868.145081	902.183594	1088.609253	990.826843	47.548847
868.442383	904.189758	1094.479126	991.049744	45.646263
868.739624	914.740784	1093.438843	1001.303467	48.440750
869.036804	917.267090	1109.339722	1007.619202	47.040596
869.333984	909.391052	1101.983765	995.879395	44.907379
869.631042	895.347839	1093.810425	982.653503	43.990993
869.928101	884.202454	1082.219116	979.309875	48.030010
870.224976	893.415955	1079.024048	982.430603	47.958389
870.521851	934.133789	1127.098022	1029.910034	49.634197
870.818726	933.613586	1125.537598	1026.417847	48.354691
871.115479	936.882996	1140.695435	1042.170044	51.658794
871.412231	911.248535	1105.698853	1008.287903	49.904453
871.708862	905.675842	1097.748413	1005.538757	51.992283
872.005493	898.691406	1087.568848	987.854675	47.206944
872.302063	883.162170	1090.020874	987.408936	50.395157
872.598572	895.422119	1104.286987	1002.269470	51.156212
872.895020	894.976257	1110.602783	1003.309631	50.241211
873.191406	901.069092	1109.562500	1014.826599	54.561680
873.487671	898.765808	1102.206543	1005.241516	52.337456
873.783997	909.242432	1111.048462	1017.352966	53.571510
874.080200	905.898743	1107.036255	994.690613	44.144859
874.376343	905.230042	1105.847412	990.306641	42.407394
874.672424	908.350769	1106.367554	995.210632	43.864899
874.968445	909.762512	1113.203247	1007.247742	47.918243
875.264465	910.134033	1113.574829	1017.055664	52.556633
875.560364	905.750183	1105.698853	1002.789551	48.532139
875.856201	900.028809	1094.479004	994.170410	48.414249
876.152039	899.434387	1099.977417	993.278809	46.795155
876.447754	891.484070	1097.748413	998.331360	51.801144
876.743469	910.951355	1111.643066	1020.845154	54.757519
877.039063	904.264160	1110.305542	1016.906982	54.669998
877.334595	905.007141	1105.847412	1014.232117	54.384003
877.630127	889.180664	1093.958984	998.702820	53.483276
877.925537	899.211487	1096.708130	1002.789551	52.445480
878.221008	893.713074	1100.200317	1001.154846	52.033127
878.516296	887.917480	1106.739014	995.805115	49.303940
878.811646	882.790588	1109.562500	992.387146	48.328983
879.106812	894.901917	1134.230957	1007.173401	46.910931
879.401978	890.666748	1138.837769	1010.442688	48.263466
879.697083	897.279724	1159.122437	1028.498169	50.113461
879.992126	893.713135	1174.428833	1036.597290	50.899952
880.287109	908.053528	1213.586426	1060.374146	49.854080
880.582031	907.384766	1258.167969	1078.206787	48.697319
880.876892	899.954590	1323.628662	1110.751343	49.754463
881.171753	897.056824	1461.980347	1198.354370	53.334217
881.466492	900.771912	1698.634399	1353.052490	56.686531
881.761230	902.555115	2013.232056	1554.561523	58.703510
882.055786	900.325989	2353.315674	1742.473145	57.959606
882.350403	892.078430	2589.672607	1860.614380	57.053444
882.644958	885.465515	2686.191895	1883.871094	55.444603
882.939453	887.397461	2608.768311	1806.298950	53.381958
883.233826	894.679138	2474.132080	1686.374512	50.124660
883.528137	901.217712	2292.461914	1545.719604	46.325577
883.822449	900.920471	2136.797607	1437.757813	43.437759
884.116577	896.833801	1977.864136	1329.498657	40.023380
884.410828	895.050537	1858.682617	1250.737671	36.911095
884.704956	906.047363	1741.507202	1201.995117	35.423336
884.999023	903.372498	1638.672241	1161.054321	35.044460
885.292969	902.852356	1521.125366	1136.683105	37.819984
885.586914	885.837097	1422.822754	1097.079712	39.338596
885.880798	898.914368	1356.916260	1083.333618	40.266045
886.174622	911.471497	1328.904175	1077.909546	39.871830
886.468384	912.586121	1294.724976	1072.559692	41.862682
886.762085	900.994812	1266.415649	1064.163574	44.652287
887.055664	889.106384	1230.750366	1039.495117	44.019138
887.349304	891.112549	1207.196289	1028.869751	43.582500
887.642822	890.592468	1172.199707	1021.513855	46.490776
887.936340	893.490234	1157.339233	1020.325012	48.070972
888.229736	890.369446	1145.153442	1000.560364	43.248760
888.523071	887.768860	1142.032715	994.319031	41.905354
888.816284	911.248535	1157.116333	1015.049500	42.218201
889.109619	937.031677	1161.128662	1027.532349	40.384602
889.402710	947.656921	1156.893433	1026.789307	37.819588
889.695862	924.103027	1114.838013	998.182800	38.839111
889.988892	899.285889	1097.376831	985.551270	43.548370
890.281921	883.162231	1087.568970	971.656555	43.293251
>>>>>End Processed Spectral Data<<<<<
