Jaz Data File
++++++++++++++++++++++++++++++++++++
Date: Fri Jun 04 13:38:11 2021
User: jaz
Dark Spectrum Present: Yes
Reference Spectrum Present: Yes
Processed Spectrum Present: Yes
Spectrometers: JAZA3586
Integration Time (usec): 30700 (JAZA3586)
Spectra Averaged: 10 (JAZA3586)
Boxcar Smoothing: 1 (JAZA3586)
Correct for Electrical Dark: No (JAZA3586)
Strobe/Lamp Enabled: Yes (JAZA3586)
Correct for Detector Non-linearity: No (JAZA3586)
Correct for Stray Light: No (JAZA3586)
Number of Pixels in Processed Spectrum: 2048
>>>>>Begin Processed Spectral Data<<<<<
W	D	R	S	P
191.335022	0.000000	0.000000	0.000000	0.000000
191.713211	290.375031	294.164459	298.548309	215.686310
192.091385	586.397034	587.808777	595.536255	647.371399
192.469528	886.431458	888.140381	894.679016	482.617249
192.847641	899.657288	900.549011	896.685242	-333.292267
193.225739	907.161926	913.180420	903.372498	-62.963078
193.603790	918.233093	923.137024	908.647949	-195.458389
193.981842	924.771729	924.102966	914.220703	1577.694580
194.359863	931.310242	928.486816	926.406433	173.682953
194.737854	934.653809	925.366150	930.641602	43.199337
195.115829	935.174011	929.155518	934.579651	9.875566
195.493774	934.951111	928.561096	926.406311	133.721130
195.871704	940.003723	937.700378	920.462097	848.402161
196.249603	938.814880	935.991394	918.084412	734.215332
196.627457	935.025391	938.889160	920.684998	-371.150330
197.005310	920.982178	929.972900	931.681824	119.007629
197.383133	924.548767	937.551758	939.557922	115.428482
197.760910	929.972839	945.502136	944.461914	93.301552
198.138687	931.756165	951.372070	940.078064	42.424244
198.516449	930.195801	942.307129	929.675598	-4.295174
198.894180	923.359863	927.223694	919.273254	-105.765739
199.271866	918.010193	920.759338	917.489990	-18.922338
199.649536	919.273254	924.548828	913.997803	-99.997688
200.027191	918.976074	921.428040	915.706726	-133.335815
200.404816	923.805725	929.304016	909.762512	-255.410507
200.782410	924.177246	933.687988	912.363098	-124.218994
201.159988	923.582764	952.189270	906.270325	-60.519234
201.537537	923.731445	956.944763	914.220703	-28.635326
201.915070	915.632385	959.916809	914.815002	-1.845757
202.292557	918.010071	958.579407	924.623047	16.300430
202.670029	919.793457	961.402893	923.211243	8.213967
203.047485	918.530273	956.944641	921.725159	8.316902
203.424911	913.403320	959.619629	918.604492	11.253975
203.802292	911.917297	958.505066	913.477600	3.349168
204.179688	908.647949	966.529785	916.078186	12.836905
204.557037	911.397217	959.619629	910.802734	-1.232793
204.934357	906.641785	962.443115	910.951355	7.723060
205.311661	908.722351	953.303894	910.059753	2.999902
205.688934	910.654114	957.687744	917.638611	14.850006
206.066177	911.397156	956.870422	916.449707	11.111036
206.443390	906.418945	960.288330	913.254700	12.689498
206.820587	905.304382	957.984924	909.168152	7.334339
207.197769	904.932861	956.573242	908.202148	6.330873
207.574921	910.059753	965.638184	908.870850	-2.139146
207.952042	908.350769	968.610291	909.539612	1.972871
208.329147	904.412781	961.477234	915.260925	19.010336
208.706223	918.233093	968.164490	929.378418	22.321276
209.083267	914.666504	964.226379	923.285645	17.391369
209.460297	920.164856	964.375000	919.347595	-1.848582
209.837280	904.784363	950.108887	903.075195	-3.770955
210.214264	907.830750	954.492737	901.291992	-14.013028
210.591217	904.858582	955.161438	903.521057	-2.658943
210.968124	904.709961	961.625793	905.378662	1.174895
211.345016	901.514893	961.848694	905.898743	7.265994
211.721893	901.737793	969.056152	903.372559	2.428410
212.098724	902.778076	963.409119	905.378662	4.289199
212.475555	905.378723	967.941589	911.397156	9.619816
212.852356	903.223938	969.947754	906.047363	4.231511
213.229126	908.425110	969.056152	905.527344	-4.779344
213.605865	907.682068	963.037598	905.601624	-3.758332
213.982590	908.870911	955.310059	907.533508	-2.879903
214.359283	904.561340	954.789978	902.109375	-4.881608
214.735931	907.087646	952.783752	902.257996	-10.569064
215.112579	912.214539	956.350281	905.898743	-14.309935
215.489197	902.406555	959.693909	906.938965	7.911711
215.865799	899.508789	964.895203	906.344543	10.454395
216.242355	891.632629	965.415283	899.137207	10.171195
216.618896	894.010315	957.464844	904.784180	16.978874
216.995407	896.239441	954.269836	898.542786	3.969204
217.371902	899.954529	948.919983	903.818298	7.890807
217.748367	901.886414	949.811707	897.725525	-8.682031
218.124802	895.942200	947.359680	895.199219	-1.444997
218.501236	895.645020	954.566956	895.645020	0.000000
218.877609	905.527344	964.226379	899.657410	-10.000052
219.253983	911.620117	975.371826	908.499329	-4.895224
219.630295	911.620117	978.789734	908.722351	-4.314103
220.006592	906.344543	971.136536	914.146423	12.041426
220.382889	901.291992	971.582336	907.904968	9.408086
220.759140	905.081482	967.198547	907.756348	4.306169
221.135391	903.372559	971.136536	900.103210	-4.824611
221.511581	909.242432	961.997314	903.521057	-10.845203
221.887772	907.236267	960.808411	910.208313	5.547745
222.263931	913.774902	963.409119	920.462097	13.472954
222.640060	912.065918	968.090149	924.474426	22.148466
223.016159	910.951416	971.210754	914.740723	6.288331
223.392212	906.790344	971.730957	906.047363	-1.144093
223.768265	902.778015	978.566833	901.069031	-2.254930
224.144302	906.567444	982.876404	900.846191	-7.497485
224.520294	910.579834	988.300476	898.914307	-15.009562
224.896286	907.459167	985.551270	900.325989	-9.134315
225.272217	904.487061	988.151855	903.669678	-0.976973
225.648148	901.143372	988.671936	897.874084	-3.735109
226.024048	908.350769	988.077637	899.583008	-10.997248
226.399902	910.059753	987.408875	898.765686	-14.601417
226.775772	905.527344	995.359314	903.446777	-2.316065
227.151581	902.852356	1007.024719	908.053528	4.992852
227.527374	894.902039	1014.380676	910.431335	12.997551
227.903137	896.165039	1030.504395	912.585999	12.223492
228.278870	898.988586	1044.919067	910.505554	7.892092
228.654572	896.016418	1060.299683	911.322937	9.317150
229.030273	893.415833	1062.454468	907.904968	8.571493
229.405930	895.793518	1063.569214	909.316711	8.060282
229.781555	903.892578	1068.398804	909.242432	3.252068
230.157181	913.997742	1072.931274	911.322937	-1.682971
230.532761	913.849121	1073.599976	900.846191	-8.139505
230.908325	915.409485	1064.312134	896.536621	-12.674633
231.283859	911.471497	1056.658813	900.697571	-7.420707
231.659332	911.694397	1052.052124	906.196045	-3.917385
232.034821	903.892578	1049.377319	907.682068	2.604733
232.410263	898.096985	1045.439331	907.533447	6.404447
232.785690	888.883484	1039.643677	907.533386	12.370575
233.161087	889.329285	1041.947144	908.276428	12.414762
233.536469	900.846191	1047.148193	906.716125	4.012204
233.911804	901.143372	1060.522827	900.697571	-0.279710
234.287140	901.886414	1064.535034	896.165222	-3.517516
234.662430	892.152771	1061.414429	900.920593	5.180040
235.037704	898.394226	1063.569214	907.161926	5.308128
235.412933	906.938965	1061.785889	913.774841	4.414603
235.788162	906.938965	1067.878540	906.864746	-0.046116
236.163345	908.796570	1060.745605	909.911133	0.733511
236.538513	901.069153	1064.312134	912.808899	7.191578
236.913635	895.867920	1073.377197	914.815125	10.673923
237.288742	892.524353	1080.138672	906.121765	7.247534
237.663834	895.570740	1092.250000	895.867920	0.151099
238.038879	900.251770	1087.866089	892.524231	-4.118843
238.413910	903.818298	1096.039429	898.245605	-2.899105
238.788910	905.155701	1097.971313	901.960754	-1.656996
239.163879	907.384766	1111.345825	903.298157	-2.003622
239.538834	905.898743	1119.147461	909.539612	1.707335
239.913757	906.047363	1138.763550	916.746887	4.597671
240.288651	909.539551	1160.014038	924.474426	5.962634
240.663528	906.121643	1188.323364	915.335266	3.264907
241.038361	900.400391	1210.094116	920.685059	6.549912
241.413177	897.279602	1237.734741	914.740723	5.128758
241.787979	901.514893	1268.644653	922.988464	5.849041
242.162735	907.904968	1314.638062	911.917297	0.986477
242.537476	909.019470	1344.582031	912.437500	0.784739
242.912170	906.938965	1363.380493	907.013367	0.016300
243.286865	903.521057	1361.745850	911.397217	1.718842
243.661514	903.372498	1346.811035	906.864746	0.787538
244.036148	910.134033	1335.591309	912.883240	0.646177
244.410751	911.991638	1318.427368	917.341370	1.316255
244.785339	908.127930	1327.863892	925.143127	4.053786
245.159882	905.675964	1339.157959	924.994568	4.456610
245.534378	906.641846	1374.600220	917.192688	2.254654
245.908890	908.870850	1432.853638	920.164856	2.155416
246.283356	909.242371	1516.518555	919.050293	1.615068
246.657791	908.053528	1598.623047	928.263855	2.926617
247.032196	910.282654	1666.907227	927.818054	2.317583
247.406586	909.019531	1703.761353	923.359863	1.804401
247.780960	909.985413	1715.204102	916.672607	0.830482
248.155289	910.505554	1695.513794	912.363098	0.236627
248.529602	906.195984	1655.018677	919.421875	1.766225
248.903870	905.898743	1599.588989	924.994629	2.752797
249.278122	910.728455	1532.493652	924.028625	2.139099
249.652344	910.282532	1478.624023	916.598389	1.111279
250.026550	914.517883	1438.946411	913.626282	-0.170014
250.400711	908.945129	1419.033325	915.483826	1.281876
250.774857	910.431213	1411.454468	916.672607	1.245729
251.148987	905.304382	1426.017944	914.072083	1.683786
251.523071	902.257996	1457.224976	911.099915	1.593233
251.897125	899.805969	1495.490845	912.957520	2.207803
252.271164	896.313782	1516.741577	915.260986	3.053894
252.645187	899.360168	1517.484497	917.341492	2.909014
253.019165	906.790466	1494.822266	917.267090	1.781642
253.393112	907.904968	1476.469360	922.765564	2.613705
253.767044	903.372498	1455.664551	921.725281	3.323021
254.140930	894.976257	1439.243774	917.267090	4.095565
254.514801	902.852356	1423.268555	914.592224	2.255862
254.888657	908.499329	1417.844604	914.815125	1.239983
255.262466	909.539551	1426.835083	918.530273	1.738024
255.636276	903.149597	1434.934204	917.044189	2.612823
256.010010	904.858582	1458.636719	923.137024	3.300680
256.383759	909.539551	1485.608765	922.988464	2.334600
256.757446	915.335205	1529.595825	922.839844	1.221735
257.131134	907.830750	1568.827759	917.638672	1.483807
257.504791	910.356934	1631.464844	921.948059	1.607405
257.878418	908.053528	1711.117554	924.845947	2.091044
258.252014	911.248596	1809.196899	931.830383	2.292090
258.625580	909.019531	1926.372437	932.499207	2.307919
258.999115	901.886414	2067.621826	932.350586	2.613301
259.372650	904.932800	2236.586182	933.019287	2.109144
259.746124	900.549011	2375.755127	931.161682	2.075145
260.119598	897.799805	2457.636719	935.768494	2.434145
260.493042	900.697571	2459.940186	937.105896	2.335001
260.866425	902.332275	2388.312256	940.598145	2.575127
261.239838	908.870911	2272.251709	941.266846	2.376147
261.613159	900.697571	2137.837891	944.759094	3.561562
261.986511	903.966980	2037.157715	943.941711	3.527626
262.359802	900.697571	1970.285156	938.666260	3.549844
262.733063	897.502625	1942.718872	928.412537	2.957274
263.106293	896.239441	1929.864624	924.548828	2.738844
263.479523	907.682129	1914.038086	923.137024	1.535728
263.852692	912.957581	1896.279663	932.053284	1.941958
264.225861	911.917297	1879.487305	933.836609	2.265398
264.598969	900.697571	1885.728882	934.653992	3.447243
264.972076	894.010315	1907.573853	931.830383	3.731396
265.345154	901.143372	1958.173828	929.006897	2.636019
265.718201	903.149597	2023.040161	931.236023	2.507962
266.091217	913.031921	2088.054932	931.161682	1.542928
266.464203	906.270325	2145.565430	936.734375	2.458175
266.837158	908.276428	2190.146973	930.790100	1.756314
267.210114	903.818298	2228.784424	928.040955	1.828172
267.583038	908.647949	2253.155762	931.904724	1.729761
267.955902	911.397156	2267.644775	938.517761	1.999680
268.328766	912.511719	2270.022461	937.254578	1.822664
268.701569	906.716125	2277.526855	940.523926	2.466263
269.074371	906.939026	2296.399658	937.403137	2.192513
269.447144	910.505554	2342.541992	936.214355	1.795262
269.819885	911.620117	2416.101563	938.294739	1.773011
270.192596	911.843018	2523.320313	941.787048	1.858173
270.565277	907.384766	2670.588135	944.164734	2.085974
270.937927	908.202148	2812.358154	941.118225	1.728644
271.310577	904.041199	2922.845947	939.557922	1.759295
271.683136	904.784180	2979.093018	948.251282	2.095498
272.055725	901.589172	2992.021729	951.000488	2.363688
272.428284	901.663513	2964.827148	953.824036	2.528182
272.800812	901.737793	2915.787354	953.006653	2.545561
273.173279	901.886414	2842.376221	948.399902	2.396997
273.545776	900.994812	2804.555908	950.554688	2.603535
273.918152	901.514893	2764.803955	948.845764	2.540179
274.290558	904.487000	2763.021240	955.161438	2.726581
274.662964	905.452942	2738.798096	956.424622	2.780255
275.035278	902.555176	2755.516357	951.297668	2.630519
275.407593	907.236267	2785.460205	946.245178	2.076904
275.779907	906.195984	2853.150391	945.576416	2.022669
276.152161	907.384766	2912.963867	948.251282	2.037642
276.524384	897.056702	2960.666260	945.650696	2.354805
276.896606	899.285828	2994.325439	944.090332	2.138599
277.268799	900.474670	2998.635010	950.777649	2.397480
277.640930	901.217773	3007.253906	950.406067	2.335586
278.013031	904.561340	3017.210693	953.749756	2.328281
278.385162	903.818298	3042.399170	951.743469	2.240980
278.757233	901.069092	3051.984375	955.384460	2.525221
279.129272	899.954590	3071.748779	959.694031	2.750695
279.501282	899.731628	3105.705078	962.368958	2.839442
279.873230	905.378662	3175.475342	969.947754	2.844332
280.245178	911.025696	3283.883057	967.718689	2.389229
280.617126	917.341370	3417.182373	971.582336	2.169777
280.988983	918.233093	3555.756836	969.873352	1.957907
281.360870	914.369324	3686.306641	976.337708	2.235562
281.732697	912.660339	3783.643311	975.000305	2.171381
282.104492	911.917236	3835.803711	973.885742	2.119388
282.476288	914.146423	3831.196533	972.771179	2.009727
282.848053	912.214539	3815.964844	968.907410	1.952402
283.219757	911.620117	3812.769775	978.715332	2.312711
283.591461	909.985413	3805.191406	977.972351	2.348259
283.963135	907.830750	3818.119873	980.870178	2.509697
284.334747	907.087646	3878.601807	968.090088	2.052908
284.706360	900.771912	3982.997314	964.672302	2.073190
285.077942	897.651123	4096.309082	964.152161	2.079029
285.449524	901.737793	4188.444336	972.548279	2.154451
285.821014	900.177429	4207.986328	980.647278	2.432724
286.192535	903.075256	4252.790527	989.192078	2.570870
286.563995	896.536621	4252.790527	988.969238	2.754041
286.935425	898.691406	4246.771973	986.368652	2.618732
287.306824	905.007080	4154.339355	990.678223	2.636577
287.678223	912.957520	4069.114258	992.981628	2.535492
288.049561	915.781006	4006.625244	990.901123	2.430408
288.420898	910.654114	3983.368408	982.802063	2.348020
288.792145	913.626282	4018.959717	977.080811	2.043405
289.163452	912.660339	4134.500488	982.876465	2.179380
289.534668	912.808899	4292.839355	986.888733	2.191691
289.905914	908.870911	4434.980957	993.650330	2.404333
290.277039	914.220703	4534.249512	990.306702	2.101806
290.648193	910.208313	4581.431641	994.987793	2.309298
291.019318	903.743958	4572.960938	999.445862	2.608238
291.390381	901.886414	4503.784668	1003.383972	2.817891
291.761475	905.007141	4411.426758	1002.195129	2.771716
292.132507	910.654236	4352.875977	995.507813	2.465082
292.503510	901.143494	4340.616211	993.501648	2.685242
292.874481	905.378662	4400.652832	991.644043	2.468058
293.245422	907.236267	4506.088379	997.588379	2.510581
293.616364	912.734680	4680.476563	994.690613	2.175200
293.987213	910.208313	4840.153809	994.839172	2.153487
294.358093	906.567566	4956.140137	992.015625	2.110051
294.728943	908.202148	5062.838867	1004.127014	2.308863
295.099731	910.356873	5194.503418	1014.455078	2.429847
295.470490	910.133972	5331.814941	1024.560181	2.587844
295.841248	905.007141	5464.296875	1021.216614	2.548851
296.211975	903.298157	5576.196777	1015.272400	2.396248
296.582642	904.264099	5709.569824	1014.380798	2.291565
296.953308	904.412659	5781.643066	1017.129944	2.311092
297.323883	907.979187	5770.943848	1019.433350	2.291897
297.694519	902.183594	5639.873535	1013.860657	2.357205
298.065063	910.282532	5491.268066	1012.374573	2.228604
298.435608	903.743958	5310.118652	1005.613098	2.311858
298.806122	896.239319	5126.516113	1003.904114	2.545100
299.176575	900.325989	4927.979004	1003.829773	2.569829
299.547028	905.007141	4815.781738	1004.944336	2.555432
299.917450	913.106201	4759.460938	1003.458252	2.349031
300.287872	908.499329	4750.247559	992.981628	2.199059
300.658234	905.081543	4722.829590	994.764832	2.349115
301.028564	907.384827	4699.052246	989.712219	2.171271
301.398865	906.047424	4647.337891	993.799011	2.345490
301.769135	906.196045	4590.199219	983.322266	2.093544
302.139374	905.452942	4539.079590	994.690613	2.455884
302.509583	895.719299	4489.964844	990.381042	2.633703
302.879791	897.428223	4420.417480	997.142578	2.830390
303.249939	901.366272	4371.897949	980.944519	2.292970
303.620087	911.471497	4335.117676	982.207703	2.066107
303.990173	910.356934	4337.272949	983.396484	2.131349
304.360260	910.579834	4326.201660	998.628601	2.577825
304.730286	905.229980	4312.530273	1000.337585	2.791289
305.100281	898.914307	4302.053223	999.966003	2.969367
305.470276	893.118652	4330.659668	990.455261	2.831577
305.840179	894.456116	4362.906738	999.445862	3.026993
306.210144	899.657410	4403.848145	996.250793	2.756510
306.579987	904.338379	4423.314941	1006.281738	2.896960
306.949890	909.836914	4466.262207	1002.640930	2.609475
307.319702	908.573730	4555.722656	1008.436523	2.738106
307.689484	909.688232	4673.715332	1002.269348	2.459629
308.059265	916.152527	4802.630371	1005.612976	2.301839
308.429016	918.233093	4897.069336	1010.739929	2.324972
308.798737	920.313477	4971.595215	1016.684082	2.378768
309.168396	905.675842	5032.746582	1016.312561	2.680757
309.538055	902.406555	5069.823242	1010.071228	2.583487
309.907684	892.524231	5069.674805	1001.377747	2.605928
310.277313	897.131042	5084.312012	998.851379	2.429327
310.646851	901.143372	5071.829590	1003.532471	2.454970
311.016388	907.830566	5064.473145	1006.727539	2.379251
311.385895	905.007141	4996.263184	1000.263367	2.328288
311.755371	905.675842	4930.431641	998.777161	2.313216
312.124817	907.310547	4863.855957	995.359314	2.225395
312.494232	911.322815	4804.934082	997.216797	2.206023
312.863617	906.864746	4780.265625	993.427307	2.234795
313.232971	900.251770	4804.339844	1004.944153	2.681609
313.602295	899.360168	4883.323730	1003.458191	2.612926
313.971619	895.645020	4987.792969	1005.167175	2.676398
314.340820	897.874023	5022.641113	997.142517	2.406645
314.710083	899.360168	5028.213867	996.399475	2.350272
315.079285	907.607727	4951.162109	994.244629	2.142593
315.448486	911.620056	4873.218262	991.495422	2.016241
315.817596	909.390930	4723.201172	993.798828	2.213217
316.186707	904.784241	4579.054199	992.387146	2.384226
316.555786	907.087585	4472.949219	991.421204	2.365028
316.924866	912.808899	4415.884766	987.185974	2.123193
317.293884	918.530273	4422.126465	985.105469	1.900196
317.662872	914.443665	4445.605957	979.235535	1.834860
318.031830	913.329102	4509.506348	981.984802	1.909130
318.400757	911.248535	4545.097656	979.458496	1.877072
318.769684	905.007141	4576.229980	992.461487	2.382159
319.138550	903.521057	4565.084961	1003.458252	2.729358
319.507416	901.366272	4539.524902	1005.835938	2.871498
319.876190	906.195984	4483.797852	996.622375	2.527570
320.244995	908.499329	4397.160645	980.201477	2.055291
320.613770	908.425110	4349.161133	978.938293	2.049363
320.982483	910.282654	4342.622559	978.269592	1.980775
321.351166	902.629395	4394.634277	982.133484	2.276746
321.719818	895.867920	4458.237793	984.585449	2.490407
322.088440	894.084656	4582.694824	992.832947	2.677114
322.457062	894.902039	4755.596680	999.000183	2.696358
322.825623	903.372559	4959.111816	1003.904114	2.478748
323.194183	904.264099	5104.968262	1004.052734	2.375522
323.562653	898.914307	5203.567871	1009.179504	2.561535
323.931183	899.211487	5218.577637	1011.185730	2.592377
324.299591	894.827637	5180.014160	1017.501465	2.862742
324.668060	905.081482	5083.271973	1015.495300	2.642623
325.036407	905.378601	5012.535645	1010.442627	2.558072
325.404755	909.539551	4941.428223	1002.343750	2.301755
325.773102	906.939026	4882.208984	1003.309631	2.424253
326.141388	907.236267	4790.519531	999.594543	2.378356
326.509674	902.852356	4685.604004	995.582214	2.451386
326.877899	900.474670	4603.945313	989.117859	2.393517
327.246124	900.474670	4542.645508	982.133362	2.242033
327.614288	911.471497	4500.367676	980.870178	1.933705
327.982422	914.517883	4485.135254	977.749512	1.770888
328.350525	921.205261	4500.887207	993.650208	2.023782
328.718628	916.449768	4556.763184	1003.532532	2.392178
329.086700	915.260925	4619.103027	1011.111389	2.587866
329.454712	905.898743	4683.448730	1012.077393	2.810781
329.822693	899.880188	4709.900879	1014.900879	3.018899
330.190674	897.205383	4747.201172	1010.442627	2.941230
330.558563	902.332275	4778.779785	1010.071106	2.779319
330.926483	909.168152	4874.184082	1003.012390	2.366806
331.294312	911.694336	4980.659668	1005.687317	2.309997
331.662231	908.796631	5100.212891	1004.647034	2.286826
332.029999	905.007141	5224.669922	1013.637695	2.514793
332.397766	905.304382	5300.087402	1017.501465	2.552961
332.765503	903.000977	5360.049805	1020.473572	2.635659
333.133240	901.069153	5365.548340	1024.931763	2.774402
333.500916	898.022705	5373.052734	1025.080444	2.839260
333.868561	901.663513	5352.248047	1034.368286	2.981738
334.236176	901.291992	5312.644531	1027.309448	2.856663
334.603790	907.310547	5261.227051	1027.978149	2.771473
334.971344	899.508789	5224.893066	1019.061829	2.763987
335.338867	907.607727	5211.741699	1023.965820	2.703403
335.706360	901.366394	5208.100098	1025.749023	2.888097
336.073853	906.939026	5227.122559	1031.767456	2.889424
336.441284	905.081482	5249.562012	1026.863647	2.803147
336.808655	909.093750	5300.904785	1023.742920	2.610522
337.176086	911.099915	5344.223145	1024.040161	2.547645
337.543396	906.493164	5387.393066	1026.640747	2.681327
337.910706	901.812073	5391.033691	1039.643677	3.070278
338.277954	905.007141	5373.646973	1037.043091	2.954724
338.645264	901.960754	5333.820801	1046.776733	3.267612
339.012421	905.824524	5286.415527	1034.739746	2.942873
339.379669	896.982422	5194.354980	1035.557007	3.224635
339.746796	903.669678	5091.520020	1028.275391	2.975410
340.113953	911.174316	5016.622559	1029.390015	2.879483
340.481018	920.908020	4996.560547	1035.259766	2.805728
340.848114	920.685059	4999.978516	1033.104980	2.755867
341.215118	908.945129	5054.888672	1038.900635	3.134522
341.582153	901.143372	5189.971191	1038.529175	3.203342
341.949066	897.948425	5395.046387	1044.101929	3.249951
342.316010	901.663574	5656.592285	1053.018188	3.183110
342.682922	907.459167	5954.248535	1052.423706	2.872411
343.049835	911.991516	6315.508301	1073.823120	2.994931
343.416656	922.171082	6640.434082	1078.578247	2.735222
343.783478	920.016296	6877.683105	1100.646240	3.031891
344.150269	921.725281	7011.873535	1100.794800	2.940315
344.516998	909.762512	7046.350098	1108.522339	3.238931
344.883728	908.202148	6956.294922	1102.875366	3.218754
345.250427	896.833801	6822.847656	1088.089233	3.227388
345.617065	898.171204	6636.718750	1085.859985	3.270667
345.983704	901.886414	6481.797363	1080.064453	3.193206
346.350281	911.917236	6311.273438	1087.643188	3.254572
346.716827	908.202148	6173.515625	1081.327515	3.288035
347.083405	903.000977	6074.321777	1085.562744	3.530273
347.449860	907.384766	6012.130371	1082.739258	3.435127
347.816376	913.031799	5989.468750	1083.408081	3.356218
348.182770	910.877014	6000.613281	1085.339844	3.427738
348.549194	907.533386	6034.644043	1091.135376	3.581003
348.915558	908.573547	6122.023926	1092.547241	3.528828
349.281921	903.298157	6216.982910	1092.695801	3.564337
349.648193	899.657410	6265.726074	1087.717529	3.504616
350.014526	896.759583	6291.137207	1086.602905	3.519281
350.380737	906.344666	6324.499512	1087.197388	3.337903
350.746948	903.669678	6398.652832	1093.884644	3.461611
351.113159	902.703796	6453.265625	1100.794922	3.568848
351.479309	903.372498	6514.119629	1108.150757	3.649750
351.845428	902.332275	6626.911621	1111.271484	3.649862
352.211517	903.075256	6792.382813	1119.221802	3.670152
352.577576	901.886414	6945.149902	1119.890503	3.607390
352.943604	905.527283	7079.488281	1128.658325	3.614066
353.309601	908.945251	7215.908691	1133.413574	3.559055
353.675537	914.592102	7386.730469	1148.868652	3.619771
354.041473	913.626221	7595.224609	1158.156616	3.659759
354.407379	905.824402	7738.703125	1172.422729	3.901698
354.773254	895.719238	7922.973145	1174.428833	3.966124
355.139038	892.672852	8086.438965	1184.905640	4.062306
355.504913	900.623291	8357.570313	1191.741333	3.903984
355.870636	899.583008	8640.663086	1206.676147	3.967058
356.236389	904.115540	8947.754883	1223.171265	3.966559
356.602081	901.737793	9233.822266	1235.951416	4.011165
356.967804	904.932861	9439.195313	1240.260986	3.929199
357.333405	905.601563	9567.739258	1233.796631	3.788846
357.699036	908.127869	9601.249023	1223.914429	3.632603
358.064606	907.682068	9555.180664	1224.508789	3.663796
358.430176	911.843018	9467.282227	1223.988770	3.648506
358.795654	905.230042	9493.584961	1236.917358	3.862059
359.161163	907.161926	9689.297852	1246.576782	3.864833
359.526581	892.598633	10130.209961	1265.746948	4.039446
359.892029	894.307556	10713.413086	1290.415405	4.034052
360.257416	896.165039	11358.062500	1322.662720	4.076676
360.622772	906.567444	11898.762695	1353.869873	4.069273
360.988098	904.561340	12227.254883	1367.244263	4.086333
361.353394	902.926697	12358.549805	1363.231934	4.018160
361.718658	901.960754	12152.878906	1358.476685	4.057588
362.083893	907.607666	11691.534180	1350.303345	4.105144
362.449097	911.545837	10964.257813	1321.845459	4.081482
362.814209	903.372498	10224.425781	1282.539185	4.067852
363.179382	903.000977	9558.079102	1239.963745	3.893238
363.544434	906.641846	9102.604492	1227.406616	3.913692
363.909546	916.004089	8818.692383	1215.815552	3.793791
364.274536	914.072083	8631.003906	1214.032227	3.887039
364.639587	902.852478	8471.699219	1207.345093	4.022973
365.004517	900.103210	8370.499023	1213.437744	4.194350
365.369507	898.840027	8314.102539	1212.768921	4.233551
365.734344	899.360168	8296.865234	1210.317017	4.203537
366.099274	898.171326	8259.936523	1208.533691	4.215869
366.464081	903.223877	8226.500000	1205.635986	4.129465
366.828918	899.731628	8176.419434	1207.122070	4.224318
367.193665	902.555176	8110.142090	1204.595703	4.190591
367.558411	896.462341	8027.740723	1205.858887	4.338584
367.923126	905.452942	7920.596191	1205.933228	4.283309
368.287781	903.446777	7855.729004	1204.075562	4.324174
368.652435	908.202148	7787.519531	1208.162231	4.360318
369.017059	910.579895	7809.066406	1201.252075	4.213564
369.381653	915.186707	7831.209473	1206.081787	4.206103
369.746185	914.666504	7922.156250	1198.428589	4.049411
370.110687	911.174255	8001.288574	1206.527710	4.165708
370.475220	912.808899	8131.838379	1195.456543	3.915314
370.839661	907.979248	8194.030273	1199.097290	3.995553
371.204041	904.784241	8245.745117	1197.462646	3.986922
371.568451	910.579834	8239.280273	1204.595703	4.011842
371.932770	913.997742	8242.698242	1205.784668	3.981428
372.297150	908.945129	8200.642578	1205.710327	4.069906
372.661377	898.840027	8212.976563	1207.047729	4.213863
373.025696	900.474670	8240.394531	1212.397461	4.249676
373.389862	909.019531	8314.548828	1211.728882	4.087613
373.754059	909.242371	8405.717773	1211.357422	4.030095
374.118225	910.356934	8545.036133	1217.747314	4.026238
374.482361	912.957520	8731.312500	1225.549072	3.998175
374.846436	917.638489	8981.860352	1240.558228	4.004351
375.210510	913.774841	9305.895508	1249.920288	4.005488
375.574524	914.072021	9663.960938	1259.728271	3.950408
375.938538	909.316711	10009.468750	1269.462036	3.957575
376.302460	909.688293	10289.144531	1279.641479	3.944293
376.666412	909.762512	10462.195313	1298.885864	4.073553
377.030304	910.728516	10455.805664	1300.891968	4.087588
377.394196	917.118591	10307.348633	1291.232788	3.984079
377.757996	912.214539	10042.236328	1269.833496	3.916956
378.121796	909.539612	9728.901367	1251.703613	3.879691
378.485565	903.446777	9407.467773	1241.375610	3.973753
378.849304	899.434509	9169.698242	1235.059937	4.058219
379.212982	898.765808	9020.275391	1226.812378	4.039231
379.576630	901.291992	8960.461914	1222.651367	3.987500
379.940277	914.889404	8925.539063	1223.840210	3.856751
380.303864	916.969910	8904.289063	1224.880249	3.854990
380.667450	922.319641	8917.737305	1232.682129	3.881755
381.030945	908.796570	8943.373047	1226.143433	3.949764
381.394501	914.666504	8976.139648	1233.350830	3.953177
381.757935	908.425049	9012.994141	1232.979370	4.004584
382.121399	916.524109	9084.101563	1242.564453	3.991885
382.484741	919.644836	9265.327148	1245.164917	3.900461
382.848145	919.867676	9479.764648	1248.657349	3.841047
383.211487	914.220703	9641.743164	1251.332153	3.862625
383.574768	902.778015	9722.882813	1261.288696	4.064699
383.938019	900.920593	9742.944336	1266.192627	4.131091
384.301270	898.245605	9765.383789	1267.232910	4.161289
384.664459	900.326172	9798.374023	1254.081299	3.975649
385.027649	903.372559	9821.555664	1254.675659	3.939178
385.390778	918.233093	9963.325195	1259.282593	3.770548
385.753876	924.623047	10054.198242	1268.793213	3.769838
386.116943	924.325867	10170.110352	1278.229614	3.827731
386.479980	912.140198	10196.563477	1284.917114	4.015079
386.842987	906.790466	10222.048828	1299.554688	4.216353
387.205994	902.406555	10218.853516	1295.542358	4.219804
387.568909	906.938965	10188.240234	1296.508301	4.197357
387.931793	903.595398	10112.897461	1284.842651	4.139806
388.294678	900.400391	10063.634766	1278.898438	4.130616
388.657471	892.672913	10054.420898	1284.545410	4.277268
389.020294	893.936035	10144.327148	1289.969604	4.281263
389.383057	900.920410	10358.467773	1309.882690	4.324190
389.745819	905.527283	10599.506836	1319.690674	4.272377
390.108521	905.304382	10881.559570	1332.619263	4.283319
390.471191	902.778076	11170.746094	1334.551147	4.205049
390.833801	903.595398	11414.309570	1342.798706	4.178625
391.196442	905.081482	11597.911133	1351.492188	4.174860
391.558960	905.007141	11625.031250	1360.705811	4.250911
391.921509	905.452942	11605.266602	1360.705811	4.254774
392.284027	906.493164	11523.237305	1362.340332	4.293663
392.646484	903.595398	11487.573242	1362.563354	4.336441
393.008911	901.960754	11468.847656	1352.161011	4.260481
393.371307	896.759521	11499.089844	1351.195068	4.286186
393.733673	894.381836	11443.807617	1346.291016	4.283732
394.096008	895.199158	11329.827148	1345.250610	4.313057
394.458344	902.480774	11156.106445	1338.043335	4.247888
394.820587	901.514893	10937.360352	1335.591431	4.325261
395.182831	905.452942	10695.801758	1327.640991	4.312288
395.545013	894.976318	10438.417969	1315.975464	4.411397
395.907196	904.709961	10234.234375	1303.566895	4.275212
396.269287	911.694397	10138.754883	1301.337769	4.222833
396.631409	929.452698	10096.476563	1307.430664	4.123236
396.993469	927.372253	10081.988281	1298.440063	4.053341
397.355530	922.914063	10080.798828	1301.560669	4.134651
397.717499	914.443542	10130.358398	1293.313232	4.111037
398.079468	911.397156	10162.382813	1298.811646	4.187819
398.441376	905.155762	10168.847656	1294.947876	4.207741
398.803284	896.982422	10109.925781	1292.941650	4.297858
399.165131	896.313721	10073.666016	1290.341064	4.293475
399.526978	897.131042	10032.799805	1289.895142	4.299237
399.888763	899.211487	10029.381836	1286.774536	4.244861
400.250519	904.932861	10026.854492	1287.666138	4.195753
400.612244	905.007141	10065.937500	1290.266724	4.205463
400.973938	904.709961	10151.386719	1305.127319	4.330392
401.335602	898.468506	10269.824219	1306.984863	4.359202
401.697205	897.279602	10439.161133	1316.421387	4.392653
402.058807	902.257996	10628.335938	1322.365601	4.319394
402.420349	907.756348	10914.327148	1330.761719	4.227276
402.781860	910.951355	11184.492188	1337.523315	4.152142
403.143341	910.802734	11437.492188	1341.535522	4.091816
403.504822	919.570496	11625.700195	1361.374390	4.126644
403.866241	921.502441	11776.015625	1363.603516	4.072970
404.227631	917.861572	11894.602539	1363.900757	4.063494
404.588959	906.939026	11911.247070	1361.448730	4.130289
404.950287	905.081360	11856.633789	1362.711914	4.178682
405.311554	904.115540	11710.628906	1363.157715	4.247828
405.672821	900.771912	11618.641602	1359.739746	4.282267
406.034027	897.279602	11470.481445	1357.733521	4.354915
406.395203	902.480774	11304.565430	1350.823486	4.310123
406.756348	905.601563	11147.860352	1342.501587	4.265661
407.117493	903.446777	11087.601563	1344.879272	4.334503
407.478516	904.487000	11115.835938	1341.832886	4.282939
407.839600	909.465332	11181.519531	1352.458008	4.312601
408.200592	912.437317	11322.992188	1351.863647	4.220969
408.561554	907.013367	11488.315430	1363.380493	4.312958
408.922485	903.223877	11661.515625	1363.157837	4.275158
409.283417	907.310547	11770.963867	1356.098999	4.131101
409.644257	911.025635	11888.510742	1354.910156	4.043590
410.005096	903.669678	11944.385742	1356.173340	4.098499
410.365906	902.703674	11925.585938	1367.021484	4.212309
410.726715	897.279602	11867.258789	1371.925415	4.326770
411.087433	898.617126	11775.049805	1365.758423	4.294986
411.448120	901.886536	11737.377930	1365.238281	4.276241
411.808807	910.728516	11680.906250	1362.266235	4.192482
412.169434	919.793457	11654.233398	1363.529297	4.133759
412.530029	913.849182	11691.385742	1362.043091	4.158594
412.890564	909.168152	11802.168945	1370.216431	4.232519
413.251099	909.985535	11977.598633	1382.773560	4.271816
413.611572	915.335205	12169.671875	1380.990234	4.137561
413.972076	912.660339	12349.038086	1386.637329	4.144468
414.332489	908.053528	12471.637695	1389.758179	4.165704
414.692871	904.041260	12673.815430	1413.460571	4.328199
415.053223	903.075378	12847.312500	1419.627808	4.324700
415.413574	904.561340	13165.847656	1427.503906	4.264989
415.773834	904.932922	13420.112305	1433.596680	4.224180
416.134094	906.493225	13765.174805	1447.268433	4.205526
416.494263	907.161926	14103.622070	1454.550171	4.147993
416.854462	904.264160	14541.117188	1467.850220	4.132816
417.214630	901.663513	15044.890625	1485.534302	4.128271
417.574738	896.165100	15490.409180	1508.493774	4.195686
417.934784	900.920593	16005.102539	1532.790894	4.183413
418.294861	909.168152	16578.572266	1558.350952	4.142996
418.654846	912.140198	17272.189453	1587.774902	4.129784
419.014832	906.270325	17992.777344	1614.746704	4.146408
419.374756	901.514954	18765.228516	1642.758789	4.149439
419.734680	900.623291	19533.814453	1673.074341	4.145565
420.094543	898.840027	20145.251953	1703.687134	4.181803
420.454376	905.452942	20501.681641	1716.095703	4.136728
420.814148	903.075256	20688.033203	1731.179077	4.185523
421.173920	906.641785	20836.638672	1737.643433	4.169603
421.533691	903.966980	20935.757813	1748.120117	4.214067
421.893341	908.796570	20984.427734	1746.411133	4.172295
422.253021	910.505554	20956.712891	1743.810547	4.156921
422.612640	913.774902	20936.279297	1735.786011	4.105436
422.972260	900.251770	20962.283203	1734.299805	4.157346
423.331757	898.691406	21060.884766	1746.336914	4.204134
423.691315	897.279724	21176.943359	1764.838257	4.277973
424.050781	908.573730	21184.150391	1773.085815	4.263810
424.410248	919.273254	20979.226563	1750.869263	4.145553
424.769653	914.889404	20678.001953	1728.504028	4.116834
425.128998	911.917297	20260.048828	1705.544556	4.101829
425.488373	902.406555	19725.439453	1687.934937	4.173230
425.847656	899.657410	19234.375000	1666.907227	4.184683
426.206940	907.310547	18759.431641	1640.901367	4.109264
426.566193	904.338379	18339.917969	1620.616699	4.108141
426.925385	902.332214	17826.560547	1600.629272	4.126020
427.284576	894.679138	17338.837891	1591.564331	4.237889
427.643677	896.610901	16936.041016	1571.428223	4.207240
428.002777	896.388000	16666.322266	1566.375610	4.248512
428.361847	907.533386	16438.363281	1541.187012	4.079973
428.720856	905.007141	16208.840820	1536.357422	4.125439
429.079865	910.059753	16068.112305	1531.601929	4.100409
429.438812	901.440613	16055.332031	1539.180786	4.208425
429.797760	908.350769	16085.053711	1546.685425	4.206017
430.156616	917.490051	16010.377930	1533.831055	4.083652
430.515503	917.267151	15858.875977	1535.985840	4.140911
430.874268	918.604553	15823.061523	1524.097290	4.062494
431.233093	908.647949	15912.819336	1527.738281	4.126122
431.591827	905.155762	16130.971680	1528.109863	4.091433
431.950562	903.223877	16342.510742	1540.889771	4.130151
432.309204	908.573669	16499.216797	1550.772095	4.119127
432.667877	919.496094	16691.212891	1574.400391	4.152397
433.026459	919.347595	16737.876953	1576.926636	4.157018
433.385010	915.260925	16829.416016	1580.195923	4.178261
433.743561	913.180481	16805.716797	1559.688477	4.067997
434.102051	910.654236	16833.951172	1558.573853	4.069004
434.460510	911.174316	16836.476563	1562.140503	4.087622
434.818939	907.756348	16812.253906	1566.227051	4.140154
435.177338	905.973083	16775.845703	1569.050415	4.178215
435.535675	907.236267	16759.052734	1566.672852	4.160007
435.894012	909.985352	16763.064453	1565.409668	4.134366
436.252289	914.369324	17013.984375	1576.629395	4.113515
436.610535	913.551941	17120.312500	1588.071899	4.161966
436.968719	909.242371	17497.326172	1619.725098	4.283091
437.326935	902.778076	17768.900391	1632.133423	4.324380
437.685028	903.372498	18109.357422	1639.118042	4.276103
438.043152	906.121765	18322.009766	1642.164429	4.226271
438.401215	908.350769	18600.423828	1658.139526	4.237993
438.759277	906.716125	19026.400391	1684.665527	4.293394
439.117249	906.344543	19613.095703	1705.916016	4.274240
439.475250	911.322815	20152.160156	1721.668335	4.211592
439.833130	913.106140	20649.468750	1731.030396	4.144250
440.191071	912.363098	20818.583984	1732.813843	4.121580
440.548889	914.220703	20906.185547	1731.104858	4.086062
440.906708	907.459167	20772.439453	1725.829468	4.119663
441.264496	903.075256	20554.732422	1720.553833	4.159846
441.622223	897.576904	20219.626953	1707.179199	4.190043
441.979950	908.722351	19911.865234	1691.352905	4.118427
442.337616	912.437439	19695.421875	1682.882324	4.101824
442.695251	906.344543	19433.281250	1678.721313	4.168939
443.052887	902.629456	19305.705078	1685.334351	4.253120
443.410461	905.452942	19375.326172	1684.071167	4.215612
443.768005	908.499451	19654.333984	1694.547852	4.193190
444.125458	905.973145	19951.990234	1695.811035	4.146997
444.482941	902.034973	20350.994141	1709.408569	4.151243
444.840393	901.069092	20926.025391	1727.686890	4.127938
445.197754	904.115540	21447.480469	1752.875488	4.131553
445.555084	904.932861	21906.748047	1775.314819	4.144318
445.912415	910.356934	22149.568359	1789.952515	4.141376
446.269714	913.923523	22328.787109	1797.531250	4.126143
446.626953	918.827454	22299.361328	1793.964844	4.093151
446.984161	926.109070	22093.320313	1785.494263	4.059983
447.341309	922.765442	21838.611328	1776.726685	4.082843
447.698456	916.449707	21480.248047	1775.314941	4.176589
448.055542	908.870911	21256.595703	1772.937134	4.246500
448.412598	906.567566	20871.783203	1760.083008	4.275012
448.769653	908.573730	20497.814453	1728.727051	4.186754
449.126617	909.465332	19957.859375	1704.652954	4.174565
449.483582	912.585999	19600.687500	1690.684082	4.163601
449.840515	907.236267	19240.095703	1681.767944	4.224827
450.197388	900.326172	19037.769531	1666.833008	4.226102
450.554230	889.700867	18898.005859	1660.591431	4.280750
450.911041	903.298279	18861.671875	1669.730591	4.267827
451.267822	906.790466	18932.037109	1678.275391	4.280025
451.624573	916.226807	18984.568359	1672.628418	4.186337
451.981262	910.579773	18946.451172	1669.656372	4.208705
452.337921	918.827393	18766.638672	1653.458496	4.116085
452.694580	913.626282	18382.492188	1633.916992	4.123283
453.051147	910.059753	18142.865234	1620.170898	4.120694
453.407715	911.025635	17726.994141	1608.059570	4.145072
453.764221	909.019531	17586.710938	1610.808716	4.207952
454.120728	908.425049	17208.363281	1601.817993	4.253961
454.477142	902.109375	17166.232422	1601.000610	4.297134
454.833557	899.583008	17071.794922	1596.096680	4.306855
455.189911	901.217712	17103.296875	1584.282593	4.215909
455.546265	899.657410	17183.693359	1590.375488	4.241688
455.902557	902.852356	17209.548828	1588.963501	4.207542
456.258820	897.279602	17508.396484	1608.876831	4.283861
456.615051	899.360168	17807.687500	1616.158569	4.239322
456.971252	904.932861	18248.599609	1634.436890	4.206170
457.327393	909.093811	18852.755859	1660.665894	4.188510
457.683502	905.378662	19586.791016	1691.798462	4.209638
458.039612	907.756348	20663.736328	1739.500977	4.210090
458.395630	912.883301	21719.798828	1777.989746	4.157783
458.751648	917.787292	22642.195313	1812.094727	4.116602
459.107605	913.923523	23388.712891	1842.707520	4.132559
459.463562	915.038086	23618.087891	1847.388672	4.106719
459.819458	911.471497	23473.939453	1846.051147	4.142187
460.175323	913.923523	22740.646484	1817.667480	4.140539
460.531158	908.425110	21873.828125	1787.426270	4.192627
460.886932	906.790344	20979.150391	1752.578247	4.213695
461.242676	905.378601	20209.001953	1726.721069	4.254862
461.598419	908.276367	19646.382813	1712.974976	4.294450
461.954102	909.390930	19076.554688	1691.055542	4.302623
462.309723	903.075256	18633.265625	1663.712280	4.290067
462.665344	897.799805	18253.800781	1632.133667	4.231009
463.020905	902.257996	18060.763672	1627.378296	4.226011
463.376373	910.728455	18054.076172	1632.802368	4.211977
463.731873	920.536377	18048.947266	1628.195435	4.131493
464.087341	912.288818	18129.716797	1619.650757	4.108407
464.442749	909.911133	18253.798828	1623.960083	4.117006
464.798126	905.304382	18389.033203	1644.987915	4.230697
465.153503	900.994812	18539.273438	1661.557251	4.311999
465.508820	900.400391	18692.931641	1658.882446	4.262924
465.864105	895.719299	18824.669922	1658.213867	4.252868
466.219330	906.195984	19089.855469	1659.922852	4.145078
466.574524	901.589172	19122.400391	1668.839233	4.210845
466.929657	904.115540	18981.298828	1668.764771	4.229914
467.284790	913.477722	18761.806641	1666.238647	4.217543
467.639893	915.112305	18473.810547	1652.121094	4.197400
467.994934	912.734619	18321.044922	1645.508179	4.209332
468.349945	899.657410	18097.169922	1629.458618	4.243644
468.704926	896.610901	17942.546875	1627.898315	4.290099
469.059875	899.805908	17775.662109	1617.570313	4.253203
469.414764	901.589172	17649.943359	1624.331665	4.315305
469.769653	907.533386	17653.435547	1620.765259	4.259143
470.124451	908.276428	17728.257813	1627.675415	4.277050
470.479248	903.075256	17802.634766	1626.709473	4.281971
470.834015	900.920471	17874.263672	1629.830078	4.294437
471.188721	902.406555	18090.707031	1636.889038	4.273153
471.543365	908.202148	18396.908203	1644.541992	4.210373
471.898010	905.155701	18631.779297	1652.046753	4.213386
472.252625	900.400391	18924.087891	1660.591431	4.217733
472.607178	894.902039	19191.947266	1673.222778	4.253806
472.961700	894.530457	19345.160156	1684.145386	4.279610
473.316193	898.171326	19383.351563	1681.470581	4.237444
473.670654	903.149597	19289.431641	1667.278809	4.155975
474.025055	913.997742	19397.617188	1671.588379	4.098714
474.379456	914.294983	19466.644531	1669.507813	4.070713
474.733795	918.381653	19640.884766	1687.043335	4.105550
475.088104	910.951355	19913.056641	1701.160767	4.158536
475.442383	902.852356	20287.244141	1723.451660	4.233299
475.796570	896.462219	20675.548828	1742.101563	4.275422
476.150787	897.056702	21149.154297	1764.169556	4.281595
476.504944	907.756348	21589.398438	1785.791626	4.245481
476.859070	911.322815	22006.906250	1799.166138	4.208669
477.213135	916.226868	22249.728516	1800.354980	4.144318
477.567200	909.613953	22540.474609	1817.816284	4.198642
477.921173	907.384949	22776.681641	1837.654907	4.253772
478.275146	902.926697	22999.884766	1846.274048	4.269127
478.629089	907.459167	23301.630859	1860.614624	4.256266
478.983002	910.356934	23778.876953	1872.131470	4.205670
479.336823	911.248596	24470.189453	1895.908203	4.179558
479.690643	913.477600	25256.609375	1920.428223	4.136488
480.044403	902.703796	26280.576172	1960.551758	4.168387
480.398163	900.177429	27603.609375	2014.272461	4.172104
480.751862	898.691406	29446.759766	2097.194336	4.198193
481.105499	908.870911	31887.828125	2198.394775	4.162580
481.459137	913.923523	35504.214844	2355.842041	4.168564
481.812744	913.106140	40200.964844	2549.846436	4.166020
482.166290	909.019531	45694.015625	2802.178467	4.227217
482.519806	905.304382	50753.667969	3049.606445	4.301650
482.873291	898.394226	54665.109375	3280.167969	4.429829
483.226715	897.131042	57032.542969	3447.720459	4.543637
483.580139	905.527283	57867.703125	3512.438232	4.576565
483.933502	912.214539	57342.605469	3468.376709	4.529761
484.286804	922.988464	55630.152344	3322.892334	4.386818
484.640106	917.118469	53042.855469	3159.574951	4.302014
484.993347	913.329102	50227.300781	3001.607178	4.234658
485.346558	905.007141	48023.406250	2909.620117	4.254417
485.699738	902.852356	47031.468750	2864.147217	4.251796
486.052887	900.623291	47336.781250	2874.549561	4.250839
486.405975	904.115540	48345.140625	2905.162109	4.217967
486.759064	910.728333	49482.792969	2959.923096	4.218875
487.112061	913.254700	49975.562500	2984.666016	4.222002
487.464996	918.753113	49638.972656	2962.597900	4.195065
487.817963	919.644775	48438.167969	2903.081787	4.174029
488.170868	917.638611	46557.785156	2809.311523	4.144756
488.523743	904.487000	44306.121094	2717.993408	4.178429
488.876587	894.679138	42227.058594	2634.625977	4.209646
489.229401	898.840027	40863.453125	2587.443604	4.225247
489.582153	907.830627	40570.402344	2577.412842	4.209466
489.934845	911.917297	41173.445313	2596.954346	4.185229
490.287537	905.378662	42452.121094	2641.684814	4.179163
490.640198	901.217712	43847.894531	2699.789307	4.187918
490.992798	898.394226	44662.996094	2723.417725	4.170090
491.345337	909.911133	44533.113281	2720.817139	4.151245
491.697876	916.449768	43216.390625	2667.541992	4.139704
492.050354	919.421875	41067.707031	2582.762695	4.142993
492.402832	910.134033	38196.054688	2468.410645	4.179263
492.755219	910.208313	35118.214844	2337.935059	4.173663
493.107605	911.471497	32351.179688	2228.784424	4.189966
493.459930	915.632507	30268.548828	2136.574707	4.159526
493.812225	906.716064	28868.240234	2076.612549	4.183951
494.164490	910.505554	28053.140625	2039.312500	4.158796
494.516724	902.480896	27590.828125	2022.594360	4.197013
494.868896	904.784363	27564.750000	2019.919434	4.182807
495.221039	902.629456	27769.750000	2018.582031	4.153600
495.573120	917.861511	28077.291016	2022.074219	4.065670
495.925201	917.341370	28358.601563	2047.708618	4.119225
496.277222	915.260925	28533.134766	2062.717773	4.154762
496.629211	906.790466	28556.392578	2071.931396	4.213952
496.981140	913.923523	28431.490234	2050.457764	4.130213
497.333069	909.391113	28123.505859	2042.433105	4.163435
497.684967	908.870911	27697.083984	2021.851440	4.154739
498.036804	905.007141	27143.228516	2007.436646	4.201617
498.388580	907.087646	26626.306641	1979.870239	4.171132
498.740326	906.493164	26100.912109	1963.746582	4.196380
499.092072	902.183594	25637.263672	1948.960327	4.231952
499.443756	906.121643	25145.156250	1926.966797	4.211575
499.795410	907.310547	24776.615234	1911.140259	4.205525
500.147003	914.517822	24410.226563	1885.431641	4.132303
500.498566	907.682068	24079.208984	1882.905273	4.208714
500.850098	907.979187	23892.859375	1867.004395	4.172418
501.201599	900.474670	23732.664063	1865.741211	4.227656
501.553009	898.988586	23670.916016	1858.385376	4.213068
501.904449	905.527344	23618.455078	1860.911621	4.206346
502.255859	917.787292	23658.359375	1866.038574	4.169866
502.607178	925.886230	23784.228516	1868.416382	4.123353
502.958405	920.610657	23890.554688	1874.137695	4.151195
503.309692	905.378662	24019.916016	1869.307983	4.170230
503.660919	898.840027	24123.865234	1873.914673	4.198379
504.012115	894.381836	24096.521484	1881.493530	4.254399
504.363251	895.422119	24032.250000	1884.094116	4.273153
504.714294	899.657410	23847.162109	1886.026001	4.298370
505.065369	903.075195	23755.250000	1875.177734	4.253873
505.416443	912.585999	23578.109375	1861.208862	4.185312
505.767395	916.078186	23620.388672	1854.150024	4.131691
506.118317	913.923523	23612.662109	1849.320435	4.120920
506.469238	907.236145	23800.796875	1862.026245	4.170562
506.820160	899.360107	23960.177734	1863.289429	4.179944
507.170929	902.629395	24200.468750	1874.731934	4.172501
507.521729	903.743958	24417.210938	1888.700806	4.188905
507.872498	914.815125	24623.328125	1906.087891	4.181084
508.223236	911.768738	24949.218750	1918.421997	4.187854
508.573883	910.134033	25235.876953	1933.951172	4.208781
508.924500	904.709961	25526.031250	1946.954102	4.233096
509.275116	907.459167	25710.302734	1953.641479	4.217994
509.625702	907.236145	25945.617188	1961.666138	4.211255
509.976196	903.149597	26121.195313	1960.774536	4.193922
510.326660	906.716064	26364.388672	1978.681519	4.210776
510.677124	914.517883	26542.119141	1976.898071	4.145453
511.027557	919.941956	26751.283203	1980.687500	4.106429
511.377869	913.923523	26886.367188	1981.950806	4.112156
511.728180	909.836853	26896.173828	1990.495605	4.158565
512.078430	910.208313	26807.603516	1991.684448	4.176003
512.428650	915.409607	26658.333984	1984.477051	4.152859
512.778931	914.072083	26496.427734	1975.189087	4.147847
513.129028	904.338440	26342.841797	1976.080933	4.213072
513.479126	899.508789	26185.318359	1963.003784	4.205897
513.829285	896.908203	26109.826172	1962.409180	4.226012
514.179382	900.994812	26023.041016	1954.013062	4.191610
514.529297	904.189758	26025.791016	1966.941772	4.230431
514.879272	901.366272	26178.333984	1972.514282	4.237644
515.229187	898.468567	26339.421875	1996.365601	4.315471
515.579163	898.617126	26778.552734	2010.408813	4.295960
515.928955	902.629456	27322.521484	2030.842163	4.270315
516.278748	901.886414	28171.353516	2049.120361	4.207027
516.628540	901.960754	29053.181641	2086.569092	4.208018
516.978333	903.000977	30042.523438	2127.361084	4.201716
517.327942	908.722351	31016.482422	2171.497070	4.194183
517.677612	912.288879	31861.453125	2202.406982	4.168507
518.027222	915.781067	32401.705078	2216.747314	4.131898
518.376831	913.700623	32546.968750	2212.957764	4.107249
518.726379	905.378723	32277.992188	2193.341797	4.105374
519.075867	899.805969	31633.490234	2170.456787	4.134392
519.425293	898.542786	30877.609375	2141.998779	4.147748
519.774658	899.360168	30085.396484	2116.810303	4.171345
520.124084	902.406555	29435.619141	2101.429443	4.202201
520.473389	900.771912	28835.250000	2079.436035	4.219388
520.822693	900.103210	28396.937500	2059.820068	4.217638
521.171997	900.920471	28135.765625	2052.687256	4.229019
521.521240	912.065918	28121.945313	2063.980957	4.233444
521.870361	908.350769	28249.001953	2069.925049	4.248525
522.219482	910.505554	28515.154297	2074.606201	4.217045
522.568604	901.663574	28784.875000	2075.720947	4.210625
522.917664	906.195984	29237.898438	2101.875244	4.220287
523.266724	901.663513	29905.138672	2129.887695	4.234748
523.615662	902.257996	30900.937500	2181.082275	4.262935
523.964600	897.502502	32145.509766	2223.508789	4.243491
524.313538	903.075256	33589.582031	2275.223877	4.197906
524.662354	906.641785	35099.117188	2326.492432	4.152524
525.011169	912.808899	36509.011719	2389.575684	4.148664
525.359985	907.904968	37858.128906	2444.262451	4.157911
525.708740	907.384827	39323.675781	2507.271240	4.164605
526.057434	910.877136	41142.308594	2593.462158	4.182265
526.406067	916.524109	43450.527344	2705.213623	4.205317
526.754700	917.564270	46425.972656	2827.070068	4.195940
527.103333	905.750183	49848.511719	2984.145752	4.246584
527.451782	895.422058	53146.656250	3154.299072	4.323107
527.800293	894.530457	55516.542969	3309.889404	4.421952
528.148743	905.378601	56710.437500	3391.696289	4.455362
528.497131	911.991516	56669.937500	3390.878906	4.445801
528.845642	910.505554	55491.347656	3312.341064	4.400510
529.193909	908.350769	53255.207031	3176.292969	4.332528
529.542175	900.474670	50021.636719	3001.532471	4.277297
529.890503	900.103210	46391.574219	2830.042236	4.242419
530.238770	895.942200	42987.621094	2679.430420	4.237152
530.586914	897.056702	40609.785156	2576.892578	4.229969
530.934998	903.149597	39383.117188	2522.205811	4.207530
531.283142	907.087646	39393.000000	2523.840576	4.200895
531.631226	911.248596	40143.460938	2551.035400	4.179695
531.979248	905.081482	41481.578125	2611.740479	4.206028
532.327148	902.703796	42750.664063	2665.312988	4.211936
532.675110	905.898743	43736.734375	2713.461182	4.220236
533.023071	908.127869	43967.074219	2716.953369	4.200812
533.370850	911.545715	43194.328125	2680.693604	4.184086
533.718689	910.877014	41793.871094	2617.164795	4.173588
534.066467	913.031799	39953.839844	2542.713623	4.174304
534.414246	912.660339	38280.464844	2467.890381	4.161952
534.761963	913.551941	36918.347656	2409.265625	4.154207
535.109619	911.991516	36158.972656	2379.321533	4.162995
535.457153	911.025635	35831.671875	2370.182373	4.178493
535.804749	907.236145	35770.296875	2374.640625	4.209052
536.152344	910.133972	35667.535156	2369.513672	4.198759
536.499817	905.230042	35413.566406	2352.870117	4.195045
536.847229	910.951355	34882.226563	2320.845459	4.150254
537.194641	900.623291	34044.242188	2273.365967	4.141801
537.542114	904.115417	33083.656250	2239.038086	4.148358
537.889404	897.279602	32201.015625	2212.289063	4.200807
538.236694	904.561279	31735.583984	2199.509033	4.200145
538.583984	913.254822	31918.962891	2210.505859	4.183910
538.931213	916.449768	32846.335938	2251.892578	4.182423
539.278381	915.706726	34513.613281	2319.805420	4.179125
539.625488	912.511719	36711.785156	2407.408203	4.175773
539.972595	913.254700	39465.371094	2521.834229	4.172481
540.319641	917.564270	42101.039063	2645.920166	4.196722
540.666687	910.505554	44230.699219	2735.083252	4.211841
541.013611	908.202148	45360.324219	2763.243896	4.173123
541.360596	903.000977	45512.343750	2758.117188	4.158582
541.707458	902.109375	44678.519531	2719.405518	4.151314
542.054260	898.691406	43066.824219	2662.712158	4.183303
542.401062	899.062927	41067.562500	2584.025635	4.194736
542.747864	904.338379	38896.878906	2498.354736	4.195604
543.094666	904.041199	36851.398438	2414.466797	4.201771
543.441284	902.703674	34882.152344	2333.031006	4.209390
543.787903	898.914368	33301.066406	2261.403076	4.204933
544.134460	911.248596	31891.392578	2205.156006	4.176570
544.481079	905.007141	30938.312500	2171.348389	4.216457
544.827637	912.883118	30281.181641	2153.070068	4.222877
545.174072	906.567444	29992.884766	2143.856201	4.253852
545.520508	910.728516	29942.435547	2139.546875	4.232677
545.866943	906.790466	29946.001953	2132.116455	4.219556
546.213318	905.973145	29839.005859	2129.813232	4.229906
546.559631	908.425110	29470.242188	2118.444824	4.236495
546.905823	913.477722	28891.275391	2096.674316	4.229055
547.252136	911.100037	28017.994141	2056.773438	4.226501
547.598389	911.768738	27030.509766	2003.647095	4.180440
547.944458	905.229980	25963.822266	1958.396606	4.202816
548.290588	908.276428	24999.001953	1921.988403	4.207893
548.636658	910.431152	24059.369141	1881.567749	4.195167
548.982727	905.304260	23288.775391	1851.178101	4.225770
549.328735	902.332214	22710.255859	1826.880981	4.239509
549.674622	900.474609	22299.955078	1818.187622	4.288483
550.020569	912.214539	22022.435547	1801.320801	4.211734
550.366455	918.381653	21778.201172	1788.615112	4.171817
550.712280	917.712891	21684.357422	1779.996094	4.152251
551.058044	913.180420	21709.841797	1790.769897	4.219857
551.403748	905.601563	21851.390625	1806.001953	4.298718
551.749512	902.778137	22084.849609	1819.673706	4.328640
552.095154	902.406555	22244.525391	1820.045288	4.299661
552.440735	905.750183	22329.156250	1813.952271	4.239298
552.786316	906.716125	22219.634766	1803.847168	4.209330
553.131897	903.595398	22012.255859	1799.017578	4.241966
553.477417	904.635559	21679.900391	1779.698730	4.212043
553.822815	906.493164	21279.630859	1764.466675	4.211298
554.168213	905.155701	20865.615234	1749.085938	4.228010
554.513672	898.468506	20469.361328	1734.076660	4.269648
554.859009	897.502625	20189.314453	1723.154297	4.279804
555.204285	900.994873	19979.705078	1712.231934	4.252054
555.549500	899.360107	19825.302734	1713.940796	4.304043
555.894714	900.846191	19685.763672	1709.854126	4.306689
556.239990	893.861755	19515.087891	1702.721069	4.343749
556.585022	907.756348	19409.876953	1688.900879	4.221919
556.930115	907.310547	19242.544922	1683.848267	4.235221
557.275146	910.728455	19155.687500	1688.083496	4.260656
557.620178	902.406555	19056.642578	1683.105103	4.300365
557.965149	903.223877	18989.472656	1682.807983	4.310369
558.310059	904.709961	18905.138672	1675.526367	4.282211
558.654968	900.697571	18830.017578	1673.000000	4.307483
558.999756	899.508789	18857.732422	1665.272827	4.264142
559.344604	897.354004	18928.099609	1668.021851	4.274187
559.689331	906.716125	18995.640625	1679.093140	4.269889
560.033997	908.945129	19009.013672	1687.043335	4.298869
560.378723	913.849121	19066.671875	1681.099121	4.226615
560.723389	910.728455	19104.789063	1674.708984	4.199066
561.067932	907.384827	19172.255859	1675.972168	4.208009
561.412476	906.418945	19132.576172	1684.814087	4.270759
561.757019	905.452942	19118.384766	1683.402344	4.271412
562.101501	907.459167	19049.656250	1669.805054	4.202059
562.445862	906.344543	18940.654297	1659.402710	4.175697
562.790222	905.378662	18847.703125	1660.517212	4.208700
563.134644	904.041260	18804.384766	1671.662720	4.288306
563.478943	905.601563	18892.359375	1682.436523	4.318927
563.823181	906.493164	19036.136719	1686.671875	4.303331
564.167358	900.177429	19308.009766	1688.455078	4.282295
564.511536	897.948425	19721.205078	1690.758423	4.211864
564.855774	892.672913	20162.935547	1700.343384	4.191279
565.199768	902.183655	20542.994141	1724.343262	4.185976
565.543823	902.703796	20798.669922	1739.129517	4.203996
565.887817	909.316650	21005.750000	1760.603027	4.236007
566.231812	911.545715	21036.511719	1760.603027	4.218925
566.575745	909.911133	20901.503906	1761.568970	4.260080
566.919617	907.756348	20607.265625	1744.256470	4.246299
567.263428	901.960693	20272.384766	1729.098633	4.270108
567.607239	907.607727	19999.990234	1703.018188	4.166114
567.950989	908.127869	19760.365234	1691.947266	4.157700
568.294678	910.728455	19633.751953	1687.414673	4.148295
568.638367	910.282654	19546.373047	1697.148438	4.222269
568.981995	907.904968	19554.025391	1693.358887	4.212425
569.325623	902.555176	19659.236328	1696.182495	4.231171
569.669128	897.651184	19815.421875	1690.461304	4.190822
570.012573	894.827637	20064.632813	1701.606445	4.208591
570.356140	899.211609	20322.982422	1718.547485	4.218212
570.699524	896.462402	20612.169922	1743.587524	4.296702
571.042908	900.400391	20916.662109	1762.832031	4.308655
571.386230	897.428284	21157.253906	1759.488281	4.255022
571.729492	898.096985	21295.160156	1760.454468	4.227851
572.072815	891.929871	21335.060547	1766.993042	4.280475
572.416016	893.861633	21244.783203	1768.479004	4.297679
572.759094	901.960754	21071.210938	1758.002319	4.244290
573.102234	916.524109	20822.818359	1741.209961	4.142839
573.445374	922.468262	20577.691406	1744.404907	4.181772
573.788391	919.719055	20390.375000	1736.528931	4.195081
574.131409	911.768738	20241.472656	1730.510376	4.235666
574.474365	908.350769	20120.806641	1708.293945	4.163670
574.817261	906.418884	20005.634766	1705.618774	4.184464
575.160156	905.972961	19788.375000	1689.346680	4.148697
575.502930	904.858459	19541.466797	1686.820313	4.195838
575.845703	903.075195	19269.443359	1669.879517	4.175046
576.188477	910.133972	18924.455078	1670.919556	4.223227
576.531250	910.356934	18539.123047	1653.012695	4.212749
576.873901	910.431213	18067.376953	1645.953735	4.287025
577.216431	902.034973	17706.931641	1626.189331	4.309186
577.559082	900.771790	17375.693359	1599.588989	4.241703
577.901611	906.493164	17104.857422	1582.499390	4.173299
578.244080	906.938965	16793.751953	1563.106323	4.130264
578.586487	904.189758	16538.818359	1563.849243	4.219221
578.928955	910.505554	16280.247070	1554.487305	4.189932
579.271301	911.620117	16088.100586	1548.691772	4.197756
579.613647	907.310547	15816.078125	1547.948608	4.297056
579.955872	891.335449	15682.184570	1544.828003	4.418222
580.298157	894.158875	15547.101563	1541.112671	4.415180
580.640320	896.536560	15522.656250	1533.310913	4.353679
580.982483	906.121643	15421.381836	1526.177856	4.271754
581.324524	900.028809	15334.077148	1519.639282	4.292700
581.666626	902.480896	15231.538086	1519.119141	4.303411
582.008728	906.344543	15163.550781	1517.781616	4.288618
582.350647	910.951355	15095.415039	1518.450317	4.282847
582.692566	916.152527	15040.133789	1503.812866	4.160727
583.034424	909.168152	14999.043945	1493.930298	4.150229
583.376343	910.728455	14931.355469	1487.168945	4.111374
583.718201	909.762512	14896.803711	1497.571289	4.202524
584.059937	906.641846	14815.367188	1503.664185	4.292430
584.401611	902.332275	14805.411133	1512.208984	4.386631
584.743347	903.892578	14752.656250	1501.880981	4.317991
585.085022	906.195984	14695.518555	1495.490845	4.273559
585.426514	913.403320	14627.011719	1486.203125	4.176871
585.768127	912.065918	14611.778320	1484.122559	4.175683
586.109619	912.363098	14638.528320	1486.797485	4.184959
586.451172	906.418945	14652.792969	1490.958374	4.252317
586.792542	901.886414	14708.148438	1495.713867	4.301146
587.133850	902.257996	14774.946289	1499.131836	4.302510
587.475220	911.768738	14874.809570	1496.234009	4.185802
587.816589	911.843018	14939.304688	1500.469116	4.196241
588.157776	917.861511	15018.362305	1500.097656	4.129188
588.498962	913.923401	15110.721680	1506.562012	4.174453
588.840210	924.994568	15185.098633	1508.419556	4.091310
589.181335	920.462097	15289.864258	1507.230591	4.083458
589.522400	925.663330	15315.127930	1510.054199	4.061241
589.863403	917.267151	15305.989258	1506.859253	4.097599
590.204407	923.285645	15220.690430	1506.933472	4.082194
590.545410	915.781067	15081.223633	1504.035645	4.152744
590.886353	910.208313	14887.961914	1499.280273	4.214354
591.227112	901.737854	14706.143555	1495.416382	4.300645
591.567932	896.833801	14608.731445	1490.586792	4.330203
591.908752	901.217712	14632.731445	1487.986328	4.273153
592.249512	905.527283	14680.135742	1484.494141	4.203146
592.590149	907.533447	14718.031250	1475.726440	4.114211
592.930786	913.180481	14786.985352	1484.716919	4.119536
593.271423	912.957520	14834.166992	1497.571411	4.199448
593.612000	909.762512	15037.460938	1508.047974	4.234840
593.952576	905.972961	15186.584961	1514.066528	4.258176
594.292969	902.629395	15408.304688	1514.809570	4.220280
594.633484	907.236145	15603.421875	1525.806274	4.209052
594.973877	912.734680	15912.075195	1534.351196	4.144292
595.314209	914.740784	16254.687500	1547.279907	4.123477
595.654480	914.146423	16610.894531	1563.477905	4.136726
595.994812	914.220703	16934.111328	1576.555176	4.134450
596.335022	915.781067	17197.363281	1590.003906	4.141016
596.675171	912.140198	17253.312500	1583.539551	4.108636
597.015320	900.103210	17168.832031	1573.880249	4.141547
597.355408	895.570740	16839.300781	1560.134155	4.168180
597.695496	899.062988	16428.109375	1552.035156	4.204844
598.035461	907.459229	15874.554688	1534.425415	4.188963
598.375366	909.391113	15361.046875	1510.945923	4.162532
598.715271	914.072083	14891.825195	1487.243164	4.100595
599.055176	912.957520	14462.950195	1466.884399	4.088024
599.395081	917.935852	14149.020508	1457.299316	4.076487
599.734802	911.099915	13917.567383	1453.212524	4.168023
600.074524	914.517883	13834.051758	1454.995972	4.183418
600.414246	908.350769	13761.754883	1454.252930	4.247141
600.753906	908.425049	13799.204102	1454.252808	4.234250
601.093506	903.075256	13862.286133	1452.841187	4.242280
601.433044	908.945251	14073.307617	1463.986694	4.216242
601.772583	911.545837	14338.418945	1479.218628	4.227885
602.112122	918.901794	14705.846680	1498.462891	4.203695
602.451538	919.942078	15107.081055	1516.444214	4.204527
602.790894	920.982239	15533.503906	1526.697876	4.145182
603.130310	911.843079	16020.484375	1544.382202	4.186605
603.469604	906.939148	16433.607422	1559.911255	4.205488
603.808838	900.994812	16814.185547	1573.880249	4.228476
604.148010	902.480896	17083.013672	1586.660156	4.228410
604.487305	903.372498	17194.095703	1594.387695	4.241771
604.826416	909.539612	17055.447266	1594.684937	4.243461
605.165527	915.038025	16644.033203	1584.431152	4.255791
605.504456	908.053528	16159.131836	1554.041382	4.235686
605.843445	909.019531	15671.187500	1534.499634	4.237048
606.182434	904.709961	15198.101563	1509.682617	4.232534
606.521423	916.672668	14770.043945	1500.320679	4.213039
606.860229	917.861511	14425.500977	1478.772827	4.152549
607.199036	915.112305	14251.335938	1466.364258	4.133493
607.537903	907.830750	14212.104492	1456.853516	4.126665
607.876648	902.109375	14254.679688	1465.175415	4.216911
608.215271	901.440613	14403.582031	1471.788452	4.224129
608.553955	903.446777	14652.273438	1484.494141	4.226160
608.892578	910.133972	14869.386719	1493.856079	4.181614
609.231140	919.050293	15007.515625	1507.082031	4.173852
609.569641	918.753235	14966.054688	1502.400879	4.154874
609.908081	912.660400	14823.765625	1489.695313	4.148016
610.246521	911.842957	14586.143555	1468.593262	4.071508
610.584961	914.889343	14247.323242	1457.076538	4.066679
610.923340	920.387756	13892.676758	1456.407593	4.132038
611.261597	910.431152	13450.426758	1448.903198	4.294037
611.599854	908.573547	13073.859375	1446.228149	4.419580
611.938110	904.635559	12753.393555	1423.045532	4.375226
612.276245	912.140137	12528.403320	1405.435913	4.246596
612.614319	904.264099	12370.288086	1390.798340	4.243269
612.952393	908.202148	12216.628906	1379.875854	4.170993
613.290466	912.363098	12075.973633	1385.448608	4.237747
613.628479	917.787109	11890.590820	1376.978027	4.184809
613.966370	916.969910	11757.143555	1375.343384	4.228470
614.304260	914.815125	11643.831055	1361.374512	4.162166
614.642151	912.585938	11586.468750	1359.814209	4.189930
614.979980	907.830566	11538.618164	1360.260010	4.255841
615.317749	904.487000	11535.719727	1367.392944	4.354208
615.655396	909.836853	11497.305664	1369.176147	4.338519
615.993164	915.335205	11490.768555	1369.696289	4.296382
616.330811	916.524109	11477.838867	1372.371216	4.316197
616.668396	915.038025	11497.604492	1367.244507	4.273127
617.005859	917.564270	11504.811523	1364.718140	4.223514
617.343445	920.610779	11486.531250	1362.266113	4.179998
617.680908	911.917297	11504.141602	1361.374512	4.243275
618.018311	903.372498	11495.968750	1365.238281	4.360270
618.355652	897.576843	11521.082031	1348.520142	4.244770
618.692993	904.561340	11484.674805	1348.222778	4.193352
619.030273	903.223938	11439.870117	1339.826660	4.143659
619.367554	898.171326	11380.874023	1348.891602	4.299657
619.704712	898.171387	11329.382813	1349.188843	4.323730
620.041870	899.211609	11316.675781	1350.080444	4.328010
620.379028	908.350769	11243.933594	1340.421021	4.180415
620.716064	901.589172	11224.094727	1331.430420	4.164117
621.053040	899.731628	11191.104492	1329.944336	4.180324
621.389954	892.672852	11181.742188	1333.734009	4.286696
621.726929	904.264099	11124.378906	1339.380981	4.257456
622.063843	911.991638	11090.573242	1337.226074	4.177738
622.400635	916.821289	11105.953125	1334.848267	4.102675
622.737427	908.945251	11145.629883	1329.349976	4.106844
623.074219	905.007141	11130.176758	1328.384033	4.140536
623.410889	906.641846	11131.366211	1327.640991	4.117462
623.747559	914.592285	11169.929688	1329.944458	4.050107
624.084167	916.598389	11268.007813	1336.037231	4.051998
624.420715	915.112305	11388.675781	1340.495361	4.061493
624.757324	917.341370	11546.049805	1350.674805	4.077010
625.093750	917.564270	11732.028320	1360.557129	4.096300
625.430176	921.279480	11925.290039	1368.433228	4.063552
625.766602	917.044250	12113.945313	1373.188599	4.073844
626.102905	920.462097	12315.527344	1378.687012	4.021257
626.439209	916.078308	12448.602539	1395.033569	4.153082
626.775452	908.053528	12536.355469	1400.457642	4.234531
627.111694	898.394226	12475.797852	1398.303101	4.317971
627.447876	899.583008	12402.239258	1393.473267	4.293706
627.783997	902.109375	12249.992188	1385.077148	4.256017
628.120056	900.177490	12103.913086	1375.714844	4.244453
628.456055	896.388000	11905.227539	1362.563354	4.234555
628.792053	898.765808	11704.907227	1350.154663	4.177151
629.128052	903.000977	11554.148438	1339.157837	4.094928
629.463928	903.223877	11376.637695	1338.860718	4.159454
629.799744	898.542786	11252.625977	1335.739990	4.222462
630.135559	898.468506	11117.840820	1333.510864	4.257036
630.471375	899.285828	11029.718750	1324.891724	4.201261
630.807068	906.938965	10949.620117	1327.789551	4.190619
631.142700	912.883240	10849.088867	1326.674927	4.164484
631.478333	904.932861	10774.266602	1324.148804	4.247662
631.813965	903.223877	10701.524414	1321.994019	4.273906
632.149475	896.165100	10646.019531	1325.932007	4.407931
632.484924	909.762512	10652.260742	1322.365479	4.235084
632.820435	902.926697	10646.242188	1325.783569	4.339969
633.155884	902.555176	10691.864258	1323.925903	4.304397
633.491150	897.056824	10730.798828	1330.092896	4.403574
633.826477	903.892578	10738.600586	1318.353149	4.214264
634.161804	906.939148	10702.043945	1318.427490	4.200959
634.497009	909.539612	10604.559570	1311.888794	4.150061
634.832153	906.344543	10521.636719	1321.250977	4.315068
635.167297	908.127869	10438.566406	1307.876465	4.194441
635.502380	903.966797	10345.465820	1303.121094	4.227658
635.837463	901.143372	10231.633789	1290.341064	4.171246
636.172424	907.087585	10094.396484	1295.096436	4.223313
636.507324	908.276428	9958.496094	1297.845581	4.304527
636.842224	913.403320	9852.243164	1291.827026	4.233477
637.177124	905.452942	9756.244141	1286.105591	4.300776
637.511963	903.000977	9677.706055	1277.486694	4.267787
637.846741	899.805969	9595.230469	1273.474243	4.297297
638.181396	896.165100	9530.809570	1270.502319	4.335294
638.516113	898.096985	9447.145508	1264.557983	4.286571
638.850769	900.177429	9376.631836	1266.415527	4.320652
639.185303	905.601563	9314.143555	1260.842773	4.224766
639.519836	901.217712	9276.471680	1259.059570	4.272609
639.854370	903.669678	9187.382813	1258.985352	4.289329
640.188843	907.979187	9086.999023	1261.065796	4.316979
640.523254	918.010071	9013.440430	1268.644775	4.331267
640.857605	922.542664	8953.477539	1253.709839	4.123644
641.191895	911.174316	8925.094727	1251.035034	4.240880
641.526184	909.911133	8861.120117	1237.288940	4.117334
641.860413	905.898743	8841.503906	1245.536621	4.279924
642.194580	911.842957	8818.171875	1241.524170	4.169839
642.528748	908.202148	8815.051758	1242.787354	4.231587
642.862793	909.168152	8796.178711	1244.793457	4.255418
643.196838	909.985352	8741.566406	1245.239258	4.280795
643.530823	916.152527	8711.697266	1246.576660	4.238628
643.864746	914.963684	8674.545898	1237.437500	4.155814
644.198669	921.130798	8661.839844	1235.134155	4.056520
644.532532	926.034851	8612.279297	1229.709961	3.950891
644.866333	927.743835	8596.081055	1236.322876	4.024067
645.200073	920.164856	8615.772461	1235.282715	4.094776
645.533813	911.545715	8672.761719	1247.468384	4.328222
645.867554	906.493164	8696.315430	1240.038208	4.281806
646.201172	907.310547	8707.907227	1246.725220	4.351137
646.534729	904.932861	8696.315430	1236.322876	4.253289
646.868225	898.617188	8695.721680	1246.056519	4.456005
647.201782	899.805969	8704.934570	1245.833618	4.433337
647.535217	896.165100	8716.081055	1257.573608	4.621642
647.868591	905.155762	8711.250977	1257.053345	4.507985
648.201965	903.595459	8654.409180	1254.006958	4.520964
648.535278	905.898865	8617.778320	1241.004028	4.345311
648.868591	897.056824	8610.942383	1237.511719	4.413533
649.201782	899.062927	8621.418945	1231.047485	4.299006
649.534912	899.657288	8643.263672	1222.651245	4.171105
649.868103	903.669739	8647.722656	1216.855591	4.044211
650.201172	906.716125	8664.291992	1217.450073	4.005555
650.534180	912.511719	8641.555664	1220.793701	3.988617
650.867188	907.979248	8614.658203	1225.623413	4.121674
651.200134	903.298157	8601.283203	1226.143433	4.193893
651.533020	898.988586	8567.327148	1231.270386	4.333166
651.865845	904.338379	8540.354492	1229.189941	4.254202
652.198608	907.459167	8477.420898	1239.072266	4.380644
652.531433	900.103210	8450.894531	1235.282837	4.439000
652.864136	902.629395	8435.141602	1232.161987	4.374803
653.196777	1037.117310	8547.413086	1305.870361	3.578462
653.529358	1040.609497	8493.915039	1308.470947	3.593861
653.861938	1039.420776	8421.470703	1297.622681	3.497699
654.194519	896.685242	8221.076172	1207.716431	4.246512
654.526978	898.542786	8185.856934	1209.574097	4.268120
654.859375	900.400391	8136.371094	1212.917603	4.318940
655.191833	906.344666	8117.126465	1209.053833	4.198008
655.524170	908.053528	8096.990723	1197.908447	4.031958
655.856445	906.716064	8098.179688	1187.208984	3.900359
656.188660	908.870911	8139.937500	1198.800171	4.009495
656.520874	908.276428	8198.859375	1210.911621	4.151042
656.853088	912.734619	8293.668945	1226.960815	4.257268
657.185181	917.415710	8360.616211	1227.555298	4.166750
657.517212	917.490051	8495.699219	1232.087769	4.151347
657.849243	913.106140	8689.406250	1248.657349	4.315050
658.181274	911.248535	8929.180664	1265.821167	4.422246
658.513123	911.174255	9138.937500	1270.873657	4.371776
658.844971	913.849121	9350.700195	1270.056519	4.222042
659.176819	900.994812	9494.550781	1275.777710	4.361209
659.508667	907.904968	9569.000977	1277.263794	4.264574
659.840393	903.298157	9512.754883	1270.576538	4.265988
660.172058	911.694336	9380.050781	1258.465210	4.094902
660.503662	903.075195	9170.442383	1251.777954	4.217821
660.835266	899.880310	8969.377930	1251.852173	4.361757
661.166931	906.716125	8742.235352	1243.233154	4.294764
661.498413	910.505615	8554.843750	1235.654297	4.253458
661.829773	918.010193	8330.820313	1230.824585	4.219916
662.161194	920.164856	8139.565918	1220.645142	4.162122
662.492615	915.112305	7960.941895	1215.072388	4.257271
662.823975	913.551941	7840.349121	1202.366699	4.169528
663.155212	902.332214	7735.210449	1194.639160	4.277947
663.486450	903.149597	7672.572754	1187.060303	4.194016
663.817627	892.227051	7600.648438	1190.775391	4.450352
664.148743	888.734863	7549.082031	1188.472046	4.500324
664.479858	888.660583	7470.692871	1187.060181	4.533548
664.810913	901.366272	7421.727051	1178.366821	4.248240
665.141907	910.356934	7406.495605	1182.230591	4.185158
665.472778	915.112305	7407.907715	1186.540039	4.180445
665.803711	917.564270	7414.669434	1191.889893	4.222275
666.134583	908.722351	7391.857422	1192.781494	4.381509
666.465454	905.973083	7402.631348	1195.605103	4.458169
666.796143	898.914368	7381.826660	1186.465820	4.435529
667.126831	903.372559	7382.940918	1181.264648	4.288744
667.457458	911.545837	7369.417969	1174.874634	4.077641
667.788147	916.078308	7375.882813	1183.122192	4.133931
668.118774	913.997742	7379.448730	1187.208862	4.225708
668.449219	905.973083	7372.761719	1177.401001	4.197260
668.779663	905.304382	7358.124512	1170.936646	4.116529
669.110107	908.573669	7348.019531	1169.747681	4.055846
669.440552	903.818359	7322.236328	1176.286499	4.245098
669.770874	902.109375	7302.992188	1172.199707	4.219579
670.101135	898.320007	7272.156250	1168.633179	4.240981
670.431396	900.623352	7239.166016	1163.283447	4.143857
670.761597	906.641785	7174.225098	1168.930420	4.184844
671.091797	907.979248	7125.854004	1165.066650	4.134651
671.421875	912.586121	7068.714844	1168.781860	4.161637
671.751892	907.459167	7036.765137	1165.363892	4.207731
672.081909	916.672668	6999.910156	1162.465942	4.040501
672.411865	915.855286	6992.183594	1152.806763	3.899583
672.741821	918.158691	6952.654785	1152.435181	3.882288
673.071716	905.378662	6925.385254	1150.429077	4.070601
673.401550	905.304382	6863.193848	1160.534180	4.283896
673.731262	900.400391	6852.865723	1162.688965	4.406385
674.060974	907.236267	6812.816406	1168.558960	4.425013
674.390625	910.208313	6791.640137	1160.534180	4.256207
674.720276	906.864746	6767.640625	1156.224609	4.254725
675.049927	905.229980	6748.544434	1151.320679	4.211492
675.379395	901.589172	6716.669434	1158.007935	4.409548
675.708923	909.019470	6686.947754	1151.469238	4.196137
676.038330	909.539551	6660.941406	1155.630249	4.278795
676.367737	910.802734	6655.963379	1149.091431	4.147642
676.697083	904.412781	6660.867188	1155.109985	4.355062
677.026428	902.034973	6669.412109	1145.970825	4.229580
677.355652	896.536621	6696.235840	1154.144165	4.441740
677.684875	899.880188	6737.176270	1153.178223	4.339304
678.013977	901.069031	6771.578613	1162.020142	4.445118
678.343079	910.059753	6846.699219	1163.134766	4.262934
678.672180	907.087585	6889.942871	1167.741577	4.356682
679.001221	912.065918	7006.523438	1173.760132	4.293971
679.330139	903.298157	7092.714844	1174.948853	4.388955
679.659058	902.778015	7176.751465	1178.366821	4.392572
679.987976	900.623230	7247.115723	1168.930298	4.227643
680.316772	902.778076	7304.478027	1164.769409	4.092527
680.645630	910.802734	7354.854980	1161.871704	3.896135
680.974304	912.065918	7326.024902	1167.592896	3.983920
681.302979	911.471497	7289.765625	1167.964355	4.021339
681.631653	910.208313	7220.664063	1167.815796	4.082233
681.960266	910.431335	7180.243652	1164.992310	4.060105
682.288757	909.465332	7090.485840	1168.707520	4.194165
682.617249	908.499329	6986.833496	1163.283447	4.191677
682.945679	903.298157	6855.540527	1156.373291	4.251761
683.274109	908.350769	6744.904297	1149.834595	4.137439
683.602478	904.561279	6661.685059	1153.401123	4.322294
683.930725	896.313660	6578.614746	1151.394897	4.489048
684.259033	897.353821	6494.652344	1152.509399	4.558549
684.587280	893.861755	6414.925781	1143.816162	4.527287
684.915344	901.737793	6336.090332	1144.336304	4.464166
685.243469	898.691406	6281.255371	1138.169067	4.449137
685.571533	905.081360	6225.304688	1140.398315	4.423066
685.899536	912.065918	6227.756348	1137.351685	4.238128
686.227539	918.381592	6235.930176	1135.717163	4.087138
686.555420	914.072083	6255.769531	1135.717041	4.149336
686.883301	909.613953	6271.892578	1134.305298	4.190221
687.211121	896.016602	6307.706543	1127.840942	4.283770
687.538940	902.480896	6364.027832	1123.234253	4.041956
687.866638	904.338379	6372.572754	1130.144409	4.129414
688.194336	915.260925	6345.453125	1130.515991	3.964041
688.521973	912.140137	6294.332031	1133.488159	4.112600
688.849609	907.384766	6221.589844	1131.779175	4.222539
689.177063	909.985413	6150.407715	1137.574707	4.342957
689.504578	914.666504	6053.442871	1136.608765	4.318971
689.832031	916.746887	5992.736816	1130.144409	4.204057
690.159485	906.790344	5900.898926	1124.051636	4.350352
690.486816	899.583008	5837.370605	1110.677124	4.275075
690.814087	906.716125	5767.748535	1112.460327	4.232521
691.141296	912.734619	5731.562988	1115.655273	4.210996
691.468506	920.462097	5681.929199	1124.348633	4.282011
691.795715	918.233093	5630.882813	1120.930786	4.301140
692.122803	917.935852	5576.567871	1115.283813	4.236178
692.449829	906.270325	5542.908691	1108.745239	4.366848
692.776855	898.691406	5509.917969	1109.191040	4.564938
693.103821	896.685242	5473.509766	1108.745117	4.633340
693.430664	905.452942	5443.268066	1107.333374	4.448847
693.757568	905.898743	5428.779785	1107.110474	4.448751
694.084351	903.743958	5414.067871	1107.630737	4.520447
694.411133	900.400391	5388.061523	1111.122925	4.695598
694.737854	900.920410	5380.928711	1106.218994	4.582549
695.064575	899.805969	5399.578613	1095.073608	4.339500
695.391174	905.527344	5433.089355	1085.488403	3.974790
695.717773	906.493225	5447.949707	1084.671021	3.923362
696.044250	915.335205	5474.921875	1091.729858	3.868654
696.370789	912.214417	5540.605469	1102.355225	4.108140
696.697205	912.214417	5638.833496	1108.596558	4.154812
697.023621	899.434387	5764.033691	1113.129028	4.392852
697.349915	896.313660	5924.527344	1118.627441	4.421327
697.676208	899.805969	6141.863281	1121.971069	4.238128
698.002380	905.675842	6384.981934	1123.680054	3.978683
698.328674	912.734619	6624.607910	1131.779175	3.834899
698.654724	904.338379	6794.612793	1136.237183	3.936978
698.980896	905.378662	6909.039063	1146.193726	4.011137
699.306946	907.310547	6912.010254	1147.308350	3.996833
699.632935	915.260925	6841.497559	1158.750977	4.108679
699.958862	921.056580	6677.287598	1156.744751	4.094488
700.284729	915.929688	6483.357910	1147.679810	4.162606
700.610596	910.431213	6252.053223	1132.224854	4.152178
700.936340	901.514893	6057.157715	1126.577759	4.365370
701.262146	893.713135	5831.128906	1120.336426	4.589917
701.587830	901.812195	5641.210938	1108.596558	4.363092
701.913513	909.019531	5435.466797	1089.723755	3.992187
702.239075	913.551941	5291.319824	1078.058105	3.757763
702.564697	905.898743	5182.837891	1073.005737	3.907163
702.890137	903.149597	5094.789063	1077.909546	4.169250
703.215698	900.920471	5003.173340	1081.253174	4.395943
703.541016	908.202148	4912.003906	1075.754761	4.184838
703.866455	909.316650	4853.156250	1078.652588	4.293682
704.191711	910.579895	4812.215820	1072.113892	4.140161
704.517029	902.257996	4780.711426	1077.092285	4.507835
704.842163	900.920471	4753.813965	1070.256348	4.395031
705.167419	900.549011	4739.473633	1070.999390	4.440055
705.492493	901.440613	4732.043457	1073.599976	4.494315
705.817566	904.635559	4701.802246	1070.256470	4.361697
706.142578	910.579773	4705.294922	1067.581421	4.137376
706.467590	912.511658	4698.755859	1065.500977	4.040662
706.792480	909.539612	4722.012207	1074.714478	4.332487
707.117371	910.282715	4708.340332	1080.881714	4.491743
707.442200	919.347656	4716.513672	1077.760864	4.171880
707.766907	917.341492	4729.516602	1068.993286	3.978091
708.091675	912.140137	4754.779297	1072.113892	4.163122
708.416321	903.743958	4781.751465	1069.810547	4.282266
708.741028	906.270264	4804.042480	1061.785767	3.989856
709.065552	911.768738	4814.519531	1056.064575	3.697285
709.390137	914.889404	4811.844238	1060.151245	3.727573
709.714600	913.700623	4803.373535	1073.154175	4.099408
710.039063	904.932922	4830.048828	1076.200684	4.363381
710.363403	895.645020	4869.949219	1077.686646	4.580465
710.687744	893.267273	4939.867676	1078.726929	4.583098
711.012085	896.610901	5005.253906	1083.259277	4.542823
711.336304	898.691406	5065.587891	1080.584351	4.365190
711.660461	902.109314	5104.002441	1082.442017	4.291701
711.984619	901.960754	5086.467285	1079.544312	4.243835
712.308716	897.725525	5032.448730	1089.277954	4.632775
712.632751	894.976318	4953.391113	1086.677368	4.723545
712.956726	898.542786	4886.072754	1079.767090	4.544776
713.280701	909.539551	4843.273926	1070.850830	4.100716
713.604553	908.499329	4797.875488	1067.804443	4.095904
713.928467	902.852356	4761.912598	1062.528931	4.137706
714.252258	897.205383	4726.916504	1060.597046	4.266423
714.575989	897.725403	4712.427246	1061.117188	4.283212
714.899719	895.793640	4717.107910	1065.872559	4.450797
715.223267	899.954590	4737.318848	1064.015015	4.275342
715.546936	904.709961	4749.207031	1069.736206	4.292531
715.870422	908.796570	4753.665527	1075.754761	4.342364
716.193970	903.298157	4736.946777	1077.166626	4.535326
716.517395	908.499329	4700.761230	1074.937622	4.388892
716.840820	911.397156	4656.997559	1068.176025	4.185681
717.164124	921.576660	4594.583008	1070.107910	4.043860
717.487488	914.294922	4519.462891	1061.860229	4.093161
717.810730	909.390930	4446.126465	1059.482544	4.243790
718.133972	902.183594	4366.770996	1050.863403	4.291415
718.457092	902.034973	4297.446777	1046.628174	4.258488
718.780212	913.180481	4225.818848	1038.529175	3.783953
719.103210	917.787170	4166.524902	1032.139038	3.519886
719.426208	916.969910	4113.324707	1030.727295	3.558972
719.749207	913.626221	4065.176025	1035.259766	3.859483
720.072083	909.465332	4032.631592	1037.860229	4.111049
720.394958	909.613953	4019.479736	1036.151367	4.068903
720.717773	905.898743	3974.229736	1034.293823	4.184525
721.040527	912.660339	3936.112549	1037.711792	4.136049
721.363281	914.220703	3908.174561	1037.860474	4.129649
721.685913	908.945129	3913.301514	1038.974976	4.328043
722.008545	900.846191	3896.805908	1033.253540	4.419530
722.331055	898.468506	3862.180908	1028.943970	4.402433
722.653503	907.013367	3823.989502	1024.411621	4.024656
722.976013	911.397156	3819.531250	1023.074219	3.840162
723.298401	908.945129	3829.339111	1023.668640	3.928357
723.620789	898.840027	3835.060547	1020.993652	4.160233
723.943115	897.428284	3817.748291	1024.337280	4.345722
724.265381	897.279724	3795.234619	1029.464111	4.561299
724.587585	902.926758	3783.643311	1029.612793	4.397727
724.909790	905.898743	3788.696045	1029.389771	4.283722
725.231873	906.939026	3805.860107	1024.188721	4.044598
725.553894	911.099915	3839.147461	1031.247437	4.103332
725.875916	951.594971	3909.735107	1071.445313	4.051544
726.197937	954.715637	3928.682373	1080.361572	4.224860
726.519775	951.520691	3933.066162	1075.680542	4.164279
726.841675	909.316711	3902.676514	1037.786255	4.291818
727.163513	907.830627	3920.508789	1029.612915	4.042326
727.485291	903.000977	3946.960205	1025.972046	4.039840
727.806946	903.669617	3980.991211	1028.126587	4.044328
728.128662	899.508728	3988.495850	1031.396118	4.269600
728.450256	905.527283	3980.248047	1033.402222	4.158912
728.771790	905.527161	3956.322998	1027.755249	4.006433
729.093323	911.397156	3946.440430	1026.789307	3.801994
729.414795	910.579773	3939.901611	1030.578735	3.961248
729.736145	910.431152	3936.781006	1026.937866	3.849744
730.057495	915.781006	3951.270264	1034.962646	3.926275
730.378845	913.254700	3982.774170	1028.869751	3.766552
730.700134	902.034973	3996.446045	1037.117432	4.365369
731.021301	891.929932	4022.006104	1023.965820	4.218297
731.342468	896.611023	4043.182617	1030.355835	4.250494
731.663574	910.282715	4084.271729	1030.727417	3.794742
731.984680	916.969910	4096.605957	1038.900757	3.834742
732.305664	909.242371	4098.389160	1040.683838	4.121525
732.626648	905.898743	4089.844482	1032.881958	3.988234
732.947571	900.400391	4088.432861	1030.875977	4.092668
733.268433	911.768738	4073.423828	1033.327881	3.844795
733.589233	911.917297	4059.826416	1040.981079	4.099984
733.909973	915.112305	4006.477295	1039.643677	4.028362
734.230713	910.802734	3943.171143	1030.132935	3.935215
734.551331	904.115417	3864.410156	1020.399231	3.928116
734.871948	904.561279	3824.806885	1023.297058	4.065952
735.192505	910.134033	3787.952393	1023.668518	3.945158
735.513062	915.929626	3757.934570	1022.851257	3.762190
735.833435	912.660339	3707.037109	1016.609802	3.719952
736.153931	906.790344	3669.885742	1014.900879	3.912660
736.474304	909.168152	3620.400391	1014.009216	3.866916
736.794617	913.477722	3606.208252	1010.888489	3.617546
737.114807	910.951355	3583.992188	1009.625427	3.691454
737.434998	908.722229	3605.985596	1011.631592	3.815325
737.755188	901.812195	3594.617188	1012.077332	4.094806
738.075256	899.508728	3611.855469	1015.495300	4.276244
738.395325	897.279602	3627.384766	1014.157776	4.281087
738.715271	904.189758	3670.406006	1025.229004	4.375625
739.035278	910.431213	3696.560303	1026.194946	4.155003
739.355164	909.019531	3703.841797	1026.343506	4.197905
739.675049	904.115540	3685.934814	1016.386963	4.035899
739.994873	908.202148	3662.306641	1018.467468	4.003672
740.314636	909.613953	3628.870361	1024.708862	4.232588
740.634277	914.072083	3583.768799	1021.513855	4.024494
740.953979	906.716125	3540.376221	1015.643860	4.135983
741.273499	912.140198	3497.428955	1009.030945	3.747773
741.593140	907.384766	3467.188232	1013.860657	4.159534
741.912598	911.025574	3437.169922	1011.408691	3.973768
742.232117	914.889343	3396.749023	1011.631592	3.897974
742.551453	920.164856	3361.455078	1000.040283	3.271853
742.870850	920.239197	3333.814453	1004.869934	3.506447
743.190063	912.065918	3307.362549	1002.566589	3.778266
743.509338	910.579895	3281.728271	1002.566650	3.879418
743.828552	908.945251	3254.310547	996.325195	3.725643
744.147705	909.242432	3246.805908	995.136414	3.674509
744.466797	918.158752	3239.227295	995.136292	3.316470
744.785828	916.598389	3232.985596	993.947510	3.339214
745.104858	917.118591	3218.496826	995.062012	3.386815
745.423706	905.230164	3207.946045	995.136292	3.904352
745.742615	904.264160	3186.323486	995.210632	3.985281
746.061401	906.938965	3171.760498	999.817444	4.100918
746.380249	909.390930	3159.128906	1002.715271	4.148232
746.698975	910.133972	3159.203125	1003.904053	4.169284
747.017639	910.654114	3155.785156	998.628601	3.918457
747.336304	913.329102	3150.137939	1000.040283	3.876558
747.654907	910.356934	3136.689453	1003.606750	4.188495
747.973389	909.539551	3135.128906	1000.486084	4.086402
748.291931	904.264099	3143.302002	997.588379	4.168053
748.610352	904.264160	3151.846924	991.272644	3.871203
748.928711	908.276428	3150.509766	989.637939	3.628592
749.247070	908.499451	3148.503174	994.987732	3.861078
749.565308	913.031799	3144.045166	994.467590	3.650170
749.883545	909.168152	3135.797607	998.108459	3.994392
750.201782	912.957520	3115.290283	987.037415	3.363701
750.519836	916.524109	3106.447998	991.495544	3.423472
750.837952	906.493164	3114.472900	996.399597	4.071887
751.155884	909.762512	3116.181641	1005.835938	4.354269
751.473877	905.378662	3103.401611	1003.235352	4.452032
751.791809	915.186584	3085.123291	997.811218	3.807698
752.109619	912.511719	3086.163818	992.238464	3.667871
752.427490	906.344543	3081.111328	993.724609	4.017905
752.745300	909.316650	3064.021484	989.563660	3.724269
753.062988	901.663513	3037.123779	991.867004	4.224077
753.380615	908.796570	3043.439453	988.894958	3.752309
753.698303	904.189880	3044.479736	992.387146	4.120810
754.015808	907.979248	3046.857422	995.656433	4.099214
754.333374	907.533386	3039.278564	996.028015	4.151276
754.650757	907.904846	3037.346436	999.148682	4.284872
754.968262	911.545715	3034.077148	999.817383	4.158792
755.285583	905.675781	3025.755127	998.628601	4.384403
755.602905	907.310547	3022.188721	1001.526428	4.454908
755.920105	900.400391	3009.780273	1001.526367	4.794109
756.237305	903.149597	3005.248047	997.811218	4.503197
756.554443	900.103088	3001.978516	994.541931	4.493075
756.871582	907.756348	3029.024658	989.786560	3.867036
757.188599	912.660339	3044.033936	992.610046	3.751088
757.505615	912.883301	3067.141846	996.473816	3.880245
757.822510	909.168152	3077.618896	998.851501	4.135826
758.139465	904.932800	3100.578125	1004.647034	4.541455
758.456238	901.960693	3123.760498	1003.235352	4.558226
758.773010	900.846191	3150.286865	1000.634766	4.436151
759.089783	899.954590	3172.726318	1000.857666	4.439649
759.406433	901.737793	3174.732422	1000.411865	4.341148
759.723145	906.418945	3172.651611	1003.160950	4.268847
760.039673	903.743958	3167.896484	1005.761536	4.505773
760.356201	903.669678	3184.094482	1001.006287	4.268354
760.672668	899.954529	3190.410156	1003.978333	4.541621
760.989136	902.406494	3203.561768	1000.708984	4.271875
761.305481	903.743958	3202.075928	999.520203	4.167207
761.621826	906.641785	3218.050781	994.616211	3.806095
761.938049	907.236145	3240.044678	999.594543	3.959107
762.254333	908.276367	3276.378662	1009.773987	4.286032
762.570496	909.911133	3351.795898	1019.730530	4.497321
762.886597	914.443604	3475.955811	1021.736816	4.188667
763.202637	914.815125	3686.752686	1027.903809	4.079771
763.518677	905.007141	3974.080811	1035.334106	4.246459
763.834656	898.617126	4255.093750	1042.021362	4.272463
764.150574	891.335449	4442.410645	1046.256714	4.362658
764.466370	894.233215	4440.999512	1042.392944	4.177319
764.782288	900.103088	4325.979004	1041.426880	4.125187
765.097961	908.722168	4159.615234	1032.064819	3.794116
765.413696	907.979187	3971.109375	1028.869751	3.946635
765.729309	907.904968	3779.779541	1016.981384	3.798091
766.044861	905.452942	3592.016602	1009.030945	3.855408
766.360474	912.363098	3467.782471	999.297302	3.401954
766.675903	912.140198	3364.873047	997.068176	3.462586
766.991394	915.038025	3283.511719	998.925781	3.541849
767.306763	913.329041	3213.592529	1001.229187	3.821308
767.622131	911.174316	3162.621094	1006.058777	4.214377
767.937378	909.093750	3117.221924	1007.247620	4.445117
768.252625	903.075195	3060.900391	1005.910217	4.765679
768.567810	901.514893	2998.857666	1002.566589	4.818082
768.882996	898.468506	2956.356689	1001.972168	5.029606
769.197998	899.805969	2911.106445	1001.080566	5.035279
769.513062	897.502625	2888.369873	1000.931946	5.195189
769.828064	901.737793	2858.945557	995.953674	4.813790
770.142944	902.778076	2836.580322	991.644104	4.595404
770.457825	904.412781	2813.917969	980.052917	3.961243
770.772705	907.756348	2788.878174	977.526550	3.708968
771.087402	909.391113	2773.720459	973.811523	3.455420
771.402100	910.579895	2751.132568	978.046692	3.665573
771.716736	899.657410	2729.213135	973.217102	4.020632
772.031372	896.908203	2715.764404	977.823792	4.448707
772.345947	904.264099	2699.269287	979.161316	4.172535
772.660461	908.499329	2688.049561	974.034363	3.682674
772.974854	910.728333	2669.473877	977.303711	3.785390
773.289246	905.824463	2660.557617	971.805237	3.760160
773.603638	910.282715	2640.198486	977.675232	3.895711
773.917908	909.836914	2619.913818	966.975586	3.341293
774.232178	908.202148	2600.520752	970.170654	3.661752
774.546265	900.103210	2591.158936	970.393555	4.156596
774.860474	905.675842	2572.731689	978.046692	4.341237
775.174561	908.053528	2565.449951	983.693665	4.563793
775.488586	915.409485	2560.100342	981.390320	4.011747
775.802551	907.979248	2548.137695	973.365662	3.986591
776.116516	904.561340	2537.735352	968.015808	3.885346
776.430359	903.966980	2519.531006	977.377930	4.543983
776.744202	908.945129	2527.035645	979.681335	4.371585
777.057922	910.654114	2522.800293	979.458496	4.267875
777.371704	904.264099	2523.543457	973.737122	4.290367
777.685303	899.211426	2506.676514	977.377991	4.862722
777.998962	901.143372	2497.240234	978.641113	4.855453
778.312500	901.440613	2498.131592	981.613281	5.021176
778.626038	905.452942	2511.654785	977.155090	4.464081
778.939453	902.703796	2502.961426	980.275879	4.847475
779.252869	903.372498	2488.918213	974.480164	4.484744
779.566223	897.131104	2475.766602	974.331543	4.890327
779.879578	901.143372	2479.927490	965.266663	4.061562
780.192749	905.898743	2485.723389	965.638184	3.781397
780.505920	915.112305	2476.138428	975.223328	3.850738
780.819031	913.403320	2453.847412	979.235657	4.273595
781.132141	915.781006	2434.156982	980.498718	4.262298
781.445190	918.827454	2432.002197	974.108704	3.653329
781.758118	917.787109	2425.166504	965.712402	3.179378
782.071045	915.186584	2411.197510	961.477234	3.094272
782.383911	910.579834	2399.160400	960.288391	3.339326
782.696838	902.778015	2397.748779	970.244934	4.512926
783.009583	898.765808	2392.101807	968.758972	4.687034
783.322266	897.205322	2370.256836	967.421387	4.766708
783.634888	904.858582	2362.455078	965.712402	4.174943
783.947510	908.870911	2355.916260	960.957092	3.599485
784.260132	907.310547	2352.944336	955.830261	3.356294
784.572571	903.372498	2345.439697	949.291565	3.184253
784.885010	908.499329	2340.312744	950.628967	2.942397
785.197449	913.551941	2330.876221	950.777588	2.626474
785.509766	913.626282	2312.374756	955.904541	3.022578
785.822083	903.743958	2303.532959	961.997314	4.161581
786.134277	900.103210	2300.263672	963.854919	4.553172
786.446533	905.378601	2307.173584	962.517395	4.076117
786.758606	915.038086	2305.836182	957.539246	3.055883
787.070740	920.387878	2307.768311	960.362610	2.881310
787.382690	920.610657	2319.359375	958.579346	2.714475
787.694641	915.483826	2354.504639	957.910645	2.948312
788.006653	912.957520	2394.108154	960.659912	3.220631
788.318481	911.620117	2436.163330	967.198547	3.645579
788.630310	908.276428	2478.292969	977.155090	4.387129
788.942017	909.093811	2512.026611	970.096375	3.805684
789.253784	908.127930	2531.344971	971.433777	3.900023
789.565430	908.127930	2516.781982	969.501953	3.815241
789.877014	909.019470	2488.026611	979.681396	4.475086
790.188538	908.870850	2433.785645	981.613220	4.770258
790.500061	911.025635	2384.300049	980.052917	4.685297
790.811462	901.737793	2346.925781	974.851624	5.059123
791.122925	902.926697	2315.867188	970.393555	4.774926
791.434204	899.583008	2289.118164	974.480164	5.390087
791.745483	903.595398	2265.266846	969.650574	4.851037
792.056702	905.972961	2253.230225	969.501892	4.715426
792.367920	905.898682	2237.106201	967.644348	4.638320
792.678955	901.589172	2222.468750	965.786682	4.860209
792.990112	895.199219	2212.140625	962.443115	5.106066
793.301086	902.035095	2211.248779	960.362610	4.455156
793.612122	906.270325	2201.663818	964.449402	4.491228
793.922974	907.384827	2188.066406	960.734192	4.165701
794.233826	900.920471	2182.270752	956.053040	4.302693
794.544556	898.319885	2193.416260	957.613464	4.578314
794.855286	904.487061	2196.462646	959.322449	4.244305
795.166016	904.858582	2208.053955	963.780518	4.521343
795.476624	910.654114	2212.066162	960.288269	3.813869
795.787292	902.629456	2240.449951	963.260437	4.532071
796.097778	901.366211	2264.003906	961.031433	4.378656
796.408264	901.737793	2290.901367	964.375061	4.508992
796.718689	903.892578	2313.637939	963.557678	4.232332
797.029053	909.242371	2318.690674	962.740417	3.795673
797.339355	910.877014	2317.055908	960.882813	3.556148
797.649658	911.025635	2311.854736	960.808411	3.553808
797.959839	905.898743	2291.421631	960.288391	3.925568
798.270020	905.824463	2265.564209	954.344177	3.568309
798.580078	905.230042	2232.648193	951.594971	3.492865
798.890137	908.870911	2209.317139	959.768250	3.913836
799.200195	904.264099	2194.679443	967.941589	4.934651
799.510071	906.344543	2177.441162	968.758850	4.910272
799.820007	903.223877	2170.531250	958.802246	4.385548
800.129883	895.942200	2154.704590	950.108887	4.303170
800.439575	896.016602	2143.261963	945.873596	3.997369
800.749329	897.279602	2138.209229	947.805481	4.071615
801.058960	902.406494	2131.670654	951.074768	3.959139
801.368591	902.332214	2123.051514	950.257507	3.925988
801.678162	897.056824	2104.030029	942.975830	3.804476
801.987671	902.629456	2097.937256	954.418457	4.332692
802.297119	902.109375	2097.045654	956.573181	4.557884
802.606506	908.127869	2086.791992	957.836365	4.217359
802.915894	904.561340	2078.247070	948.622803	3.754111
803.225159	903.521057	2061.603271	944.238953	3.515976
803.534424	902.852356	2061.528809	948.622742	3.950230
803.843628	899.211609	2058.854248	950.628967	4.433897
804.152771	901.440674	2057.516602	954.344177	4.576127
804.461792	902.332214	2060.414307	955.681641	4.606705
804.770874	908.053528	2051.349365	954.492859	4.061882
805.079773	909.242371	2067.324463	949.663086	3.490315
805.388733	911.471436	2071.188232	947.285461	3.088170
805.697571	905.304382	2102.469727	948.399902	3.599797
806.006470	904.932800	2114.655518	953.526855	4.016958
806.315125	905.007080	2125.875244	955.830261	4.162872
806.623901	909.762512	2120.525635	956.573242	3.866217
806.932495	907.087585	2107.819580	963.409119	4.690600
807.241150	910.133972	2099.720703	965.266663	4.634609
807.549622	911.545715	2085.454346	960.139709	4.139504
807.858154	916.078186	2075.795166	954.641357	3.325222
808.166565	911.397156	2060.562744	953.749756	3.685509
808.474915	907.979187	2048.006104	962.145813	4.751347
808.783264	902.480774	2027.572632	966.975525	5.732399
809.091492	900.623291	2013.678101	969.353210	6.174891
809.399719	900.028809	2001.863892	968.164368	6.183825
809.707825	895.199219	1993.393433	966.604004	6.502018
810.015930	891.558350	1972.737305	969.501892	7.209125
810.323975	891.632629	1968.501953	960.734192	6.416893
810.632080	904.264160	1967.907593	955.681641	4.834090
810.939880	907.161926	1970.656860	949.068665	3.940474
811.247864	911.545837	1953.121460	943.718811	3.088875
811.555664	902.852356	1943.536499	941.118225	3.676992
811.863464	908.722351	1944.279297	937.477356	2.776767
812.171143	907.384766	1939.301147	944.238953	3.571432
812.478882	907.830566	1932.985352	948.325623	3.950141
812.786438	904.338379	1918.942017	951.669250	4.664962
813.094055	908.127869	1924.291992	950.926208	4.211755
813.401489	910.356934	1918.570679	941.712708	3.110032
813.708984	909.019531	1914.558228	941.712708	3.251310
814.016357	894.233337	1912.329102	946.765320	5.159827
814.323730	888.066162	1907.945313	956.201660	6.680742
814.630981	887.768982	1904.750122	955.161438	6.626717
814.938232	897.205383	1888.552124	946.468079	4.969270
815.245361	900.920593	1893.381714	939.260681	3.863132
815.552490	901.737793	1901.629395	937.997559	3.626370
815.859619	899.211487	1909.059570	943.644592	4.399979
816.166565	898.914307	1909.802856	938.443359	3.910327
816.473572	898.468506	1901.481079	938.591980	4.000296
816.780457	900.697571	1903.264282	938.889160	3.809381
817.087341	897.799805	1895.313843	946.022278	4.834265
817.394043	903.223877	1906.087769	952.040833	4.867755
817.700806	903.000977	1916.712891	951.074890	4.742364
818.007507	905.824463	1939.449585	957.390625	4.988865
818.314209	903.000977	1947.845825	953.452576	4.828621
818.620667	907.681946	1959.065430	954.641357	4.466440
818.927246	911.099915	1979.870239	956.276062	4.226928
819.233704	912.363098	2008.774048	957.762024	4.140686
819.540161	910.802734	2063.832275	963.632019	4.581781
819.846497	906.938965	2133.899658	961.923035	4.481323
820.152832	902.629456	2233.836914	973.068359	5.291354
820.458984	900.697571	2339.198242	975.668945	5.211772
820.765259	901.886414	2444.485107	978.269592	4.951591
821.071350	905.230042	2572.657227	980.275879	4.500696
821.377502	910.728455	2764.358154	983.842468	3.944370
821.683472	910.356934	3162.100830	1003.012451	4.114834
821.989441	904.635681	3914.936279	1030.578735	4.183737
822.295349	899.880188	5134.837891	1085.191284	4.375749
822.601196	902.034973	6647.419434	1141.735718	4.172058
822.907043	912.140198	8054.563965	1197.388306	3.993716
823.212769	916.226868	8881.999023	1225.326294	3.880345
823.518494	914.666504	8906.295898	1233.870972	3.994235
823.824097	902.332214	8231.477539	1205.338745	4.134268
824.129700	898.319885	7153.196777	1158.750977	4.163649
824.435242	897.353943	6026.916504	1109.636841	4.138421
824.740723	904.932861	5062.318359	1065.872559	3.871176
825.046082	902.257996	4340.839355	1032.287720	3.781493
825.351501	910.133972	3813.067139	1009.848328	3.434952
825.656799	909.465332	3452.030273	997.365479	3.457144
825.962036	910.802734	3210.323242	998.257080	3.803156
826.267212	911.694397	3113.432373	996.028015	3.830320
826.572449	916.747009	3126.658447	997.291199	3.644680
826.877502	923.880066	3307.882813	994.170410	2.948417
827.182495	921.428040	3598.554932	1007.842102	3.227866
827.487488	920.387756	3964.867432	1018.021484	3.206910
827.792419	905.601563	4267.502441	1037.637573	3.927421
828.097290	900.325989	4383.563965	1045.290649	4.161779
828.402100	892.895813	4266.536621	1045.290649	4.517221
828.706848	899.731689	3946.811768	1030.653198	4.296622
829.011597	899.062988	3528.859131	1013.414795	4.348314
829.316223	898.468506	3118.559326	996.473816	4.414473
829.620789	900.994812	2777.733154	982.281921	4.331297
829.925354	899.880188	2531.047852	964.969482	3.990350
830.229797	909.539551	2349.971924	953.006653	3.017643
830.534302	912.734680	2215.038330	953.155273	3.103776
830.838562	920.313477	2116.587158	953.081055	2.739137
831.142944	912.214539	2050.086426	953.378235	3.617604
831.447144	904.561340	2014.346680	942.232849	3.394486
831.751404	895.273499	1989.678223	945.056335	4.548851
832.055542	888.586243	1962.855103	944.387512	5.194349
832.359619	885.316895	1947.474243	946.839539	5.792234
832.663635	894.010315	1970.062378	939.186340	4.198312
832.967651	896.462341	2035.820313	947.954102	4.519367
833.271545	904.041260	2161.020264	953.526855	3.936867
833.575439	901.440613	2356.733643	963.186218	4.242830
833.879211	905.230042	2621.177002	972.994141	3.949079
834.183044	902.629395	2893.125000	982.727783	4.024043
834.486694	900.623291	3097.680420	990.752441	4.102267
834.790344	900.549011	3156.305420	998.331360	4.334792
835.093933	904.041199	3090.844727	1003.309631	4.539431
835.397522	904.784180	2902.041260	994.541992	4.494054
835.700928	902.332214	2683.814209	978.195313	4.258427
836.004395	903.966980	2449.388916	964.226379	3.899220
836.307739	907.162048	2272.251221	966.529785	4.349001
836.611023	914.443665	2123.125732	965.266602	4.204823
836.914307	909.539551	2016.575806	963.557678	4.879527
837.217529	903.372498	1918.644897	948.028381	4.398414
837.520691	889.329285	1853.927124	939.112122	5.160994
837.823730	890.964050	1793.444824	935.396973	4.923420
838.126831	897.428223	1755.179077	936.065613	4.504500
838.429749	911.545715	1711.340332	931.607422	2.508357
838.732727	911.842957	1680.504517	930.195740	2.387629
839.035522	907.384827	1659.774048	935.545593	3.742846
839.338379	904.635559	1662.746460	938.071838	4.410473
839.641113	904.784180	1680.653320	935.768494	3.993497
839.943848	913.774902	1720.851074	935.025574	2.633044
840.246460	917.564392	1777.172485	938.889221	2.480762
840.549072	914.963684	1842.707520	944.907715	3.227618
840.851563	911.174255	1880.081665	944.239014	3.412582
841.154053	913.329041	1891.152832	942.604309	2.993921
841.456482	918.010193	1851.252319	935.619873	1.886936
841.758850	904.635681	1792.627563	936.288574	3.564548
842.061157	895.124939	1709.333984	935.248291	4.927893
842.363403	893.787415	1632.950806	932.499084	5.237228
842.665588	903.966980	1579.898804	928.486755	3.627552
842.967712	904.412781	1542.970337	925.143127	3.246433
843.269775	899.434387	1527.663940	929.749939	4.825553
843.571777	892.524231	1507.082031	922.096741	4.811998
843.873840	894.456238	1488.357788	917.489990	3.878379
844.175659	894.307617	1470.302246	914.666504	3.534562
844.477600	900.400391	1452.841187	920.090576	3.564216
844.779297	894.456238	1436.420288	925.589050	5.744442
845.081116	897.056824	1433.373901	927.372253	5.652520
845.382751	896.462341	1424.754761	922.616943	4.950781
845.684387	904.189880	1419.256470	919.867676	3.043839
845.985962	901.886475	1402.241089	923.285645	4.276801
846.287537	902.852356	1389.089355	932.944885	6.188860
846.588989	899.211487	1383.665161	941.861267	8.803686
846.890381	907.310547	1367.690063	949.663086	9.199484
847.191711	909.688171	1357.733643	944.090393	7.678288
847.493042	907.607666	1349.188843	941.489807	7.672914
847.794250	904.115479	1359.888550	925.440430	4.678853
848.095459	899.805908	1359.739868	923.508545	5.153487
848.396606	904.338379	1355.355957	911.620117	1.614513
848.697693	898.691406	1343.095947	914.294922	3.511106
848.998657	903.000977	1347.034058	917.192810	3.196121
849.299622	907.161926	1342.575806	927.446594	4.658710
849.600464	913.403381	1342.798828	925.960510	2.924374
849.901367	909.093811	1335.145630	922.988464	3.261259
850.202087	897.799805	1322.662720	923.137024	5.963622
850.502808	889.626465	1312.483276	919.941956	7.169209
850.803467	896.611023	1309.734131	916.152527	4.730189
851.104065	906.493164	1320.136475	916.672668	2.460938
851.404663	912.585999	1312.186035	922.468262	2.473039
851.705139	908.499329	1307.876465	923.211243	3.683715
852.005615	909.168030	1301.337769	917.044128	2.008339
852.306030	915.558105	1302.378052	915.483826	-0.019203
852.606384	916.524109	1302.378052	913.254700	-0.847318
852.906616	916.226868	1300.669067	912.585999	-0.947052
853.206909	912.957520	1305.424438	914.889404	0.492241
853.506958	916.746887	1298.068481	920.462097	0.974298
853.807129	915.409485	1293.833374	917.638611	0.589055
854.107178	912.808838	1286.551636	919.867676	1.888689
854.407166	906.344543	1284.768433	924.028625	4.673088
854.707092	906.716003	1281.573364	925.366211	4.975281
855.007019	909.762451	1276.669434	918.678894	2.430164
855.306763	910.133972	1273.400024	913.477722	0.920469
855.606567	908.573669	1267.901611	909.985352	0.392867
855.906250	902.629395	1269.536255	908.053528	1.478341
856.205933	905.973083	1259.134033	898.617126	-2.082891
856.505493	902.778015	1260.768677	909.093750	1.764218
856.805054	907.459167	1271.913940	905.898743	-0.428153
857.104492	906.195984	1283.505249	920.462097	3.781013
857.403931	911.397156	1289.598022	911.694336	0.078577
857.703308	908.870850	1284.173950	921.428040	3.345880
858.002563	910.505554	1285.214233	915.409485	1.308732
858.301819	911.397217	1280.978882	918.381653	1.889822
858.601013	914.220703	1265.003784	919.050354	1.376820
858.900208	914.294922	1255.790405	919.273254	1.457803
859.199219	914.294983	1242.341431	923.954346	2.944511
859.498291	916.746887	1248.508667	920.462097	1.119843
859.797302	908.053528	1250.514771	924.994629	4.946867
860.096191	899.360168	1260.025513	918.753174	5.377008
860.395020	892.821472	1249.474487	914.443665	6.062529
860.693787	896.685242	1249.920410	907.756348	3.134203
860.992554	897.948425	1246.428101	909.539612	3.326216
861.291260	903.223938	1248.285645	911.917297	2.519364
861.589844	902.035156	1233.425171	912.288757	3.094119
861.888428	911.917297	1229.264160	916.301086	1.381387
862.186890	907.013367	1230.081543	915.929626	2.759869
862.485413	913.254700	1235.728516	921.948181	2.695872
862.783813	909.242432	1239.889526	917.341309	2.449402
863.082153	909.762512	1242.713013	925.217468	4.641818
863.380371	913.477722	1240.038086	918.307312	1.478927
863.678589	914.294922	1238.774902	917.489929	0.984655
863.976746	919.867676	1240.038208	913.254700	-2.065454
864.274902	913.031738	1246.205200	916.746887	1.115080
864.572937	906.418945	1248.582886	918.901672	3.648171
864.870911	901.514893	1244.124756	920.090576	5.421818
865.168884	898.022705	1247.468384	922.022461	6.867950
865.466736	903.521057	1247.765625	918.455872	4.338431
865.764587	904.412781	1245.685181	911.397156	2.046569
866.062317	901.960693	1235.505737	907.905029	1.782169
866.360107	902.109314	1234.539673	910.059753	2.391611
866.657715	904.635559	1243.604614	913.031921	2.477029
866.955322	908.499329	1247.839844	922.022461	3.985122
867.252808	909.985413	1251.926514	924.548828	4.259042
867.550293	904.635559	1242.192871	921.205139	4.908672
867.847717	907.459167	1232.310669	907.533447	0.022866
868.145081	902.778076	1228.892700	907.310547	1.389840
868.442383	902.034973	1232.236206	904.487061	0.742604
868.739624	902.332214	1239.666504	908.350769	1.784151
869.036804	901.143372	1231.419067	898.765686	-0.719909
869.333984	907.236267	1230.378784	897.353943	-3.058194
869.631042	908.870911	1228.669800	892.672852	-5.065077
869.928101	915.929688	1226.143555	900.474609	-4.982072
870.224976	914.072083	1222.428345	915.260925	0.385542
870.521851	912.808899	1219.604858	919.719055	2.252362
870.818726	911.991516	1223.840088	921.799561	3.145130
871.115479	914.072083	1227.183716	918.158752	1.305180
871.412231	912.585999	1237.066040	921.651062	2.793720
871.708862	908.053528	1240.929810	924.994629	5.089309
872.005493	901.217712	1240.558228	926.332031	7.400919
872.302063	904.189758	1237.214600	923.805725	5.890241
872.598572	908.053467	1226.663574	918.901794	3.404891
872.895020	913.923523	1230.898804	912.957520	-0.304757
873.191406	916.449768	1232.533569	916.895508	0.141019
873.487671	914.889465	1240.706909	921.428040	2.006821
873.783997	910.134094	1236.174316	925.886230	4.831347
874.080200	906.939026	1240.335327	920.759338	4.145311
874.376343	906.493164	1231.938965	916.598328	3.105022
874.672424	909.762512	1228.818359	913.106140	1.047976
874.968445	909.242371	1223.022827	915.409485	1.965423
875.264465	904.412781	1233.573730	906.121643	0.519157
875.560364	902.926697	1233.499390	902.332214	-0.179834
875.856201	904.041260	1230.973145	899.657288	-1.340944
876.152039	904.709961	1225.548950	911.025635	1.968487
876.447754	905.898743	1232.459106	910.059631	1.274156
876.743469	897.725525	1241.226807	915.558105	5.191416
877.039063	904.858582	1238.849243	911.322815	1.935453
877.334595	909.688171	1243.233032	916.301208	1.982653
877.630127	916.003906	1242.564331	918.158691	0.659843
877.925537	919.347595	1253.486816	918.827393	-0.155684
878.221008	909.093750	1248.434204	916.301086	2.123925
878.516296	905.601563	1249.548828	908.722351	0.907345
878.811646	900.623291	1260.917114	910.356934	2.701585
879.106812	904.635681	1272.879883	914.592224	2.703788
879.401978	900.920471	1297.028198	919.719055	4.745826
879.697083	906.418945	1326.526489	921.948181	3.696491
879.992126	904.858582	1363.009155	923.731384	4.119345
880.287109	912.288818	1422.451294	929.452698	3.364395
880.582031	905.081482	1496.233887	927.892334	3.858709
880.876892	903.149597	1654.795898	934.505310	4.171605
881.171753	900.251770	1932.390991	932.647705	3.138718
881.466492	903.000977	2398.194580	954.567078	3.448791
881.761230	908.276428	3021.594482	975.297546	3.171369
882.055786	906.121643	3638.381592	1004.647034	3.606004
882.350403	903.372559	4044.446045	1021.290833	3.754076
882.644958	904.784180	4107.454590	1019.953430	3.596038
882.939453	910.208313	3858.242920	1002.269470	3.122798
883.233826	911.322815	3445.045654	979.458496	2.689153
883.528137	902.629395	2990.610352	963.483398	2.914490
883.822449	904.338379	2606.688232	963.854980	3.496144
884.116577	901.217773	2295.954102	949.811707	3.484095
884.410828	907.830750	2063.386475	946.022278	3.305036
884.704956	898.691406	1870.645142	935.917053	3.829981
884.999023	900.177429	1727.315308	939.706543	4.779024
885.292969	896.685242	1626.337891	928.561096	4.368634
885.586914	908.945129	1557.682251	923.508545	2.244887
885.880798	908.350769	1504.852905	920.982239	2.117590
886.174622	910.505554	1458.785156	930.195740	3.591267
886.468384	910.579834	1431.887695	930.047119	3.734316
886.762085	908.870850	1408.853882	932.127625	4.651513
887.055664	909.391052	1389.758179	930.344421	4.361949
887.349304	897.576843	1359.442505	923.359924	5.582376
887.642822	903.000977	1328.904175	916.003967	3.053039
887.936340	902.406555	1307.059082	909.168152	1.670964
888.229736	902.629395	1279.567261	914.443542	3.134243
888.523071	900.623230	1268.496094	911.694336	3.009492
888.816284	905.007141	1249.177368	916.895508	3.454211
889.109619	917.564270	1234.316772	912.808899	-1.501289
889.402710	911.694397	1220.793579	919.124695	2.403856
889.695862	905.230164	1207.939331	915.855286	3.510010
889.988892	893.861816	1211.951660	910.728516	5.302495
890.281921	896.313782	1218.193115	890.963989	-1.662049
>>>>>End Processed Spectral Data<<<<<
