Jaz Data File
++++++++++++++++++++++++++++++++++++
Date: Fri Jun 04 13:45:26 2021
User: jaz
Dark Spectrum Present: Yes
Reference Spectrum Present: Yes
Processed Spectrum Present: Yes
Spectrometers: JAZA3586
Integration Time (usec): 386000 (JAZA3586)
Spectra Averaged: 10 (JAZA3586)
Boxcar Smoothing: 1 (JAZA3586)
Correct for Electrical Dark: No (JAZA3586)
Strobe/Lamp Enabled: Yes (JAZA3586)
Correct for Detector Non-linearity: No (JAZA3586)
Correct for Stray Light: No (JAZA3586)
Number of Pixels in Processed Spectrum: 2048
>>>>>Begin Processed Spectral Data<<<<<
W	D	R	S	P
191.335022	0.000000	0.000000	0.000000	0.000000
191.713211	286.065460	285.248138	286.139771	-9.091928
192.091385	572.502502	577.257874	572.502441	-0.001283
192.469528	854.406982	861.837219	861.317078	92.999664
192.847641	859.682556	865.923828	863.249023	57.143276
193.225739	885.911377	882.047607	885.539856	9.615506
193.603790	921.205139	908.276550	898.022705	179.311401
193.981842	931.979004	931.904785	917.712891	19221.710938
194.359863	932.573425	939.037842	920.164856	-191.951889
194.737854	946.170898	946.913879	941.415466	-640.047668
195.115829	950.108887	942.530029	947.359680	36.274685
195.493774	946.170837	931.384583	944.907715	8.542545
195.871704	932.499207	924.103027	932.573486	-0.884686
196.249603	954.121277	933.465088	940.895325	64.029007
196.627457	952.337952	942.604309	938.814941	138.930618
197.005310	948.399902	940.300964	938.220459	125.688622
197.383133	928.486816	932.424988	927.892395	-15.093843
197.760910	946.839539	940.375305	949.663086	-43.679539
198.138687	946.839600	944.536194	957.093323	-445.154877
198.516449	949.663086	944.164612	954.344055	-85.132149
198.894180	927.966614	930.715820	933.910889	216.217834
199.271866	925.291748	933.687988	930.938782	67.256699
199.649536	922.765442	935.174011	929.824219	56.886307
200.027191	932.870667	943.793030	932.053284	-7.483571
200.404816	924.325867	940.300842	921.948181	-14.883813
200.782410	923.880066	954.046875	930.492981	21.921162
201.159988	922.616882	964.077820	934.653992	29.032410
201.537537	931.756165	977.377991	942.158508	22.801243
201.915070	928.561218	968.610352	933.093506	11.316818
202.292557	920.685059	963.780579	931.756104	25.689548
202.670029	919.719177	959.396729	941.043945	53.745171
203.047485	921.502441	963.483398	950.406067	68.849373
203.424911	920.016357	963.929199	961.774414	95.093040
203.802292	913.997803	969.353333	957.762024	79.060249
204.179688	909.465332	967.867249	953.081055	74.682007
204.557037	912.363098	964.597961	948.028503	68.278931
204.934357	925.737610	956.350342	951.520691	84.223389
205.311661	936.288574	955.161438	950.406067	74.803131
205.688934	933.242188	959.396729	946.022278	48.863754
206.066177	919.570496	957.019043	940.598145	56.150772
206.443390	908.796631	960.436951	940.375305	61.151199
206.820587	908.870911	949.365906	938.814941	73.945015
207.197769	923.508545	966.678406	940.969727	40.447620
207.574921	926.332031	963.706299	942.084167	42.147011
207.952042	931.533203	973.514221	937.997498	15.398136
208.329147	931.236023	965.489563	939.780762	24.945564
208.706223	1056.881958	1091.878540	1059.854004	8.492389
209.083267	1059.556763	1097.971313	1074.640259	39.265060
209.460297	1049.600220	1098.119995	1072.782593	47.779224
209.837280	920.759277	970.393555	959.916748	78.891991
210.214264	906.344543	961.179993	949.217224	78.184242
210.591217	898.617126	952.189392	941.341125	79.750221
210.968124	907.384827	968.387390	946.170898	63.581051
211.345016	922.245422	974.183044	951.594971	56.509228
211.721893	922.839844	977.526611	954.269836	57.472755
212.098724	917.638672	957.390625	949.811707	80.934479
212.475555	922.542664	960.214111	952.040833	78.303787
212.852356	933.390686	959.248230	953.155334	76.436684
213.229126	940.003723	970.170593	953.303955	44.088871
213.605865	923.880066	955.904480	937.180176	41.531158
213.982590	911.768738	956.053040	934.728210	51.845623
214.359283	899.805969	953.155273	921.205078	40.111317
214.735931	895.942200	960.511230	926.183411	46.835472
215.112579	900.400391	967.644287	935.471191	52.154625
215.489197	901.440613	968.610352	939.706543	56.969002
215.865799	909.168152	980.275879	945.279236	50.783630
216.242355	903.818298	971.359558	935.471252	46.864620
216.618896	918.307312	983.768066	944.684814	40.295139
216.995407	915.409424	969.873352	941.043945	47.066971
217.371902	914.889343	968.387390	938.517639	44.166653
217.748367	902.183594	955.978821	933.985168	59.115978
218.124802	902.852356	961.551514	928.412537	43.544373
218.501236	903.595398	957.539124	928.709717	46.556515
218.877609	908.499329	960.288391	925.366028	32.568073
219.253983	904.858582	960.065430	929.527039	44.683689
219.630295	903.669617	983.247864	938.517578	43.790813
220.006592	900.846191	991.644043	940.152344	43.289738
220.382889	907.533386	998.554199	940.300964	36.000095
220.759140	914.146301	988.746277	946.393799	43.227222
221.135391	910.877014	994.244690	949.440125	46.256668
221.511581	903.669739	994.913391	948.028503	48.615726
221.887772	899.508789	1005.092957	946.542297	44.545986
222.263931	911.248535	1011.780212	950.777649	39.320057
222.640060	924.994568	1017.947266	960.659851	38.369282
223.016159	926.852112	1022.999817	950.108887	24.188591
223.392212	914.220703	1022.033875	950.257507	33.425232
223.768265	899.434387	1027.532349	949.068665	38.747124
224.144302	892.672913	1027.532349	950.183289	42.644680
224.520294	893.787415	1023.668640	938.591980	34.496567
224.896286	909.242432	1033.179321	944.536194	28.477205
225.272217	919.124695	1041.947144	955.384460	29.522100
225.648148	927.595215	1066.392578	963.632019	25.963608
226.024048	909.019470	1065.798218	955.607361	29.715693
226.399902	903.743958	1077.612305	947.582581	25.213688
226.775772	894.307556	1072.708374	942.158508	26.822159
227.151581	910.431152	1098.194214	951.297791	21.765005
227.527374	903.669617	1127.469360	957.316223	23.970808
227.903137	910.579773	1175.394897	978.641113	25.701454
228.278870	908.127869	1238.329224	989.192139	24.549952
228.654572	914.369324	1308.396729	1003.681152	22.666401
229.030273	909.688171	1396.891235	1005.464355	19.658371
229.405930	901.589172	1473.497192	1009.105164	18.799524
229.781555	906.121765	1537.992065	1011.259949	16.639204
230.157181	908.276550	1551.960938	1009.253845	15.687392
230.532761	904.338379	1529.001343	1004.869934	16.093727
230.908325	895.570618	1470.748047	994.839111	17.258760
231.283859	892.598572	1427.578125	990.826721	18.361103
231.659332	899.434387	1381.139038	983.322205	17.414783
232.034821	902.778015	1356.321899	983.768066	17.857159
232.410263	903.298157	1334.996948	977.526611	17.194502
232.785690	899.508728	1312.037476	969.799133	17.038910
233.161087	903.075195	1299.851685	964.895020	15.580516
233.536469	904.264099	1280.235840	961.922913	15.335943
233.911804	907.161865	1289.449463	972.473938	17.084539
234.287140	909.688171	1298.291382	977.526611	17.456995
234.662430	912.363098	1324.446045	987.854675	18.319510
235.037704	912.734619	1341.981445	989.266418	17.829323
235.412933	901.514954	1348.000000	991.941406	20.252964
235.788162	893.044434	1346.365356	990.083801	21.406328
236.163345	900.549011	1348.371460	995.730774	21.254353
236.538513	908.053650	1364.792358	1003.086731	20.806881
236.913635	908.722351	1371.108032	1006.876282	21.227718
237.288742	901.217773	1377.423828	1004.721436	21.735058
237.663834	898.171326	1372.668457	1001.229187	21.719385
238.038879	899.880188	1375.937866	1000.783386	21.195583
238.413910	898.394226	1389.683716	1005.018555	21.702953
238.788910	899.285828	1402.538208	1004.572754	20.921297
239.163879	903.595398	1417.770142	1020.250671	22.687866
239.538834	908.573669	1425.051880	1019.359070	21.450159
239.913757	914.294983	1469.336304	1030.950317	21.017414
240.288651	916.375488	1509.756836	1036.077148	20.172804
240.663528	908.127869	1562.214478	1050.269043	21.731247
241.038361	897.725403	1609.619751	1064.163696	23.379635
241.413177	897.948425	1708.219604	1079.395630	22.393393
241.787979	899.508789	1819.970825	1104.955811	22.319988
242.162735	903.818359	1958.619629	1126.800903	21.139769
242.537476	896.833801	2076.760986	1149.611694	21.423176
242.912170	919.050293	2205.007568	1166.478394	19.240772
243.286865	924.920227	2262.815186	1172.794067	18.527151
243.661514	924.697327	2259.768799	1166.478394	18.109970
244.036148	912.883118	2186.951904	1151.023438	18.691322
244.410751	914.740784	2082.259521	1132.299194	18.634253
244.785339	916.747009	1999.040405	1122.862793	19.044353
245.159882	913.626221	1949.777710	1136.534424	21.513090
245.534378	916.003906	1986.854858	1164.546631	23.209833
245.908890	913.477600	2072.005859	1203.258301	25.012829
246.283356	907.236145	2235.694580	1233.202271	24.537170
246.657791	888.214661	2451.172607	1276.149292	24.820541
247.032196	896.833801	2719.405029	1318.501831	23.135887
247.406586	900.994690	2953.755859	1347.777100	21.764948
247.780960	911.694336	3110.163086	1357.213501	20.264977
248.155289	900.325989	3134.237305	1339.901001	19.677370
248.529602	897.725403	3042.547852	1316.124023	19.507378
248.903870	901.143372	2861.620850	1281.053101	19.378428
249.278122	904.784180	2650.155273	1241.152710	19.272036
249.652344	897.725525	2462.020752	1212.323120	20.111141
250.026550	896.908203	2311.557861	1196.125122	21.151308
250.400711	916.226868	2211.323242	1208.608032	22.576015
250.774857	924.103027	2137.243408	1219.976440	24.389050
251.148987	927.298035	2105.442139	1217.152832	24.602661
251.523071	907.904968	2105.293701	1215.221069	25.665525
251.897125	926.629211	2160.351807	1225.623413	24.235123
252.271164	916.003906	2223.211914	1240.261108	24.805326
252.645187	912.808899	2283.694092	1236.174316	23.588074
253.019165	892.524231	2297.291748	1218.416016	23.198982
253.393112	920.610657	2290.455566	1227.555176	22.407246
253.767044	925.663269	2211.546143	1216.855713	22.645332
254.140930	928.858337	2130.110352	1207.642090	23.207767
254.514801	910.356934	2040.947266	1188.917969	24.638548
254.888657	911.099915	1997.777344	1184.756958	25.182913
255.262466	914.815125	1962.334961	1186.911621	25.975309
255.636276	923.285645	1973.926147	1198.651489	26.209332
256.010010	924.845947	1996.365601	1216.038208	27.175634
256.383759	921.948181	2038.272339	1238.626343	28.367937
256.757446	910.059753	2080.996338	1244.496216	28.561451
257.131134	906.493225	2157.973877	1267.455933	28.842850
257.504791	902.629456	2259.025391	1286.180176	28.277193
257.878418	903.521057	2365.352783	1319.096191	28.428383
258.252014	911.471436	2515.964600	1366.798462	28.378246
258.625580	915.558105	2692.581787	1441.695679	29.607798
258.999115	906.195984	2939.787109	1522.239868	30.293400
259.372650	900.103210	3214.038330	1600.629272	30.274231
259.746124	892.004150	3535.992188	1652.789673	28.774166
260.119598	899.211426	3831.642578	1698.708618	27.263971
260.493042	898.096924	4030.105225	1712.083130	25.989273
260.866425	903.669617	4079.516602	1695.811035	24.942682
261.239838	902.926575	3933.289063	1634.139648	24.129557
261.613159	903.669678	3662.158203	1560.803101	23.822227
261.986511	904.264160	3344.142578	1502.326782	24.511984
262.359802	912.734619	3084.677490	1457.745117	25.093224
262.733063	908.425049	2920.096924	1440.358276	26.442345
263.106293	913.626221	2820.679688	1422.005493	26.657841
263.479523	911.174255	2762.203857	1427.058105	27.870104
263.852692	923.508545	2723.714600	1411.974609	27.133898
264.225861	917.712952	2684.185791	1401.349243	27.378641
264.598969	921.205139	2666.427490	1402.909668	27.601326
264.972076	919.198975	2672.297607	1418.587524	28.486050
265.345154	926.777832	2719.108154	1461.683105	29.844124
265.718201	915.112305	2767.107422	1481.299194	30.571728
266.091217	927.075012	2861.174561	1527.886719	31.064156
266.464203	927.223633	2945.731201	1545.868164	30.648611
266.837158	928.858215	3059.340088	1564.815308	29.850386
267.210114	906.716125	3136.391846	1577.075195	30.065315
267.583038	899.583069	3201.406982	1588.369263	29.923496
267.955902	908.350769	3235.289063	1616.307129	30.424374
268.328766	910.356934	3226.372803	1614.003784	30.381781
268.701569	906.790344	3227.635986	1616.975952	30.600294
269.074371	891.855652	3230.310791	1619.279297	31.107018
269.447144	898.171326	3265.084229	1634.436890	31.106577
269.819885	903.223877	3318.359375	1670.473999	31.768410
270.192596	916.003906	3419.634033	1716.392944	31.969141
270.565277	926.109070	3577.081299	1810.237305	33.351093
270.937927	917.787170	3756.819580	1868.936401	33.502583
271.310577	914.146301	3973.041016	1932.539551	33.292850
271.683136	899.657410	4175.367188	1945.616821	31.930775
272.055725	901.440674	4344.777344	1956.613647	30.643909
272.428284	899.211609	4382.151855	1936.774536	29.789860
272.800812	897.874023	4332.071777	1916.341309	29.656630
273.173279	907.087585	4185.843750	1890.855469	30.004301
273.545776	906.493164	4063.467529	1875.326294	30.688660
273.918152	916.152527	3939.678955	1847.983032	30.819328
274.290558	911.620117	3880.682861	1837.506226	31.184458
274.662964	917.861511	3820.794678	1827.178223	31.324066
275.035278	904.264099	3775.395752	1832.676636	32.336121
275.407593	909.391052	3769.525391	1849.766235	32.878708
275.779907	911.843018	3831.568359	1898.731812	33.800739
276.152161	917.341370	3925.932861	1921.171021	33.365437
276.524384	915.632385	4015.319092	1947.177124	33.278996
276.896606	914.889404	4067.628174	1937.443481	32.433834
277.268799	916.672668	4114.661621	1955.944824	32.497681
277.640930	909.465271	4123.949219	1954.310181	32.504284
278.013031	907.533447	4136.432617	1960.997437	32.626102
278.385162	907.310547	4116.073730	1957.431030	32.726643
278.757233	907.904968	4103.516602	1964.786743	33.072914
279.129272	901.737793	4085.535156	1974.669312	33.699741
279.501282	893.416016	4097.200684	1991.238647	34.266430
279.873230	895.199219	4162.141113	2022.223022	34.497822
280.245178	897.948425	4276.790039	2073.863281	34.802307
280.617126	901.589172	4452.070313	2144.079346	34.994980
280.988983	896.388000	4626.607422	2203.001221	35.027786
281.360870	908.647949	4806.791504	2265.489990	34.807392
281.732697	906.567444	4952.499512	2300.932373	34.463379
282.104492	914.889465	5077.179199	2329.984619	33.998001
282.476288	904.487122	5152.967773	2328.572998	33.519890
282.848053	912.363098	5184.026855	2329.984619	33.186638
283.219757	905.898743	5212.261230	2330.207764	33.074532
283.591461	912.288757	5168.868652	2325.823975	33.208237
283.963135	910.951355	5133.129395	2337.637939	33.790295
284.334747	920.239258	5094.343262	2366.095947	34.638733
284.706360	913.849121	5159.729492	2416.770508	35.397167
285.077942	921.799561	5298.007324	2469.970947	35.377007
285.449524	926.406311	5453.820313	2512.175049	35.025928
285.821014	924.846008	5558.214844	2510.763184	34.228168
286.192535	913.180420	5681.260254	2528.967529	33.887585
286.563995	900.325989	5760.169922	2515.815674	33.241600
286.935425	893.936035	5813.890625	2528.075928	33.214531
287.306824	898.171326	5744.343750	2483.791260	32.719017
287.678223	898.691406	5625.458984	2453.921631	32.902618
288.049561	913.106140	5498.550293	2416.324707	32.782394
288.420898	906.716125	5361.535645	2391.061768	33.319996
288.792145	913.106140	5330.551758	2412.238037	33.936623
289.163452	907.533447	5360.940918	2452.732666	34.697010
289.534668	914.666504	5490.302246	2518.490723	35.051395
289.905914	908.499329	5628.951172	2570.502686	35.208569
290.277039	915.186584	5819.240234	2640.495605	35.181286
290.648193	923.434265	6011.089844	2685.077393	34.625832
291.019318	919.198914	6128.860840	2691.838867	34.026005
291.390381	909.911133	6132.649902	2642.799072	33.179680
291.761475	900.177490	6028.031250	2595.914307	33.069134
292.132507	903.075195	5926.533203	2559.877197	32.981304
292.503510	901.217712	5821.395020	2562.700439	33.768757
292.874481	930.492981	5818.274902	2606.762451	34.295097
293.245422	937.551758	5825.036621	2659.740234	35.236702
293.616364	944.833313	5943.846191	2723.269287	35.575745
293.987213	922.245300	6109.838379	2774.389404	35.703339
294.358093	922.393982	6327.248535	2837.472412	35.432560
294.728943	906.864746	6551.939453	2889.335693	35.118595
295.099731	897.799805	6726.550781	2946.697266	35.151569
295.470490	896.908203	6901.607910	3003.018799	35.074371
295.841248	914.963684	7013.359375	3063.427002	35.229977
296.211975	909.688171	7130.980957	3115.215820	35.451275
296.582642	902.852356	7278.992188	3188.626953	35.848881
296.953308	896.685242	7435.175781	3209.357422	35.370121
297.323883	903.149597	7541.280762	3198.137695	34.572803
297.694519	910.579895	7536.673340	3122.274658	33.378563
298.065063	921.576660	7448.327637	3078.658936	33.049862
298.435608	922.468323	7245.555176	3001.904297	32.886406
298.806122	921.353821	6955.626465	2930.053467	33.288185
299.176575	913.700623	6618.812500	2823.503662	33.475296
299.547028	918.158691	6387.433594	2763.689697	33.743614
299.917450	912.883240	6240.314453	2710.786377	33.748032
300.287872	902.629456	6169.206543	2701.349854	34.153500
300.658234	894.158936	6097.058594	2700.606689	34.720020
301.028564	902.109375	6028.848145	2701.201172	35.092323
301.398865	910.431335	5983.671875	2682.922607	34.938046
301.769135	913.997864	5929.134277	2650.749756	34.630203
302.139374	909.539551	5905.580078	2632.991455	34.496357
302.509583	899.731628	5867.686035	2612.483643	34.475998
302.879791	899.657410	5801.259277	2573.251709	34.143822
303.249939	898.319885	5683.415527	2546.874268	34.451859
303.620087	902.257874	5572.778809	2528.521484	34.819748
303.990173	894.976257	5505.236816	2527.406982	35.408642
304.360260	899.657410	5487.181641	2519.085205	35.300690
304.730286	901.812195	5474.772949	2508.533936	35.135258
305.100281	906.493164	5451.813477	2502.366943	35.110260
305.470276	903.595398	5439.182129	2510.317627	35.424789
305.840179	902.257996	5457.758301	2529.561768	35.721733
306.210144	900.846191	5479.751465	2545.611328	35.920490
306.579987	906.641785	5514.971191	2547.097168	35.597614
306.949890	906.641846	5544.915527	2558.168213	35.606491
307.319702	919.124695	5629.471191	2610.774658	35.913490
307.689484	918.307373	5705.854980	2666.873291	36.523205
308.059265	923.582825	5815.153809	2733.448486	36.999683
308.429016	915.335266	5939.759277	2763.244141	36.778522
308.798737	906.270325	6100.921875	2800.246826	36.460129
309.168396	897.725525	6236.003906	2823.057617	36.066536
309.538055	894.902039	6307.854980	2845.051514	36.027458
309.907684	891.335449	6332.226563	2845.051514	35.908016
310.277313	894.084656	6350.207520	2841.335938	35.689285
310.646851	899.285828	6375.990723	2838.215576	35.403214
311.016388	916.747009	6373.018066	2844.902588	35.338337
311.385895	940.003723	6321.006348	2837.620850	35.265125
311.755371	935.099792	6255.025879	2801.435547	35.081985
312.124817	923.657043	6190.605469	2761.014893	34.884678
312.494232	912.288757	6134.655762	2723.789063	34.687340
312.863617	912.660339	6056.043457	2719.925293	35.137669
313.232971	918.084412	6013.765137	2724.234619	35.444729
313.602295	909.836731	5988.725098	2754.624756	36.322678
313.971619	916.226807	6035.164063	2784.717041	36.501526
314.340820	909.465332	6053.368652	2804.555908	36.841488
314.710083	917.787292	6120.761230	2804.556396	36.263279
315.079285	925.217468	6143.571777	2785.534912	35.649502
315.448486	932.424805	6164.153809	2748.680420	34.716164
315.817596	930.418640	6057.678223	2683.145508	34.184475
316.186707	919.421875	5878.831543	2615.827393	34.205795
316.555786	913.626221	5678.957031	2562.700928	34.605671
316.924866	906.270264	5527.825684	2533.277100	35.204742
317.293884	904.487000	5444.680176	2523.692139	35.663792
317.662872	910.208313	5422.463867	2531.196533	35.924126
318.031830	905.750183	5412.953125	2547.097412	36.416092
318.400757	910.059753	5470.240723	2578.453125	36.586121
318.769684	905.378662	5513.707520	2595.393799	36.673058
319.138550	902.555176	5573.075684	2597.771729	36.296093
319.507416	904.635559	5574.041504	2582.242432	35.927631
319.876190	900.920471	5539.862793	2553.561768	35.625389
320.244995	926.926453	5502.859375	2536.769287	35.180645
320.613770	923.954407	5431.603027	2519.531006	35.397095
320.982483	927.446594	5394.525879	2515.518799	35.550575
321.351166	909.316711	5323.938477	2522.577393	36.543579
321.719818	904.115540	5313.387207	2548.583496	37.295685
322.088440	898.914307	5345.188965	2609.660400	38.475945
322.457062	897.205383	5483.169434	2685.003174	38.984123
322.825623	907.681946	5640.690918	2762.054932	39.179581
323.194183	900.846191	5805.791504	2830.933594	39.349827
323.562653	902.629456	5951.201660	2880.196289	39.170815
323.931183	897.799805	6072.390137	2896.691406	38.628983
324.299591	901.069153	6156.277344	2879.527588	37.647575
324.668060	894.530518	6184.586426	2839.552734	36.767517
325.036407	887.100281	6180.945801	2797.720459	36.091347
325.404755	893.564514	6122.023438	2753.881592	35.580601
325.773102	898.542786	6038.285156	2713.832275	35.318687
326.141388	912.288879	5954.248535	2693.324951	35.324284
326.509674	913.997803	5867.537598	2663.752441	35.323318
326.877899	916.598389	5798.287109	2643.690918	35.378998
327.246124	912.660339	5736.541504	2611.294922	35.213024
327.614288	919.570374	5696.715332	2591.381836	34.996040
327.982422	921.799500	5648.121094	2572.657471	34.929020
328.350525	926.629211	5593.360840	2582.465576	35.481716
328.718628	919.273254	5554.128418	2589.078369	36.027130
329.086700	925.960510	5576.642090	2620.136719	36.428558
329.454712	913.626282	5621.520996	2634.179932	36.546139
329.822693	919.867676	5664.765137	2677.572754	37.044109
330.190674	916.672668	5688.021973	2692.210449	37.212490
330.558563	921.205078	5712.542480	2703.801758	37.204575
330.926483	919.421875	5753.705566	2726.687012	37.384342
331.294312	902.778015	5820.652344	2763.689697	37.839752
331.662231	901.143372	5932.106934	2826.624023	38.272606
332.029999	898.171204	6068.600098	2871.205811	38.159981
332.397766	907.830566	6171.509766	2907.168213	37.983654
332.765503	908.945129	6266.319824	2934.883057	37.815872
333.133240	897.948425	6337.427734	2943.502197	37.605690
333.500916	888.883484	6410.170410	2943.651123	37.215374
333.868561	885.911316	6418.121094	2934.214600	37.025043
334.236176	890.220886	6403.631348	2919.502686	36.806286
334.603790	894.679016	6371.830078	2901.223877	36.634830
334.971344	890.815247	6325.019531	2880.939453	36.622185
335.338867	886.431458	6280.883301	2863.701172	36.653767
335.706360	882.047607	6240.611816	2861.546143	36.940838
336.073853	885.093933	6235.187500	2853.150146	36.785450
336.441284	892.301331	6254.506348	2872.320313	36.925465
336.808655	905.304382	6271.149902	2901.298096	37.198120
337.176086	903.298157	6282.740234	2933.619873	37.742237
337.543396	912.660339	6262.307129	2951.081055	38.103836
337.910706	903.223938	6227.310547	2951.006836	38.462616
338.277954	912.585999	6200.413574	2951.229736	38.553524
338.645264	899.285828	6163.484863	2925.075195	38.482384
339.012421	904.189880	6154.643066	2886.735107	37.759506
339.379669	900.697571	6143.794922	2840.667236	37.000454
339.746796	917.638672	6156.872559	2818.004883	36.271835
340.113953	922.096741	6155.014160	2801.583984	35.916626
340.481018	922.245361	6161.998535	2778.921875	35.434429
340.848114	913.923523	6187.484863	2765.770264	35.115673
341.215118	905.378723	6235.113281	2776.024170	35.098289
341.582153	904.041260	6336.610840	2855.899170	35.928818
341.949066	907.756348	6446.355469	2950.932617	36.889767
342.316010	905.675964	6579.431152	3069.891357	38.144318
342.682922	908.202148	6680.408691	3165.221436	39.101498
343.049835	899.360168	6832.432129	3301.121094	40.480904
343.416656	920.462097	7059.576172	3468.599609	41.506599
343.783478	918.827454	7329.814941	3610.220703	41.980949
344.150269	929.527039	7623.458984	3703.024658	41.433010
344.516998	915.781006	7835.593262	3693.588135	40.142811
344.883728	918.455872	7989.771484	3658.368896	38.746864
345.250427	911.099915	8009.907715	3599.298096	37.868305
345.617065	904.041199	7931.518066	3517.788086	37.193245
345.983704	898.765686	7788.337402	3438.432617	36.862480
346.350281	893.936035	7631.335938	3359.671875	36.597736
346.716827	894.158936	7477.008301	3301.864258	36.575428
347.083405	893.713074	7321.269531	3255.202148	36.740074
347.449860	943.570129	7217.171875	3262.706787	36.966591
347.816376	955.087097	7105.197266	3282.248047	37.839336
348.182770	957.613342	7019.080566	3284.774658	38.392708
348.549194	915.929626	6950.871094	3256.390869	38.781837
348.915558	909.316711	6985.718750	3263.969971	38.750782
349.281921	901.663574	7014.994629	3306.396729	39.335888
349.648193	900.623291	7067.823730	3326.607178	39.336876
350.014526	897.056702	7104.900391	3349.195068	39.500648
350.380737	904.338440	7205.803223	3357.591064	38.931465
350.746948	911.025696	7281.443848	3397.046143	39.024448
351.113159	908.945251	7347.796875	3418.965088	38.982414
351.479309	903.743958	7375.511230	3454.705078	39.416763
351.845428	894.233215	7443.795410	3487.323975	39.591820
352.211517	896.833801	7541.503418	3551.001221	39.944313
352.577576	893.415955	7650.728516	3613.712891	40.257084
352.943604	897.948425	7763.891113	3689.501953	40.657978
353.309601	911.174255	7892.583984	3766.628174	40.900822
353.675537	916.746887	8095.875488	3839.667236	40.714142
354.041473	911.099915	8287.130859	3911.295166	40.674931
354.407379	894.233215	8473.705078	3963.158203	40.489960
354.773254	901.143372	8631.969727	4038.501221	40.582439
355.139038	908.276367	8808.736328	4127.441895	40.746559
355.504913	924.994446	9056.907227	4268.319824	41.113644
355.870636	914.072083	9305.003906	4386.684082	41.385300
356.236389	902.332214	9583.267578	4527.265137	41.757401
356.602081	889.552185	9840.429688	4633.145996	41.823761
356.967804	886.580078	10105.615234	4729.813965	41.688026
357.333405	891.706970	10356.981445	4773.207031	41.007793
357.699036	889.626465	10550.912109	4768.896973	40.152737
358.064606	896.982422	10705.981445	4743.262695	39.211750
358.430176	899.360168	10762.600586	4705.294434	38.587059
358.795654	894.901917	10783.851563	4722.012207	38.700878
359.161163	902.926697	10790.686523	4809.094727	39.505085
359.526581	905.304382	10874.723633	4992.251465	40.994835
359.892029	927.298035	11124.973633	5262.267090	42.509384
360.257416	916.375488	11525.762695	5538.970703	43.570805
360.622772	912.140198	12030.129883	5772.429688	43.715546
360.988098	891.632629	12542.893555	5905.580566	43.033520
361.353394	895.199219	12967.756836	5974.458984	42.072773
361.718658	900.697571	13274.625977	5915.908203	40.530460
362.083893	897.651184	13320.026367	5719.229004	38.813652
362.449097	903.446777	13148.460938	5411.021484	36.811512
362.814209	900.251770	12707.918945	5084.015137	35.432598
363.179382	912.214539	12084.222656	4771.200684	34.541561
363.544434	910.208313	11382.285156	4560.478027	34.857170
363.909546	907.161926	10700.186523	4403.847656	35.705883
364.274536	903.966858	10209.268555	4347.674805	37.008022
364.639587	897.725525	9859.079102	4289.347168	37.847202
365.004517	896.610901	9645.606445	4266.388184	38.516163
365.369507	894.604797	9484.221680	4229.682129	38.826847
365.734344	901.291992	9389.486328	4223.664063	39.141094
366.099274	903.149597	9327.889648	4202.339355	39.160728
366.464081	910.579834	9267.109375	4169.645996	39.000237
366.828918	910.208313	9208.633789	4142.005371	38.944702
367.193665	908.350769	9142.057617	4118.376465	38.986397
367.558411	913.700500	9066.121094	4106.934082	39.169147
367.923126	909.019531	8962.393555	4052.470459	39.032719
368.287781	919.124695	8876.500977	4026.687500	39.052605
368.652435	911.694336	8802.717773	4006.105469	39.214321
369.017059	919.198975	8770.098633	4022.749268	39.531143
369.381653	929.452698	8744.613281	4044.445313	39.858334
369.746185	927.000732	8746.916016	4073.646484	40.238873
370.110687	921.279358	8757.318359	4103.070313	40.604584
370.475220	900.474670	8813.714844	4134.872559	40.873245
370.839661	902.852356	8892.773438	4180.122559	41.017555
371.204041	902.480896	8983.347656	4212.964355	40.966934
371.568451	904.932861	9020.127930	4219.948730	40.849491
371.932770	900.251770	9051.855469	4190.450684	40.362598
372.297150	906.716064	9039.669922	4167.937012	40.098850
372.661377	906.418884	9034.542969	4160.952637	40.040405
373.025696	905.601563	9033.798828	4178.116211	40.261261
373.389862	897.131104	9046.282227	4200.035645	40.530655
373.754059	906.270325	9084.845703	4256.134277	40.959019
374.118225	911.322937	9139.235352	4321.371582	41.444885
374.482361	911.322815	9262.651367	4420.788574	42.022846
374.846436	895.942200	9437.411133	4501.704590	42.214783
375.210510	891.781250	9663.440430	4646.520508	42.805347
375.574524	904.561340	9939.698242	4798.544434	43.098221
375.938538	919.273254	10226.877930	4964.610840	43.462715
376.302460	925.663269	10520.967773	5092.931641	43.430290
376.666412	922.022461	10798.414063	5151.705078	42.826195
377.030304	916.449768	10997.397461	5150.961914	42.005104
377.394196	907.830750	11117.618164	5086.689941	40.929935
377.757996	909.762512	11102.238281	4984.375488	39.976677
378.121796	902.778076	11007.426758	4830.717285	38.872597
378.485565	907.161926	10803.837891	4679.882324	38.121086
378.849304	893.936096	10527.877930	4555.871094	38.010769
379.212982	896.090820	10239.731445	4506.237305	38.637470
379.576630	901.069092	9967.487305	4477.779785	39.450096
379.940277	911.322754	9808.999023	4483.946777	40.152328
380.303864	915.112305	9687.069336	4461.729980	40.431316
380.667450	905.675842	9664.851563	4456.825684	40.542057
381.030945	900.549011	9615.664063	4447.314453	40.696712
381.394501	903.223877	9632.159180	4478.745117	40.961708
381.757935	920.684998	9651.253906	4528.453613	41.323406
382.121399	917.341370	9678.300781	4596.292480	41.992561
382.484741	918.232971	9814.943359	4694.297363	42.443382
382.848145	907.013367	9911.686523	4748.390137	42.659813
383.211487	910.059753	10057.169922	4816.822266	42.710346
383.574768	901.514954	10163.645508	4824.995605	42.360455
383.938019	893.490234	10257.415039	4846.171875	42.211803
384.301270	900.549011	10363.668945	4848.401367	41.718296
384.664459	903.223816	10404.387695	4854.716309	41.589561
385.027649	908.573730	10450.602539	4877.602051	41.595222
385.390778	905.081482	10534.491211	4914.010254	41.632133
385.753876	913.997803	10579.815430	4956.511719	41.822784
386.116943	912.065918	10660.731445	5001.836426	41.952103
386.479980	913.403320	10702.934570	5018.777832	41.936375
386.842987	915.706726	10786.600586	5052.733887	41.911377
387.205994	926.257629	10848.866211	5047.309570	41.531940
387.568909	920.759277	10897.832031	5042.554199	41.312672
387.931793	911.322937	10903.924805	4999.458496	40.911625
388.294678	897.502625	10875.540039	4994.480469	41.059959
388.657471	904.858459	10818.475586	4983.780762	41.144642
389.020294	913.180481	10790.389648	5045.229004	41.834171
389.383057	925.514709	10870.338867	5121.612305	42.193783
389.745819	924.251648	10971.465820	5249.858887	43.052807
390.108521	924.697327	11129.061523	5375.355957	43.615246
390.471191	915.706726	11325.963867	5519.503418	44.223663
390.833801	913.031799	11560.760742	5626.945313	44.271542
391.196442	909.093750	11813.612305	5700.132813	43.936272
391.558960	914.666504	11999.071289	5730.002441	43.442444
391.921509	914.517883	12152.878906	5720.863281	42.767315
392.284027	914.815125	12240.407227	5686.832520	42.134819
392.646484	908.796570	12233.348633	5649.087402	41.858532
393.008911	900.846191	12128.210938	5624.419434	42.071964
393.371307	900.623291	12053.164063	5661.644531	42.690014
393.733673	904.561279	11995.133789	5677.619629	43.037083
394.096008	902.778015	11972.174805	5670.708984	43.073090
394.458344	903.521057	11916.745117	5617.434082	42.802299
394.820587	899.211487	11816.510742	5530.500000	42.421562
395.182831	907.161926	11694.950195	5433.237793	41.955547
395.545013	894.976257	11463.645508	5323.938477	41.906528
395.907196	902.629395	11216.070313	5275.566895	42.400372
396.269287	901.589172	10985.136719	5255.951660	43.182838
396.631409	903.669739	10841.732422	5261.747070	43.852383
396.993469	902.109375	10705.461914	5256.396973	44.416313
397.355530	906.047363	10617.933594	5281.882813	45.056492
397.717499	916.152588	10563.469727	5322.378418	45.673065
398.079468	914.294983	10576.769531	5360.718262	46.017437
398.441376	915.483887	10591.333008	5400.916016	46.356983
398.803284	901.217773	10591.926758	5409.386719	46.520527
399.165131	899.954590	10618.602539	5447.949707	46.796581
399.526978	894.307556	10591.778320	5469.794922	47.182274
399.888763	900.920471	10574.614258	5515.044922	47.697651
400.250519	903.000977	10546.900391	5547.515137	48.160126
400.612244	926.109131	10580.485352	5622.857910	48.648914
400.973938	931.236084	10573.425781	5707.266113	49.532631
401.335602	930.864502	10628.484375	5798.064453	50.189636
401.697205	920.907959	10748.408203	5943.177246	51.104244
402.058807	909.019531	10938.698242	6061.987793	51.377201
402.420349	905.601563	11183.377930	6274.864746	52.241486
402.781860	892.970032	11431.770508	6450.145020	52.730618
403.143341	897.279602	11783.296875	6696.830566	53.275230
403.504822	904.189880	12102.948242	6878.277344	53.345978
403.866241	910.951355	12466.065430	7032.083984	52.973366
404.227631	915.929688	12724.489258	7136.701660	52.680195
404.588959	916.301086	12957.502930	7210.261719	52.270199
404.950287	909.911133	13037.898438	7244.218262	52.228840
405.311554	898.988586	12990.790039	7236.936035	52.415241
405.672821	902.109314	12796.192383	7209.815918	53.032307
406.034027	902.034973	12520.901367	7165.382813	53.906704
406.395203	912.214539	12162.464844	7100.442871	55.005253
406.756348	906.047363	11898.614258	7058.386719	55.968182
407.117493	899.880310	11731.507813	7075.699707	57.016541
407.478516	894.976318	11712.411133	7138.336426	57.715721
407.839600	896.239502	11718.132813	7248.378906	58.697117
408.200592	914.072083	11769.104492	7359.981934	59.381763
408.561554	927.000793	11837.612305	7485.998535	60.115765
408.922485	925.737610	11906.120117	7611.718750	60.890236
409.283417	918.455994	11904.113281	7720.943848	61.921535
409.644257	911.174316	12015.269531	7848.373047	62.474236
410.005096	917.712891	12136.382813	7935.455566	62.554142
410.365906	917.564270	12239.589844	7977.808594	62.358490
410.726715	911.843018	12299.776367	7997.201660	62.218121
411.087433	908.796570	12285.211914	7985.462402	62.204712
411.448120	911.025635	12303.266602	7975.208496	62.008717
411.808807	918.158691	12223.762695	7965.326172	62.333405
412.169434	913.180420	12124.495117	7959.753906	62.852337
412.530029	919.124695	12070.031250	8043.566895	63.891151
412.890564	918.678772	12074.118164	8123.144531	64.582535
413.251099	930.864563	12149.981445	8265.954102	65.380272
413.611572	925.589050	12250.809570	8383.426758	65.851593
413.972076	928.561218	12352.828125	8517.691406	66.429916
414.332489	918.307312	12456.851563	8622.236328	66.766907
414.692871	919.124695	12644.762695	8802.940430	67.235710
415.053223	913.403320	12816.327148	8992.115234	67.871658
415.413574	918.753113	13098.159180	9218.961914	68.149536
415.773834	910.877136	13317.203125	9414.154297	68.539848
416.134094	914.815125	13573.250000	9632.233398	68.866478
416.494263	912.437439	13785.606445	9869.555664	69.579742
416.854462	913.329102	14104.809570	10134.890625	69.905434
417.214630	912.734619	14507.382813	10467.841797	70.285797
417.574738	911.991638	14923.924805	10794.179688	70.526947
417.934784	920.759277	15379.325195	11189.172852	71.019585
418.294861	925.737610	15869.128906	11625.551758	71.602318
418.654846	926.034851	16473.359375	12101.536133	71.880539
419.014832	921.650940	17082.789063	12610.583008	72.327408
419.374756	911.471497	17770.089844	13130.182617	72.477531
419.734680	925.663330	18478.269531	13710.559570	72.837601
420.094543	922.616882	19158.361328	14129.925781	72.425392
420.454376	932.499207	19696.091797	14411.160156	71.834122
420.814148	918.901794	20134.328125	14547.655273	70.926109
421.173920	916.375488	20535.265625	14718.031250	70.348808
421.533691	912.734558	20895.486328	14834.984375	69.671333
421.893341	906.641785	21112.525391	14889.522461	69.202026
422.253021	906.493164	21196.041016	14839.739258	68.672043
422.612640	903.669739	21102.566406	14812.915039	68.861412
422.972260	914.072083	21003.595703	14834.984375	69.294388
423.331757	916.969910	20997.281250	14896.506836	69.618134
423.691315	935.174011	21132.212891	15028.765625	69.780487
424.050781	936.362976	21289.662109	15067.254883	69.428017
424.410248	935.619873	21259.197266	14983.961914	69.123367
424.769653	925.663330	21172.783203	14724.497070	68.152084
425.128998	923.062683	21007.757813	14435.903320	67.279289
425.488373	918.753174	20691.599609	14061.195313	66.467125
425.847656	911.991638	20280.035156	13731.215820	66.187508
426.206940	912.585999	19863.568359	13386.452148	65.821739
426.566193	918.455872	19422.580078	13116.584961	65.921135
426.925385	917.044128	18952.617188	12761.640625	65.673531
427.284576	916.672668	18363.396484	12435.526367	66.023018
427.643677	915.558105	17918.099609	12156.073242	66.110802
428.002777	918.455994	17568.876953	12009.102539	66.608803
428.361847	928.561096	17198.330078	11862.354492	67.203125
428.720856	927.892395	16834.619141	11685.440430	67.628922
429.079865	926.406311	16554.423828	11574.653320	68.135620
429.438812	915.558105	16395.861328	11529.479492	68.564049
429.797760	925.960510	16313.161133	11539.434570	68.975990
430.156616	933.390808	16142.637695	11443.734375	69.104958
430.515503	933.613770	16039.729492	11368.911133	69.079948
430.874268	920.833679	15964.385742	11363.262695	69.414650
431.233093	906.939148	15989.425781	11442.692383	69.854218
431.591827	897.354004	16063.726563	11551.546875	70.248787
431.950562	907.013367	16177.932617	11686.778320	70.590149
432.309204	908.722229	16261.225586	11793.105469	70.896469
432.667877	917.044128	16456.789063	11947.059570	70.979385
433.026459	920.833679	16724.724609	12040.458008	70.360039
433.385010	920.982239	17052.029297	12107.924805	69.350380
433.743561	923.434265	17491.306641	12137.870117	67.687843
434.102051	920.313477	17951.759766	12182.526367	66.125999
434.460510	926.852112	18523.593750	12306.981445	64.671791
434.818939	921.428040	18933.375000	12349.483398	63.447086
435.177338	922.468262	19300.652344	12354.536133	62.204559
435.535675	926.109131	19484.476563	12314.487305	61.365192
435.894012	937.477539	19509.144531	12299.551758	61.179611
436.252289	932.424805	19423.697266	12415.242188	62.098576
436.610535	932.424805	19115.712891	12457.445313	63.382484
436.968719	937.700256	18830.388672	12623.809570	65.312210
437.326935	940.969666	18443.197266	12728.278320	67.347473
437.685028	936.214294	18181.576172	12938.852539	69.599228
438.043152	918.010193	17999.906250	13130.776367	71.495377
438.401215	914.666504	18058.607422	13375.307617	72.682472
438.759277	912.808899	18277.207031	13641.458008	73.303139
439.117249	928.932617	18728.076172	14014.903320	73.520226
439.475250	934.208069	19119.205078	14336.487305	73.699654
439.833130	940.672424	19600.091797	14683.332031	73.649979
440.191071	939.855042	19848.410156	14791.887695	73.258018
440.548889	944.164551	20131.429688	14861.807617	72.535828
440.906708	935.694092	20268.740234	14785.721680	71.639137
441.264496	923.508484	20354.785156	14691.208008	70.853287
441.622223	919.421875	20278.029297	14490.367188	70.102898
441.979950	921.279480	20108.619141	14244.277344	69.436401
442.337616	931.384583	19917.958984	14052.872070	69.109291
442.695251	931.756165	19658.419922	13912.960938	69.319366
443.052887	933.316467	19421.542969	13841.406250	69.817894
443.410461	920.313477	19274.201172	13898.620117	70.711487
443.768005	907.830627	19273.458984	14055.250000	71.587090
444.125458	916.375427	19360.169922	14301.565430	72.572868
444.482941	920.982239	19600.539063	14567.344727	73.055069
444.840393	928.412537	19919.443359	14943.762695	73.799843
445.197754	924.771667	20307.302734	15288.083008	74.104416
445.555084	928.189514	20631.634766	15596.214844	74.443962
445.912415	926.926453	21012.955078	15785.539063	73.974861
446.269714	921.205139	21316.931641	15891.047852	73.396957
446.626953	913.774902	21479.283203	15873.512695	72.741890
446.984161	906.864746	21586.501953	15735.161133	71.704826
447.341309	920.536438	21584.865234	15556.461914	70.827011
447.698456	931.384583	21607.751953	15367.510742	69.819450
448.055542	937.700378	21475.119141	15205.902344	69.474174
448.412598	935.619934	21205.328125	14962.488281	69.201134
448.769653	926.109192	20851.126953	14672.929688	68.992767
449.126617	931.979065	20390.451172	14313.156250	68.767868
449.483582	952.263733	20076.224609	14113.504883	68.820686
449.840515	962.888977	19642.445313	13870.981445	69.102776
450.197388	955.533020	19372.576172	13742.362305	69.429329
450.554230	937.254578	19133.023438	13604.828125	69.618233
450.911041	922.245422	19010.796875	13583.281250	69.994751
451.267822	923.582825	18944.220703	13626.747070	70.492310
451.624573	910.802795	18865.015625	13655.502930	70.984459
451.981262	914.889465	18808.619141	13610.178711	70.948250
452.337921	916.672668	18630.070313	13472.198242	70.881516
452.694580	916.078308	18387.841797	13217.636719	70.408226
453.051147	912.437500	18271.634766	13053.129883	69.938095
453.407715	918.901794	18037.654297	12775.980469	69.263687
453.764221	939.037781	17989.876953	12680.055664	68.858879
454.120728	948.474182	17609.000000	12412.492188	68.809464
454.477142	939.260681	17453.931641	12374.375000	69.242149
454.833557	928.932617	17202.195313	12276.370117	69.730560
455.189911	930.864502	17128.562500	12314.262695	70.277878
455.546265	937.105957	17054.853516	12309.507813	70.558258
455.902557	932.127625	17027.210938	12370.808594	71.069412
456.258820	923.731384	17120.166016	12523.872070	71.621567
456.615051	916.969910	17267.505859	12753.467773	72.392113
456.971252	931.236023	17363.951172	12992.053711	73.395157
457.327393	933.613708	17668.443359	13384.965820	74.403816
457.683502	943.718811	18111.882813	13887.625000	75.394821
458.039612	940.598145	18802.972656	14620.175781	76.583199
458.395630	957.019043	19571.412109	15371.523438	77.437408
458.751648	944.610413	20230.400391	16010.081055	78.116951
459.107605	936.585693	21055.904297	16550.263672	77.605400
459.463562	923.805664	21612.580078	16730.000000	76.399864
459.819458	927.075012	22010.544922	16674.125000	74.689079
460.175323	925.068848	22079.648438	16230.315430	72.349564
460.531158	931.533264	22060.404297	15713.093750	69.959061
460.886932	940.077942	21800.791016	15128.479492	68.014938
461.242676	944.684753	21358.392578	14611.778320	66.950569
461.598419	934.653870	20749.259766	14178.817383	66.840408
461.954102	927.669495	20090.341797	13765.842773	66.995735
462.309723	936.511536	19421.318359	13409.784180	67.478516
462.665344	938.666260	18817.164063	13144.448242	68.270737
463.020905	942.827148	18419.349609	13006.840820	69.029823
463.376373	936.660095	18171.771484	12982.246094	69.889809
463.731873	946.393799	17965.134766	12963.446289	70.610710
464.087341	948.251404	17821.654297	12977.713867	71.292458
464.442749	952.263672	17798.103516	13053.651367	71.836060
464.798126	943.718933	17787.849609	13141.476563	72.415474
465.153503	933.093567	17908.814453	13288.299805	72.781631
465.508820	914.146301	17917.283203	13389.127930	73.368706
465.864105	905.601563	18077.035156	13453.325195	73.073242
466.219330	909.985352	18322.826172	13618.871094	72.985718
466.574524	915.112305	18462.666016	13659.812500	72.629494
466.929657	920.907898	18509.328125	13595.836914	72.064056
467.284790	931.458923	18480.720703	13432.000000	71.231148
467.639893	938.071838	18459.023438	13250.700195	70.273743
467.994934	944.981995	18381.082031	13120.151367	69.827362
468.349945	941.192566	18193.617188	12953.416992	69.626305
468.704926	933.762268	18012.093750	12854.074219	69.797867
469.059875	939.632141	17796.542969	12761.269531	70.129326
469.414764	928.635437	17622.375000	12720.179688	70.634521
469.769653	939.706482	17494.279297	12696.700195	71.019615
470.124451	932.424805	17454.154297	12753.690430	71.549805
470.479248	938.591858	17398.947266	12755.770508	71.791756
470.834015	930.641541	17405.337891	12785.864258	71.960182
471.188721	930.344299	17521.025391	12943.756836	72.410599
471.543365	930.790222	17689.322266	13163.247070	72.992416
471.898010	919.496155	17851.080078	13363.418945	73.495323
472.252625	916.449768	18062.396484	13574.214844	73.823654
472.607178	917.787170	18304.474609	13746.747070	73.786110
472.961700	932.424866	18495.656250	13842.820313	73.508095
473.316193	937.774597	18664.695313	13876.254883	72.987755
473.670654	945.204895	18717.671875	13844.901367	72.582474
474.025055	952.932373	18822.439453	13892.898438	72.413666
474.379456	945.947937	18893.177734	13914.671875	72.260307
474.733795	943.644531	19005.595703	14029.394531	72.449257
475.088104	937.477356	19165.494141	14258.247070	73.078545
475.442383	953.080994	19306.001953	14519.643555	73.920448
475.796570	954.492859	19553.431641	14772.124023	74.292572
476.150787	962.814697	19910.529297	15055.143555	74.374825
476.504944	956.276062	20288.134766	15315.944336	74.279808
476.859070	962.071716	20602.880859	15555.200195	74.300041
477.213135	956.276062	20867.917969	15752.770508	74.310768
477.567200	943.347351	21241.365234	15990.168945	74.129509
477.921173	929.155518	21594.599609	16243.614258	74.106606
478.275146	924.251465	21942.859375	16429.296875	73.768181
478.629089	936.437195	22164.056641	16645.515625	74.003014
478.983002	942.307068	22569.599609	16990.580078	74.203804
479.336823	945.130615	23020.468750	17455.564453	74.791306
479.690643	942.158508	23555.521484	17982.150391	75.353638
480.044403	942.158508	24193.781250	18644.484375	76.133720
480.398163	940.672424	25081.404297	19536.265625	77.029945
480.751862	934.430969	26292.240234	20787.003906	78.289780
481.105499	938.889221	27875.408203	22509.416016	80.079117
481.459137	934.802551	30041.259766	25025.083984	82.766106
481.812744	936.660095	32919.519531	28371.822266	85.780830
482.166290	934.728210	36527.144531	32435.591797	88.504417
482.519806	941.118225	40667.738281	36726.945313	90.080223
482.873291	944.907715	45000.406250	40579.910156	89.966072
483.226715	934.802551	48905.531250	43369.753906	88.460091
483.580139	930.864441	51453.144531	44156.402344	85.557381
483.933502	934.282410	53310.496094	43635.984375	81.528809
484.286804	952.858093	54024.324219	41709.089844	76.794998
484.640106	956.201660	54379.937500	39429.332031	72.015053
484.993347	958.133545	53589.050781	36877.332031	68.247337
485.346558	943.644531	52336.312500	35038.636719	66.342133
485.699738	944.981934	50766.964844	34220.785156	66.789398
486.052887	939.334961	49286.707031	34307.796875	69.018150
486.405975	942.901550	48492.636719	35006.464844	71.637756
486.759064	944.907654	48174.917969	35799.347656	73.797234
487.112061	948.622803	48216.750000	36264.261719	74.713432
487.464996	950.257507	48168.000000	36025.894531	74.284866
487.817963	944.387634	48047.558594	35085.523438	72.481606
488.170868	938.443359	47545.343750	33551.910156	69.975624
488.523743	931.681824	46623.027344	31841.166016	67.648445
488.876587	931.458923	45321.609375	30339.953125	66.250038
489.229401	952.932312	43990.261719	29398.318359	66.094688
489.582153	959.099426	42744.347656	29161.218750	67.493004
489.934845	972.994141	41888.234375	29553.906250	69.853951
490.287537	954.195557	41594.363281	30465.601563	72.616348
490.640198	962.443176	41851.378906	31462.892578	74.593399
490.992798	949.291565	42161.812500	32040.375000	75.440872
491.345337	952.337952	42380.785156	31920.744141	74.751556
491.697876	954.641357	42166.574219	30931.107422	72.737343
492.050354	972.474060	41733.238281	29430.341797	69.816811
492.402832	967.792969	40638.910156	27419.931641	66.678581
492.755219	967.718689	39173.285156	25357.587891	63.838524
493.107605	950.108887	37126.542969	23382.843750	62.009247
493.459930	955.161438	35041.906250	21924.056641	61.516270
493.812225	946.468018	32845.218750	20831.064453	62.336597
494.164490	952.635193	31081.349609	20181.435547	63.822174
494.516724	948.474304	29680.742188	19768.833984	65.502518
494.868896	953.824036	28785.244141	19687.992188	67.313019
495.221039	951.446350	28234.068359	19778.789063	69.008553
495.573120	967.272766	27804.968750	19960.310547	70.770004
495.925201	999.668762	27686.679688	20211.455078	71.989281
496.277222	1006.876221	27663.421875	20375.515625	72.659973
496.629211	988.151855	27767.150391	20389.185547	72.448692
496.981140	949.365906	27679.250000	20263.689453	72.257416
497.333069	951.520569	27582.656250	20085.289063	71.847359
497.684967	955.235657	27456.562500	19816.460938	71.170868
498.036804	952.783752	27271.552734	19438.779297	70.238831
498.388580	944.016052	26968.767578	19038.658203	69.528587
498.740326	944.238953	26498.876953	18677.250000	69.392532
499.092072	946.393738	25990.203125	18305.812500	69.316208
499.443756	947.879700	25484.197266	17970.929688	69.378990
499.795410	957.093323	25080.734375	17679.068359	69.317787
500.147003	957.316223	24755.587891	17503.642578	69.527428
500.498566	957.018982	24384.445313	17302.281250	69.769775
500.850098	946.170898	23998.367188	17169.576172	70.376831
501.201599	945.947998	23667.794922	17017.552734	70.731941
501.553009	945.130615	23399.337891	16942.802734	71.245766
501.904449	947.062500	23249.767578	16873.777344	71.411583
502.255859	958.728027	23166.916016	16937.455078	71.949707
502.607178	960.882813	23161.640625	17015.695313	72.316505
502.958405	961.031433	23139.427734	17077.513672	72.667480
503.309692	951.520691	23141.656250	17095.271484	72.751930
503.660919	942.009827	23137.498047	17111.992188	72.852562
504.012115	951.743591	23196.716797	17119.345703	72.679802
504.363251	955.161438	23194.263672	17086.208984	72.534622
504.714294	960.585632	23204.740234	17012.794922	72.163719
505.065369	962.443115	23154.062500	16963.533203	72.104202
505.416443	963.854797	23085.111328	16852.599609	71.825691
505.767395	968.535950	23030.052734	16816.935547	71.837303
506.118317	966.083984	22954.935547	16813.666016	72.070984
506.469238	956.201721	22934.500000	16920.068359	72.634674
506.820160	947.879822	22911.541016	17040.287109	73.268326
507.170929	956.053040	23005.087891	17208.138672	73.708832
507.521729	960.511230	23168.333984	17379.853516	73.934944
507.872498	967.867249	23380.912109	17614.500000	74.272072
508.223236	970.022156	23626.630859	17842.087891	74.468628
508.573883	973.068542	23815.509766	18046.273438	74.743347
508.924500	968.313049	24066.875000	18200.154297	74.601357
509.275116	958.653748	24209.388672	18288.203125	74.533340
509.625702	963.186218	24443.218750	18457.984375	74.509262
509.976196	974.257324	24619.093750	18573.080078	74.429878
510.326660	974.628723	24876.328125	18767.751953	74.442924
510.677124	969.130371	25103.916016	18867.541016	74.160225
511.027557	975.074707	25269.759766	19015.923828	74.258423
511.377869	970.170715	25407.962891	19096.619141	74.173836
511.728180	972.845520	25446.304688	19148.630859	74.267334
512.078430	962.368835	25527.814453	19125.224609	73.936600
512.428650	956.573242	25577.744141	19042.300781	73.455994
512.778931	954.418457	25599.367188	18931.369141	72.943756
513.129028	954.344177	25545.500000	18776.818359	72.475136
513.479126	951.520691	25422.228516	18634.529297	72.261940
513.829285	945.576416	25286.775391	18515.271484	72.180893
514.179382	936.660095	25112.388672	18466.826172	72.511429
514.529297	944.684875	25025.677734	18493.798828	72.875374
514.879272	945.353516	25049.974609	18623.679688	73.339989
515.229187	957.093323	25076.351563	18737.140625	73.717224
515.579163	948.102722	25239.669922	19027.439453	74.426392
515.928955	953.155273	25460.646484	19392.119141	75.238075
516.278748	942.827209	25904.009766	19986.318359	76.292419
516.628540	966.158264	26458.009766	20646.943359	77.204224
516.978333	975.297607	27112.912109	21376.150391	78.051704
517.327942	978.492615	27846.802734	22072.515625	78.508934
517.677612	965.712463	28534.843750	22585.130859	78.418930
518.027222	951.446289	29116.562500	22925.806641	78.019768
518.376831	943.793152	29659.044922	22994.240234	76.790016
518.726379	941.192566	29974.013672	22833.896484	75.406738
519.075867	936.660095	30041.259766	22376.562500	73.664993
519.425293	962.071594	29887.007813	21906.820313	72.410698
519.774658	961.551514	29546.474609	21345.312500	71.309486
520.124084	968.907471	29154.380859	20923.720703	70.798218
520.473389	944.238953	28607.212891	20485.037109	70.638817
520.822693	948.102722	28086.947266	20231.294922	71.053841
521.171997	959.991211	27696.859375	20073.326172	71.486816
521.521240	978.418213	27387.759766	20034.541016	72.156754
521.870361	984.659668	27232.914063	20102.082031	72.833122
522.219482	974.108582	27102.068359	20246.748047	73.762512
522.568604	958.356445	27168.343750	20444.394531	74.345848
522.917664	955.087158	27291.091797	20767.462891	75.229240
523.266724	959.991150	27653.390625	21238.986328	75.970078
523.615662	972.845520	28185.029297	21969.234375	77.158043
523.964600	976.412048	28963.943359	22844.447266	78.134918
524.313538	979.161316	29852.677734	23853.404297	79.222229
524.662354	972.102478	30878.130859	24902.333984	80.018089
525.011169	991.941345	31984.570313	25974.896484	80.609344
525.359985	979.458435	33157.957031	26988.085938	80.826103
525.708740	972.919739	34438.199219	28017.179688	80.812889
526.057434	946.616638	35792.218750	29245.328125	81.211716
526.406067	963.483398	37453.179688	30915.359375	82.083107
526.754700	972.845520	39428.371094	33176.167969	83.741722
527.103333	974.703125	41966.175781	35918.976563	85.247665
527.451782	953.675476	44739.750000	38823.250000	86.487717
527.800293	960.362610	47476.167969	41265.875000	86.649071
528.148743	955.235657	49683.781250	42726.144531	85.721642
528.497131	959.991150	51176.519531	42829.945313	83.378830
528.845642	948.622864	51759.644531	41619.703125	80.043816
529.193909	955.310120	51615.941406	39367.734375	75.823029
529.542175	955.830261	50655.656250	36503.589844	71.524918
529.890503	967.124207	49058.371094	33631.566406	67.921806
530.238770	960.585510	46798.011719	31071.765625	65.691254
530.586914	962.591797	44515.281250	29349.798828	65.179001
530.934998	968.238770	42309.675781	28298.193359	66.107895
531.283142	971.805359	40789.746094	28229.091797	68.454788
531.631226	978.566895	39625.937500	28704.849609	71.741707
531.979248	971.285156	39238.449219	29698.351563	75.069756
532.327148	974.851746	39268.839844	30607.517578	77.382034
532.675110	976.040527	39597.925781	31206.623047	78.273186
533.023071	957.984924	39875.222656	31260.267578	77.863396
533.370850	959.471008	39943.136719	30752.929688	76.425499
533.718689	954.418457	39863.035156	29845.919922	74.254761
534.066467	973.588562	39399.460938	28630.101563	71.973679
534.414246	964.077820	38582.578125	27428.406250	70.349236
534.761963	960.288391	37667.316406	26498.951172	69.574310
535.109619	957.762146	36813.730469	26021.037109	69.899872
535.457153	962.517517	36083.781250	25872.208984	70.924812
535.804749	965.118103	35461.863281	25839.958984	72.107788
536.152344	961.328613	35003.863281	25702.203125	72.676361
536.499817	961.031433	34493.183594	25376.906250	72.813324
536.847229	965.043701	34023.808594	24869.343750	72.308510
537.194641	963.186096	33563.433594	24261.919922	71.467964
537.542114	971.953857	33276.843750	23657.763672	70.224075
537.889404	965.712463	32902.359375	23158.226563	69.489182
538.236694	978.641113	32583.228516	22850.390625	69.204353
538.583984	975.223145	32425.853516	22969.349609	69.932228
538.931213	980.127136	32736.884766	23620.539063	71.293213
539.278381	970.616394	33644.714844	24890.224609	73.206635
539.625488	975.594727	35052.378906	26516.560547	74.951218
539.972595	982.207703	37010.707031	28533.804688	76.471672
540.319641	982.579285	39254.050781	30438.257813	76.965103
540.666687	982.579285	41694.972656	32076.781250	76.375267
541.013611	973.885742	43913.425781	32964.105469	74.500610
541.360596	974.257324	45408.324219	33144.437500	72.399811
541.707458	968.090149	46430.503906	32627.289063	69.638184
542.054260	968.610291	46668.644531	31519.882813	66.851753
542.401062	971.433777	46618.121094	30228.796875	64.095261
542.747864	971.136536	45844.855469	28670.744141	61.727905
543.094666	978.418152	44739.824219	27237.369141	60.004814
543.441284	980.795898	43209.636719	25783.119141	58.733143
543.787903	985.179749	41876.941406	24734.039063	58.077370
544.134460	976.412109	40771.316406	23814.544922	57.389587
544.481079	969.724854	40174.515625	23253.408203	56.839188
544.827637	967.792969	39738.285156	22829.437500	56.387329
545.174072	969.204773	39432.828125	22683.208984	56.453346
545.520508	981.390381	39183.316406	22640.335938	56.695953
545.866943	977.823792	38866.488281	22605.486328	57.082146
546.213318	985.031189	38499.136719	22455.544922	57.233173
546.559631	982.950684	37876.253906	22120.515625	57.293770
546.905823	981.464661	36955.496094	21589.398438	57.285583
547.252136	980.052917	35696.289063	20903.212891	57.388599
547.598389	974.777405	34135.636719	20110.476563	57.705681
547.944458	972.028137	32553.359375	19290.472656	58.004028
548.290588	974.851746	30931.851563	18445.501953	58.319092
548.636658	976.412048	29446.835938	17675.503906	58.654175
548.982727	984.659668	27990.205078	17049.650391	59.487747
549.328735	984.511047	26702.468750	16618.101563	60.788620
549.674622	986.294434	25564.298828	16251.416992	62.108879
550.020569	977.749512	24678.164063	16007.555664	63.415798
550.366455	971.656677	23909.353516	15801.885742	64.654396
550.712280	966.529846	23300.294922	15750.246094	66.194458
551.058044	973.142761	22864.728516	15771.348633	67.597687
551.403748	975.891907	22560.609375	15840.968750	68.868530
551.749512	976.114807	22372.328125	15968.026367	70.068062
552.095154	973.142761	22168.587891	16061.945313	71.188889
552.440735	978.418213	22095.328125	16119.456055	71.701012
552.786316	970.244934	21977.037109	16059.196289	71.828911
553.131897	967.644348	21824.121094	15876.485352	71.483025
553.477417	955.458679	21590.437500	15638.715820	71.157120
553.822815	957.687805	21311.283203	15356.291992	70.742317
554.168213	957.910645	21010.357422	15122.757813	70.639000
554.513672	963.186096	20655.859375	14863.812500	70.587807
554.859009	958.430847	20289.619141	14597.882813	70.556725
555.204285	966.975586	19919.000000	14388.573242	70.818810
555.549500	962.294617	19583.820313	14253.788086	71.377037
555.894714	966.529785	19295.154297	14171.090820	72.043381
556.239990	965.712402	19065.335938	14031.995117	72.190910
556.585022	985.774170	18843.095703	13945.582031	72.574196
556.930115	988.523438	18612.681641	13845.049805	72.948311
557.275146	983.842468	18407.904297	13797.495117	73.539978
557.620178	964.820984	18257.960938	13680.393555	73.529572
557.965149	963.483398	18166.794922	13603.268555	73.472977
558.310059	962.740417	18053.111328	13496.940430	73.340714
558.654968	966.752747	17898.634766	13442.476563	73.681847
558.999756	962.963318	17784.431641	13439.207031	74.168579
559.344604	958.876648	17743.490234	13491.218750	74.665657
559.689331	954.195557	17766.525391	13549.621094	74.917786
560.033997	957.613464	17781.906250	13577.187500	75.008049
560.378723	957.910645	17793.125000	13637.520508	75.315994
560.723389	965.043762	17817.125000	13658.028320	75.319977
561.067932	960.139832	17837.705078	13694.214844	75.449722
561.412476	958.356506	17798.398438	13661.670898	75.435173
561.757019	962.071594	17798.400391	13639.231445	75.296463
562.101501	965.563782	17782.796875	13589.522461	75.065613
562.445862	971.359436	17754.560547	13531.194336	74.835754
562.790222	956.647522	17688.283203	13488.098633	74.896751
563.134644	964.672180	17643.552734	13472.272461	74.990646
563.478943	964.969421	17657.224609	13521.088867	75.221222
563.823181	968.015869	17694.525391	13647.106445	75.802368
564.167358	963.186218	17778.113281	13827.661133	76.506271
564.511536	961.477234	17952.427734	14062.086914	77.103447
564.855774	958.133606	18145.244141	14303.347656	77.646637
565.199768	957.390625	18369.787109	14595.581055	78.324600
565.543823	951.743591	18576.794922	14828.965820	78.735786
565.887817	955.087158	18831.060547	15025.868164	78.713371
566.231812	959.545227	18995.863281	15033.596680	78.031731
566.575745	960.957092	19105.533203	14963.379883	77.171394
566.919617	961.179993	19092.380859	14768.706055	76.153404
567.263428	943.644592	18990.068359	14519.198242	75.225731
567.607239	938.591980	18865.982422	14313.973633	74.608635
567.950989	941.415527	18701.771484	14147.981445	74.359810
568.294678	948.697083	18602.353516	14099.239258	74.491890
568.638367	951.817871	18446.095703	13991.203125	74.535141
568.981995	944.833435	18302.839844	13976.491211	75.075783
569.325623	954.269836	18217.837891	13994.174805	75.534241
569.669128	970.244934	18208.548828	14119.596680	76.279839
570.012573	974.851746	18245.701172	14272.066406	76.992249
570.356140	978.269714	18381.228516	14470.604492	77.528969
570.699524	960.734192	18492.312500	14665.722656	78.173157
571.042908	955.532959	18726.142578	14893.237305	78.431213
571.386230	937.254578	18875.564453	15048.531250	78.665581
571.729492	961.031433	19082.720703	15154.784180	78.324669
572.072815	964.969421	19185.482422	15142.746094	77.812164
572.416016	978.641113	19228.798828	15068.218750	77.202499
572.759094	961.848694	19203.017578	14937.299805	76.614891
573.102234	959.693909	19113.779297	14795.379883	76.212517
573.445374	953.452454	19030.708984	14629.090820	75.651077
573.788391	948.548523	18910.710938	14533.686523	75.631973
574.131409	945.056335	18843.466797	14456.039063	75.487053
574.474365	938.146179	18780.162109	14430.331055	75.620293
574.817261	946.170715	18742.935547	14389.166992	75.536179
575.160156	954.715576	18672.423828	14256.090820	75.073898
575.502930	953.675354	18604.806641	14081.257813	74.372467
575.845703	945.427795	18544.175781	13864.590820	73.409561
576.188477	960.957031	18482.429688	13656.096680	72.454750
576.531250	967.570007	18309.455078	13392.692383	71.648048
576.873901	973.365723	18117.751953	13103.953125	70.755447
577.216431	946.170898	17918.771484	12824.278320	69.984009
577.559082	935.248352	17736.355469	12560.726563	69.194717
577.901611	925.811829	17516.642578	12322.364258	68.691879
578.244080	932.350586	17267.580078	12115.208008	68.458527
578.586487	947.656921	17082.716797	11993.500000	68.458641
578.928955	1058.962402	16975.275391	12322.883789	70.769669
579.271301	1067.432983	16760.763672	12182.301758	70.825432
579.613647	1060.448364	16448.617188	11987.332031	71.008347
579.955872	958.133606	16115.370117	11385.109375	68.792061
580.298157	954.344177	15878.194336	11274.694336	69.153404
580.640320	964.152100	15726.914063	11224.614258	69.502319
580.982483	962.740295	15528.301758	11159.153320	70.003571
581.324524	967.049988	15403.176758	11125.346680	70.367188
581.666626	962.888977	15302.644531	11057.433594	70.395515
582.008728	958.133606	15216.157227	11005.792969	70.470207
582.350647	944.016113	15121.198242	10926.289063	70.410843
582.692566	961.179993	15029.210938	10873.311523	70.458557
583.034424	963.334778	14948.816406	10843.739258	70.647583
583.376343	963.186096	14885.213867	10775.381836	70.479645
583.718201	944.016052	14855.120117	10774.563477	70.666908
584.059937	935.322571	14815.368164	10740.012695	70.638748
584.401611	935.842773	14793.300781	10723.442383	70.630554
584.743347	941.043945	14723.456055	10678.639648	70.652336
585.085022	939.112061	14684.594727	10642.006836	70.589699
585.426514	949.291504	14649.152344	10644.830078	70.771072
585.768127	938.220459	14686.824219	10636.063477	70.536926
586.109619	949.737366	14760.309570	10637.846680	70.149948
586.451172	945.427795	14795.825195	10656.125977	70.111336
586.792542	947.211121	14856.307617	10691.715820	70.058502
587.133850	945.056335	14891.898438	10725.819336	70.128868
587.475220	942.381348	14947.551758	10781.398438	70.252754
587.816589	946.319397	14925.856445	10803.689453	70.512848
588.157776	952.783752	14924.371094	10903.552734	71.221466
588.498962	951.520691	14897.398438	10941.596680	71.634613
588.840210	944.239014	14843.975586	11006.239258	72.389862
589.181335	951.520691	14829.114258	11027.192383	72.603882
589.522400	953.452576	14765.511719	11054.015625	73.128586
589.863403	966.083984	14727.320313	11029.347656	73.127617
590.204407	968.907471	14626.862305	10984.542969	73.331886
590.545410	965.712402	14626.268555	10917.150391	72.847961
590.886353	967.644348	14605.612305	10853.769531	72.489723
591.227112	949.811707	14583.543945	10755.022461	71.918755
591.567932	946.690918	14548.250000	10678.118164	71.546417
591.908752	941.638428	14528.635742	10627.221680	71.285675
592.249512	945.204895	14581.538086	10668.905273	71.307297
592.590149	948.102722	14600.187500	10679.233398	71.279449
592.930786	953.749756	14633.028320	10752.346680	71.630951
593.271423	954.567078	14622.774414	10779.689453	71.883034
593.612000	957.762024	14596.101563	10874.500000	72.712212
593.952576	946.393738	14647.073242	10966.411133	73.135185
594.292969	931.756042	14668.471680	11078.386719	73.865044
594.633484	916.375427	14728.210938	11255.153320	74.854485
594.973877	915.037903	14760.309570	11445.367188	76.057220
595.314209	940.598145	14870.946289	11682.690430	77.112877
595.654480	958.802246	15055.588867	11908.942383	77.678268
595.994812	959.322449	15249.370117	12159.492188	78.377411
596.335022	943.495911	15441.815430	12333.879883	78.563477
596.675171	946.468079	15561.515625	12391.167969	78.307648
597.015320	942.530029	15602.308594	12318.350586	77.598854
597.355408	949.068665	15548.809570	12094.402344	76.339256
597.695496	934.133789	15451.844727	11784.335938	74.737694
598.035461	943.793152	15270.100586	11404.872070	73.020065
598.375366	938.146179	15046.375000	11050.597656	71.677681
598.715271	942.381409	14787.208008	10760.519531	70.915573
599.055176	949.960266	14528.114258	10498.157227	70.320290
599.395081	944.239014	14259.659180	10279.484375	70.108528
599.734802	942.604309	14013.866211	10107.696289	70.116348
600.074524	932.053406	13775.948242	10026.260742	70.805679
600.414246	933.539368	13573.843750	10015.858398	71.852058
600.753906	946.765320	13398.191406	10066.235352	73.240364
601.093506	939.855164	13262.218750	10099.670898	74.334892
601.433044	949.365906	13178.403320	10190.543945	75.567497
601.772583	940.969666	13131.890625	10304.449219	76.806992
602.112122	963.706299	13226.106445	10524.980469	77.972290
602.451538	962.071594	13383.628906	10796.409180	79.171532
602.790894	964.672302	13608.096680	11095.922852	80.130592
603.130310	948.399963	13846.980469	11400.266602	81.031136
603.469604	945.204895	14100.872070	11671.397461	81.532867
603.808838	938.740540	14359.149414	11940.002930	81.974121
604.148010	932.499084	14612.299805	12120.780273	81.786873
604.487305	939.855042	14829.932617	12236.692383	81.330269
604.826416	947.805481	14955.949219	12149.312500	79.964249
605.165527	953.972656	14945.620117	11921.722656	78.387840
605.504456	942.975891	14861.956055	11597.465820	76.546486
605.843445	935.248352	14705.624023	11252.106445	74.920670
606.182434	931.013184	14549.737305	10935.799805	73.463463
606.521423	936.065735	14318.952148	10645.202148	72.548897
606.860229	938.146179	14085.417969	10409.216797	72.038292
607.199036	943.644531	13865.110352	10265.589844	72.143097
607.537903	938.591980	13769.186523	10227.769531	72.398651
607.876648	952.486572	13807.674805	10315.297852	72.832939
608.215271	956.944824	13982.805664	10485.600586	73.151833
608.553955	954.121277	14314.269531	10675.073242	72.760811
608.892578	957.910706	14861.360352	10885.051758	71.400558
609.231140	953.378235	15708.635742	11069.323242	68.558243
609.569641	956.721863	16787.435547	11207.674805	64.753578
609.908081	940.077942	18065.740234	11270.757813	60.322803
610.246521	945.353516	19368.863281	11266.223633	56.020107
610.584961	948.251282	20556.146484	11150.757813	52.032650
610.923340	945.056335	21424.744141	11008.468750	49.138504
611.261597	942.158508	21820.552734	10766.166992	47.053467
611.599854	947.434021	21872.119141	10544.076172	45.862782
611.938110	952.783691	21638.587891	10292.487305	45.150303
612.276245	957.613464	21229.402344	10062.891602	44.916008
612.614319	944.387512	20518.919922	9859.080078	45.542297
612.952393	940.598145	19631.746094	9640.257813	46.544277
613.290466	931.013123	18686.689453	9459.034180	48.029835
613.628479	939.483582	17781.234375	9252.621094	49.360298
613.966370	945.873596	16905.875000	9130.170898	51.280056
614.304260	937.105957	16036.754883	8977.998047	53.252182
614.642151	929.081238	15205.829102	8870.258789	55.623154
614.979980	920.387756	14491.854492	8728.266602	57.531578
615.317749	924.771667	13866.077148	8631.375000	59.550434
615.655396	933.242188	13398.191406	8566.137695	61.234871
615.993164	934.579590	12947.323242	8511.004883	63.069897
616.330811	951.446289	12592.824219	8511.004883	64.936974
616.668396	944.759094	12242.041992	8486.113281	66.753693
617.005859	960.362610	11984.583008	8491.241211	68.312119
617.343445	957.985046	11755.582031	8464.640625	69.521545
617.680908	965.117981	11555.708008	8450.969727	70.683990
618.018311	969.724792	11413.343750	8442.499023	71.553497
618.355652	971.136536	11263.325195	8421.693359	72.390404
618.692993	974.554504	11147.710938	8391.898438	72.910942
619.030273	957.836426	11009.136719	8353.483398	73.579002
619.367554	943.198730	10911.725586	8301.694336	73.817276
619.704712	933.465149	10851.690430	8244.481445	73.712944
620.041870	939.557922	10811.789063	8205.100586	73.595749
620.379028	928.635315	10749.002930	8168.098145	73.718864
620.716064	927.446533	10709.473633	8149.299316	73.827766
621.053040	922.096680	10652.929688	8099.442871	73.758804
621.389954	935.842712	10648.397461	8083.170410	73.588547
621.726929	935.545593	10603.667969	8064.743652	73.739227
622.063843	932.276184	10590.070313	8076.854004	73.977325
622.400635	927.372253	10560.125977	8096.767090	74.427261
622.737427	930.195801	10581.673828	8130.724121	74.605446
623.074219	939.037781	10596.682617	8143.207031	74.595512
623.410889	949.365906	10627.666992	8174.117188	74.648964
623.747559	953.601074	10668.012695	8232.147461	74.925240
624.084167	954.418396	10698.997070	8280.964844	75.185867
624.420715	951.520569	10775.157227	8365.074219	75.466492
624.757324	958.950867	10872.716797	8433.730469	75.397987
625.093750	962.888916	10984.616211	8558.632813	75.792763
625.430176	963.260498	11092.652344	8671.647461	76.099205
625.766602	965.489563	11184.416992	8842.989258	77.087341
626.102905	954.121277	11331.164063	8991.520508	77.453659
626.439209	955.978821	11450.420898	9089.674805	77.504791
626.775452	941.861328	11548.648438	9114.269531	77.048859
627.111694	934.356750	11593.304688	9058.393555	76.217995
627.447876	925.811829	11600.809570	8997.167969	75.609909
627.783997	930.641541	11553.182617	8888.388672	74.913780
628.120056	932.127625	11478.656250	8803.312500	74.632950
628.456055	940.969666	11371.139648	8674.247070	74.143349
628.792053	933.019226	11291.859375	8553.209961	73.562202
629.128052	932.424805	11230.113281	8418.424805	72.695923
629.463928	931.979004	11191.476563	8312.542969	71.938843
629.799744	933.465088	11142.510742	8220.333008	71.376587
630.135559	931.458984	11084.480469	8168.692871	71.281578
630.471375	923.880066	11030.758789	8106.353027	71.065193
630.807068	940.078064	10951.625977	8052.334473	71.040527
631.142700	948.177002	10862.909180	7998.910645	71.113701
631.478333	952.783875	10709.102539	7913.463379	71.345352
631.813965	938.963562	10560.200195	7863.160156	71.967850
632.149475	938.814880	10366.122070	7811.667969	72.903671
632.484924	940.969666	10228.809570	7841.091797	74.292000
632.820435	938.963440	10065.493164	7826.009277	75.461830
633.155884	941.935547	9923.351563	7823.854004	76.623978
633.491150	961.254333	9832.254883	7824.894043	77.371651
633.826477	967.570129	9732.319336	7809.810547	78.065445
634.161804	966.975586	9655.787109	7782.541504	78.440712
634.497009	945.873596	9515.652344	7695.087402	78.755989
634.832153	940.449524	9384.879883	7611.867676	79.003761
635.167297	926.183411	9245.264648	7506.431641	79.098259
635.502380	918.530273	9121.030273	7442.977051	79.542175
635.837463	928.783997	9033.055664	7357.900879	79.329979
636.172424	939.409241	8937.725586	7302.248047	79.552231
636.507324	951.074890	8858.295898	7240.354004	79.538429
636.842224	945.799316	8775.967773	7206.694824	79.958633
637.177124	946.616699	8675.362305	7148.070313	80.238808
637.511963	932.722107	8594.000977	7078.746094	80.221909
637.846741	922.394043	8501.940430	7001.990723	80.210564
638.181396	917.564270	8423.104492	6911.639160	79.862007
638.516113	927.966614	8335.500977	6844.767090	79.875435
638.850769	927.075012	8253.026367	6778.935059	79.878502
639.185303	930.121399	8204.432617	6746.390137	79.956284
639.519836	925.886230	8098.625000	6701.362793	80.519821
639.854370	925.291748	8025.660156	6665.920410	80.849739
640.188843	929.824219	7967.109375	6623.493652	80.907188
640.523254	933.019226	7954.031738	6583.443848	80.478775
640.857605	945.056335	7907.963379	6548.893066	80.481277
641.191895	930.567200	7827.791504	6495.692871	80.686455
641.526184	922.839783	7743.829590	6432.164063	80.770157
641.860413	916.821289	7695.234863	6399.099121	80.878479
642.194580	924.771667	7660.685059	6384.164063	81.049026
642.528748	919.570496	7625.763184	6383.495605	81.475815
642.862793	931.681824	7598.642090	6350.653809	81.280998
643.196838	929.972900	7554.208984	6326.431152	81.465363
643.530823	939.037781	7524.859375	6307.186035	81.510681
643.864746	929.155518	7489.343262	6303.322754	81.920937
644.198669	931.904724	7484.810059	6300.425293	81.925804
644.532532	937.848938	7472.921875	6293.143066	81.946968
644.866333	937.180176	7453.825684	6297.453125	82.255096
645.200073	943.495911	7416.303223	6291.359863	82.620468
645.533813	932.722107	7402.705566	6277.762207	82.612885
645.867554	923.880066	7409.541504	6281.105957	82.601074
646.201172	923.805725	7449.738770	6301.539551	82.405594
646.534729	930.790100	7452.116699	6332.003418	82.823845
646.868225	935.471191	7450.259277	6340.994629	82.973129
647.201782	923.285645	7416.748535	6340.623047	83.427559
647.535217	917.118469	7428.562988	6367.148926	83.699249
647.868591	923.954346	7437.925781	6365.960449	83.543594
648.201965	933.167786	7439.113770	6353.254395	83.309738
648.535278	933.316406	7444.463379	6299.533691	82.415855
648.868591	921.502258	7448.921875	6282.072266	82.123878
649.201782	921.205078	7474.779785	6274.196777	81.680489
649.534912	922.616882	7496.550781	6308.300781	81.924828
649.868103	918.232910	7482.952637	6301.910645	82.009254
650.201172	919.867676	7503.607910	6320.188965	82.025124
650.534180	929.304138	7498.259277	6286.232910	81.549179
650.867188	942.752930	7525.304688	6288.759766	81.214806
651.200134	937.254456	7520.178223	6286.604004	81.261002
651.533020	926.406250	7493.355469	6289.205078	81.663475
651.865845	941.786926	7475.671387	6287.718750	81.818588
652.198608	958.133545	7443.052246	6269.960938	81.910461
652.531433	957.687805	7401.219238	6244.995605	82.056053
652.864136	942.009949	7329.740723	6184.438965	82.070290
653.196777	2715.392822	9191.618164	8052.111816	82.404770
653.529358	2799.652344	9184.485352	8047.058594	82.185486
653.861938	2795.491211	9131.359375	8008.198730	82.272980
654.194519	1000.411804	7151.785645	6047.423828	82.046906
654.526978	927.372314	7081.495605	5992.886230	82.310890
654.859375	922.171143	7023.984863	5979.140137	82.876488
655.191833	934.430969	6995.378418	5969.480469	83.073639
655.524170	920.759277	6938.239746	5948.601563	83.553947
655.856445	934.802490	6920.927246	5945.480469	83.704865
656.188660	984.436707	6961.421875	6005.145996	84.000702
656.520874	996.845215	6957.037598	6032.117188	84.481705
656.853088	990.826721	6998.572754	6076.401855	84.650299
657.185181	932.796387	6961.644531	6092.080078	85.576607
657.517212	924.697327	7048.207031	6184.884277	85.901505
657.849243	931.904785	7117.309082	6317.811035	87.074440
658.181274	943.793152	7242.063965	6484.250000	87.967903
658.513123	940.523743	7336.873535	6630.700684	88.959755
658.844971	936.660095	7454.644043	6780.717285	89.660500
659.176819	930.121399	7543.806641	6871.366699	89.832596
659.508667	930.047180	7615.880371	6931.105469	89.757820
659.840393	930.270020	7656.970215	6916.988281	88.999329
660.172058	932.276184	7670.789551	6829.088379	87.509094
660.503662	941.638367	7651.396973	6709.015625	85.955063
660.835266	942.455750	7607.781250	6580.695313	84.590614
661.166931	938.591980	7500.933594	6433.204590	83.729454
661.498413	935.025452	7393.937500	6292.325684	82.944313
661.829773	938.740540	7264.725098	6131.386230	82.084389
662.161194	951.817871	7169.915527	6015.845703	81.440147
662.492615	944.090332	7048.281250	5888.268066	80.996445
662.823975	948.622803	6941.285156	5801.110840	80.973831
663.155212	933.687988	6811.775879	5717.222656	81.379097
663.486450	934.505310	6694.525879	5664.765137	82.122276
663.817627	931.979004	6578.763184	5606.511719	82.782211
664.148743	936.288574	6482.392090	5552.122559	83.226608
664.479858	939.706543	6409.798340	5494.686035	83.270622
664.810913	932.573425	6342.628906	5454.117188	83.576660
665.141907	930.418640	6280.585938	5433.535645	84.167778
665.472778	932.722107	6243.509277	5431.157715	84.703743
665.803711	957.985046	6224.636719	5449.213379	85.276733
666.134583	957.613464	6197.070313	5436.878906	85.491028
666.465454	973.365540	6154.346191	5439.033691	86.193489
666.796143	943.495911	6109.986816	5397.646973	86.212311
667.126831	953.972656	6112.438965	5402.476563	86.236946
667.457458	944.387634	6104.935059	5392.148438	86.187775
667.788147	948.474304	6101.441895	5385.535156	86.106903
668.118774	948.771423	6089.479980	5395.343262	86.497253
668.449219	950.183105	6094.234863	5403.962891	86.581161
668.779663	955.978821	6094.532715	5429.894531	87.065659
669.110107	935.248352	6083.164063	5397.944336	86.689377
669.440552	934.356689	6072.314941	5379.739746	86.520416
669.770874	919.570496	6058.123535	5335.678223	85.940689
670.101135	926.926453	6030.408691	5330.402832	86.283760
670.431396	917.044250	5989.244629	5287.604004	86.166939
670.761597	915.409607	5926.682129	5263.233398	86.760872
671.091797	913.031921	5902.682129	5226.082031	86.439926
671.421875	906.790466	5866.274902	5200.299316	86.571678
671.751892	914.220703	5856.466309	5171.841309	86.147491
672.081909	923.434265	5809.209473	5164.633301	86.807083
672.411865	931.161682	5782.535156	5148.583984	86.932541
672.741821	920.536438	5738.473145	5119.457520	87.151855
673.071716	911.768555	5729.037109	5083.420410	86.597870
673.401550	908.276367	5700.133301	5061.724609	86.677216
673.731262	912.511719	5682.300781	5054.145020	86.830536
674.060974	909.985413	5623.453125	5018.925781	87.174469
674.390625	920.387756	5607.552246	4991.730957	86.861542
674.720276	923.211243	5567.726074	4974.864746	87.235245
675.049927	933.985168	5552.345215	4969.886230	87.388191
675.379395	928.412415	5531.169434	4955.248535	87.487488
675.708923	935.768494	5501.894043	4936.672363	87.621414
676.038330	931.087402	5486.587402	4924.784180	87.667587
676.367737	930.047119	5453.299805	4910.146484	87.991974
676.697083	944.684875	5459.615234	4920.177246	88.052132
677.026428	946.245178	5445.795410	4940.313965	88.765953
677.355652	939.929504	5452.333984	4971.817871	89.351227
677.684875	934.653992	5477.671387	5001.390625	89.516197
678.013977	924.920227	5487.033203	5021.080566	89.786476
678.343079	933.687927	5512.444824	5073.538574	90.414291
678.672180	921.725281	5519.131348	5112.398926	91.153000
679.001221	923.805664	5576.865234	5166.862793	91.188538
679.330139	921.056458	5634.523926	5223.704590	91.284134
679.659058	914.220703	5695.080566	5280.917480	91.337059
679.987976	920.164856	5747.538574	5343.034668	91.620621
680.316772	921.502380	5779.710938	5371.269531	91.592758
680.645630	921.056458	5805.643066	5394.823730	91.589478
680.974304	909.688171	5817.011719	5381.746094	91.130287
681.302979	902.257996	5815.822754	5363.839355	90.801315
681.631653	907.013367	5804.751953	5315.765625	90.016083
681.960266	925.514709	5807.427246	5285.301270	89.304886
682.288757	936.883057	5788.404785	5239.158691	88.678886
682.617249	933.390808	5762.027344	5196.138184	88.280563
682.945679	930.790222	5693.520996	5126.516113	88.094963
683.274109	933.242188	5627.836426	5057.637695	87.854141
683.602478	942.604309	5533.100098	4969.291504	87.717918
683.930725	936.511536	5437.918457	4881.465820	87.638252
684.259033	925.068848	5349.572754	4799.138672	87.559418
684.587280	917.935852	5289.164551	4740.959473	87.458794
684.915344	924.325867	5241.091309	4708.340332	87.658554
685.243469	934.430969	5213.524902	4682.705566	87.595055
685.571533	940.078064	5184.249512	4681.071289	88.144257
685.899536	939.334961	5172.286621	4675.424316	88.262039
686.227539	919.867676	5123.023926	4668.068848	89.175873
686.555420	913.031921	5112.026855	4669.257813	89.455353
686.883301	911.397156	5106.454590	4672.526855	89.656212
687.211121	920.387878	5151.036133	4676.242188	88.777275
687.538940	928.783997	5186.701660	4692.811035	88.400658
687.866638	922.245422	5204.979980	4680.328125	87.749611
688.194336	917.712891	5183.729004	4662.347168	87.778252
688.521973	909.836853	5149.327637	4628.762207	87.721039
688.849609	913.700500	5107.643066	4604.391113	88.000511
689.177063	919.273254	5093.971191	4571.920410	87.494888
689.504578	924.028625	5036.684082	4520.429199	87.447166
689.832031	920.462097	4960.672363	4472.726563	87.922760
690.159485	921.353699	4872.549316	4430.225586	88.805321
690.486816	918.158691	4817.714355	4375.538574	88.660866
690.814087	942.827332	4792.451172	4359.117676	88.743484
691.141296	951.297852	4733.528809	4314.312988	88.916176
691.468506	948.548523	4682.854004	4275.304199	89.086327
691.795715	921.873779	4618.285645	4196.915039	88.600548
692.122803	911.025635	4576.304688	4175.441895	89.063240
692.449829	905.898743	4540.787598	4170.834961	89.822174
692.776855	907.013367	4500.738281	4161.770020	90.567772
693.103821	900.103210	4477.185059	4114.513184	89.861237
693.430664	901.812073	4440.924805	4064.210205	89.355675
693.757568	901.886414	4422.051758	4043.776611	89.254051
694.084351	907.087585	4401.767578	4046.674805	89.839050
694.411133	918.530273	4380.219238	4043.033936	90.259514
694.737854	922.839844	4364.393066	4035.157959	90.433533
695.064575	919.496277	4353.693359	4037.461182	90.791672
695.391174	914.740784	4346.263184	4065.919189	91.830330
695.717773	909.242432	4340.393066	4075.875732	92.290710
696.044250	914.146423	4341.953613	4094.377197	92.777412
696.370789	910.282654	4366.102051	4115.851074	92.758560
696.697205	917.787170	4419.302734	4184.803711	93.302925
697.023621	916.524109	4470.052246	4275.750000	94.532135
697.349915	935.619873	4550.298340	4395.600586	95.720291
697.676208	925.291809	4630.545410	4526.373047	97.188522
698.002380	927.075012	4766.965332	4693.479980	98.086266
698.328674	906.418762	4903.459473	4851.670410	98.704315
698.654724	910.876953	5045.005859	4985.267090	98.554985
698.980896	911.025635	5151.185059	5048.572754	97.579987
699.306946	929.155518	5207.357422	5063.656250	96.641083
699.632935	935.248291	5210.478027	5020.411621	95.554245
699.958862	939.112061	5177.339355	4931.991699	94.211075
700.284729	920.610657	5096.200684	4787.175781	92.599258
700.610596	919.644775	5018.479980	4629.282715	90.504692
700.936340	918.678772	4886.815430	4460.020996	89.244461
701.262146	919.421875	4754.779785	4307.031250	88.325768
701.587830	917.192810	4618.954590	4176.853516	88.057007
701.913513	911.917297	4491.376465	4078.104736	88.454353
702.239075	914.146301	4385.197754	3996.000244	88.787331
702.564697	914.294922	4277.013184	3905.573975	88.954201
702.890137	913.626221	4187.850098	3822.577881	88.844009
703.215698	910.579834	4122.018066	3759.495117	88.711510
703.541016	903.000977	4043.702393	3721.228760	89.732430
703.866455	906.864685	3992.062256	3685.340576	90.058281
704.191711	920.759277	3955.133789	3662.529541	90.357018
704.517029	922.468262	3928.905029	3634.146240	90.195740
704.842163	927.298035	3919.988525	3640.684814	90.667137
705.167419	922.542542	3908.620361	3627.681885	90.591721
705.492493	930.641541	3916.125000	3626.121826	90.286224
705.817566	923.359863	3922.143799	3587.335205	88.835190
706.142578	920.164978	3931.431396	3581.019531	88.363304
706.467590	923.582825	3958.403320	3585.106201	87.699532
706.792480	932.424805	3971.108643	3587.781250	87.385086
707.117371	935.545593	3996.000000	3595.137451	86.901863
707.442200	947.136719	4030.625244	3613.118408	86.459923
707.766907	940.821106	4055.071045	3624.932373	86.188049
708.091675	946.245178	4075.578369	3628.350342	85.708519
708.416321	930.047180	4063.392822	3614.678467	85.679382
708.741028	936.437195	4077.807617	3626.046875	85.618988
709.065552	928.932617	4084.271729	3650.789795	86.261955
709.390137	929.229919	4072.903564	3655.396729	86.719139
709.714600	932.053284	4057.820068	3665.798828	87.458397
710.039063	938.146179	4042.587891	3687.197998	88.552216
710.363403	950.777588	4075.058350	3728.584717	88.910294
710.687744	943.718933	4107.900391	3779.036133	89.606659
711.012085	937.477356	4140.816406	3795.308594	89.214134
711.336304	933.836609	4171.354980	3826.292969	89.341774
711.660461	930.864441	4175.738281	3831.642578	89.395714
711.984619	933.316467	4183.391602	3829.710938	89.117767
712.308716	916.598450	4165.410645	3794.491211	88.582924
712.632751	914.369324	4150.772949	3751.544189	87.664429
712.956726	921.056458	4121.720703	3723.235107	87.549911
713.280701	930.195801	4060.420898	3713.798584	88.926598
713.604553	949.068665	4008.854492	3699.012451	89.873734
713.928467	947.879883	3938.341064	3649.229248	90.332199
714.252258	947.136780	3871.320313	3607.545654	90.979546
714.575989	940.003723	3812.621094	3582.134033	91.976410
714.899719	931.904785	3766.999268	3583.397461	93.523964
715.223267	929.675720	3746.491455	3576.189697	93.954102
715.546936	931.533203	3728.584717	3575.669922	94.532997
715.870422	924.400146	3716.102295	3566.827881	94.652924
716.193970	921.502380	3687.867188	3551.595703	95.073990
716.517395	917.267090	3659.260498	3538.072510	95.580299
716.840820	918.678772	3604.127686	3497.428955	96.026779
717.164124	922.616882	3579.012939	3460.649170	95.544197
717.487488	922.616882	3545.948486	3415.473389	95.026360
717.810730	923.359863	3528.190186	3378.916260	94.269341
718.133972	919.198914	3478.110352	3324.229492	93.986473
718.457092	912.214539	3428.550537	3255.202148	93.111076
718.780212	908.945129	3380.847900	3201.555664	92.746796
719.103210	907.756348	3332.105469	3160.912109	92.938583
719.426208	905.155762	3281.133789	3134.831787	93.842453
719.749207	928.412598	3250.372314	3133.048096	94.947189
720.072083	934.356689	3219.982666	3108.825439	95.136681
720.394958	937.105957	3195.165771	3081.928467	94.985191
720.717773	915.260925	3144.194092	3032.888672	95.006340
721.040527	907.682068	3127.327148	3022.634766	95.283371
721.363281	909.242371	3106.076416	3010.820313	95.663940
721.685913	924.623047	3108.751221	3021.817139	96.019737
722.008545	938.517639	3069.891357	3003.539063	96.886879
722.331055	935.248352	3041.507568	2991.576172	97.629379
722.653503	917.861511	3011.860596	2957.173828	97.388405
722.976013	916.078308	3017.730713	2947.143311	96.641335
723.298401	925.811951	3025.012451	2930.573486	95.501190
723.620789	926.257751	3004.430420	2924.926514	96.174339
723.943115	918.381653	2990.461670	2918.016357	96.503738
724.265381	905.898743	2977.904297	2919.651123	97.188560
724.587585	907.533508	2990.981689	2926.561279	96.907990
724.909790	905.007141	2991.279053	2924.778076	96.812447
725.231873	913.403381	2981.619385	2932.430908	97.621696
725.553894	937.180237	2979.687500	2959.328857	99.003250
725.875916	1515.403931	3505.379639	3357.219971	92.554703
726.197937	1547.651367	3538.592773	3392.291016	92.651627
726.519775	1529.967407	3541.713623	3375.201172	91.722992
726.841675	949.514465	3028.133545	3001.458252	98.716682
727.163513	921.130859	3007.031250	2998.337891	99.583229
727.485291	916.969910	3018.250977	3026.052734	100.371284
727.806946	932.796387	3060.603516	3065.210205	100.216499
728.128662	930.418701	3083.265625	3078.138672	99.761856
728.450256	933.242188	3106.968506	3092.627930	99.340279
728.771790	931.087402	3089.507080	3072.863525	99.228897
729.093323	917.787170	3091.216064	3078.510498	99.415413
729.414795	924.028564	3089.061279	3066.176025	98.942963
729.736145	911.025696	3089.507080	3062.238037	98.748253
730.057495	914.369324	3075.538330	3047.971924	98.724464
730.378845	908.945251	3069.965576	3049.086670	99.033844
730.700134	911.545837	3076.132813	3070.634521	99.745987
731.021301	915.558167	3097.606201	3076.801514	99.046555
731.342468	918.307373	3111.575195	3092.107666	99.112396
731.663574	925.217529	3121.011475	3100.726563	99.076195
731.984680	926.183411	3144.862549	3109.345947	98.399200
732.305664	916.152527	3150.361084	3113.283936	98.340477
732.626648	910.877014	3156.305420	3106.447998	97.779602
732.947571	904.264160	3142.261963	3111.129150	98.608902
733.268433	906.790466	3131.488281	3088.912842	98.086235
733.589233	901.514954	3106.893799	3074.498047	98.531059
733.909973	917.192871	3103.847656	3054.510498	97.743713
734.230713	935.768494	3097.680420	3051.389893	97.858818
734.551331	936.362976	3063.798096	3003.093018	97.146561
734.871948	926.406311	3007.179688	2942.313232	96.882576
735.192505	918.010071	2955.985107	2877.075439	96.128036
735.513062	920.164856	2928.864502	2862.140625	96.678253
735.833435	929.675598	2896.840088	2849.434814	97.590172
736.153931	921.948181	2865.261475	2820.159912	97.679138
736.474304	930.492981	2838.661133	2789.398438	97.418327
736.794617	930.047119	2833.385742	2781.150635	97.255608
737.114807	945.427917	2836.729248	2798.388672	97.972794
737.434998	940.375244	2831.230713	2805.893555	98.660019
737.755188	937.477478	2824.097900	2809.757080	99.239868
738.075256	926.480652	2800.766846	2815.181641	100.769081
738.395325	917.935852	2802.327393	2825.435303	101.226280
738.715271	928.338196	2819.119385	2851.738281	101.725151
739.035278	925.068848	2830.264893	2860.506104	101.587303
739.355164	926.332031	2826.846924	2854.710205	101.466095
739.675049	915.186707	2813.546875	2820.828369	100.383568
739.994873	920.387878	2824.692383	2804.481689	98.938683
740.314636	927.000732	2826.326904	2792.667725	98.227837
740.634277	925.514648	2820.531250	2784.643311	98.106194
740.953979	915.558105	2782.710938	2742.884766	97.867012
741.273499	916.969910	2756.259521	2712.718018	97.632698
741.593140	923.211243	2717.399170	2685.746338	98.235809
741.912598	922.393860	2693.993896	2676.829834	99.031158
742.232117	920.462097	2669.028320	2653.275879	99.099121
742.551453	906.938965	2650.229492	2618.947998	98.205605
742.870850	921.576660	2639.678467	2611.294678	98.347954
743.190063	922.319641	2613.152344	2582.688232	98.198280
743.509338	928.932617	2586.106201	2566.564453	98.820778
743.828552	921.502380	2559.951904	2527.406982	98.013672
744.147705	915.706726	2543.827881	2525.920898	98.900146
744.466797	922.542664	2525.995117	2512.917969	99.184441
744.785828	933.985168	2514.924316	2527.035400	100.766068
745.104858	944.090332	2516.558838	2515.295654	99.919670
745.423706	943.644531	2521.760254	2507.939697	99.124237
745.742615	942.307129	2517.376221	2481.488037	97.721481
746.061401	951.372009	2516.038818	2487.209229	98.157463
746.380249	944.981995	2492.038818	2488.397949	99.764656
746.698975	940.449524	2481.339355	2484.980225	100.236282
747.017639	928.783997	2463.878174	2467.816162	100.256531
747.336304	932.276184	2456.076416	2467.890625	100.775314
747.654907	938.443359	2451.766846	2484.459961	102.160355
747.973389	941.266846	2451.098145	2489.364014	102.534447
748.291931	940.226563	2449.463623	2482.082275	102.161270
748.610352	933.242188	2439.209717	2466.330078	101.800858
748.928711	934.430969	2433.265625	2481.562256	103.222282
749.247070	940.895325	2460.683350	2488.472412	101.828484
749.565308	934.208008	2465.661865	2493.822266	101.838799
749.883545	930.418640	2461.797607	2480.224854	101.203308
750.201782	923.657043	2443.444824	2468.410645	101.642715
750.519836	931.681824	2442.627441	2450.801025	100.540955
750.837952	933.910889	2435.420166	2436.237549	100.054436
751.155884	934.059509	2414.689697	2434.082764	101.309784
751.473877	925.366028	2399.829346	2423.903320	101.632729
751.791809	912.585999	2384.820068	2420.708740	102.437698
752.109619	909.465332	2383.111084	2417.736328	102.349632
752.427490	910.356934	2375.829346	2416.324463	102.763283
752.745300	929.155579	2388.906982	2420.114014	102.137833
753.062988	926.852112	2377.092773	2421.897217	103.089447
753.380615	929.304138	2359.408691	2413.649658	103.792801
753.698303	927.966614	2350.566406	2408.968506	104.105309
754.015808	926.034851	2360.968994	2406.739258	103.189713
754.333374	926.703552	2362.232178	2418.405029	103.913040
754.650757	924.028625	2345.662598	2408.894287	104.447815
754.968262	924.102966	2345.513916	2410.826172	104.594887
755.285583	932.722107	2362.752197	2413.574951	103.553963
755.602905	928.486816	2376.646729	2410.231445	102.319130
755.920105	928.338196	2360.003174	2393.736328	102.356216
756.237305	909.093811	2341.575928	2377.612793	102.515694
756.554443	909.539551	2317.427490	2375.680664	104.137627
756.871582	913.997742	2320.102295	2367.879150	103.397820
757.188599	922.171143	2316.015869	2379.618896	104.563133
757.505615	927.446594	2349.377686	2403.172852	103.783249
757.822510	937.254578	2370.777100	2440.621338	104.872208
758.139465	945.427795	2406.962402	2463.283936	103.853592
758.456238	942.009949	2408.002686	2474.726563	104.551445
758.773010	929.229797	2407.928467	2482.156494	105.019821
759.089783	927.446533	2408.151367	2492.484619	105.695480
759.406433	919.496155	2419.370850	2504.075928	105.647476
759.723145	920.907959	2426.206787	2506.379395	105.326027
760.039673	917.638672	2438.763916	2507.270996	104.503708
760.356201	926.926453	2435.940186	2507.048096	104.712212
760.672668	930.195740	2449.760498	2521.611328	104.728386
760.989136	925.143127	2442.033203	2526.441162	105.564537
761.305481	923.508484	2432.745361	2522.280029	105.932449
761.621826	927.892334	2432.522461	2524.731934	106.128380
761.938049	949.365906	2464.546875	2567.084717	106.767365
762.254333	943.644531	2507.048096	2608.100098	106.463593
762.570496	931.087402	2535.134521	2660.632080	107.823807
762.886597	906.270264	2574.292236	2728.619141	109.252090
763.202637	911.099915	2664.495850	2875.961182	112.060326
763.518677	919.644775	2808.197266	3059.340576	113.298187
763.834656	927.297852	2958.214111	3247.029053	114.220917
764.150574	918.678772	3083.637451	3348.971924	112.255867
764.466370	920.536377	3126.955811	3361.009033	110.607826
764.782288	918.232971	3118.930908	3283.660156	107.485321
765.097961	936.362854	3072.045898	3178.595947	104.989037
765.413696	925.291809	2993.953857	3039.501221	102.201782
765.729309	925.514709	2885.620361	2905.310547	101.004547
766.044861	924.920349	2777.064209	2788.878174	100.637856
766.360474	932.796387	2692.656250	2696.817139	100.236435
766.675903	930.567200	2605.201904	2631.133789	101.548508
766.991394	918.455872	2531.791016	2566.564697	102.155388
767.306763	919.867676	2467.296387	2527.333008	103.879768
767.622131	923.508545	2421.005615	2499.915039	105.269424
767.937378	918.604553	2368.993652	2459.865967	106.265373
768.252625	928.263855	2332.362305	2427.766846	106.794716
768.567810	920.610657	2295.879883	2369.588135	105.359550
768.882996	934.951172	2257.985352	2349.600830	106.924652
769.197998	925.366150	2225.812256	2315.867188	106.924927
769.513062	936.511536	2205.601807	2296.474609	107.160469
769.828064	929.452820	2190.592773	2273.143311	106.545708
770.142944	926.034851	2175.732178	2265.787354	107.206161
770.457825	925.514648	2161.837646	2256.202148	107.632675
770.772705	917.564270	2134.048584	2232.276611	108.074745
771.087402	918.753113	2126.023682	2209.911377	106.948540
771.402100	916.226868	2102.024170	2180.339111	106.604408
771.716736	924.474426	2090.804443	2173.428955	107.084145
772.031372	930.195801	2066.953125	2154.778564	107.725960
772.345947	926.629211	2061.231934	2146.308350	107.498344
772.660461	931.236023	2069.479492	2128.178467	105.156982
772.974854	929.304138	2057.219727	2124.983398	106.007866
773.289246	934.951111	2051.795410	2129.813232	106.985558
773.603638	933.985168	2033.591187	2114.506592	107.358597
773.917908	927.372314	2022.891602	2101.875244	107.209702
774.232178	922.616943	2002.978516	2087.460693	107.819809
774.546265	920.313477	1988.935181	2086.717529	109.150322
774.860474	925.440430	1978.978516	2069.330811	108.576080
775.174561	936.585876	1977.566895	2056.104736	107.544601
775.488586	937.848938	1978.755859	2054.247314	107.252472
775.802551	939.037842	1972.365845	2060.860352	108.564026
776.116516	932.276184	1953.344238	2052.612793	109.722038
776.430359	929.675598	1936.254517	2039.981445	110.304901
776.744202	940.003723	1942.570313	2030.841919	108.804558
777.057922	934.876892	1944.799316	2033.739746	108.806656
777.371704	933.985168	1944.130737	2023.783203	107.885254
777.685303	922.245422	1928.824219	2010.408813	108.105133
777.998962	922.839844	1924.737793	1999.783569	107.490364
778.312500	924.102966	1913.295044	1998.148804	108.578094
778.626038	923.062683	1898.954712	1997.925781	110.141594
778.939453	925.514648	1904.824585	2010.408569	110.781471
779.252869	939.260681	1923.920288	2042.507446	112.043472
779.566223	943.124329	1926.446655	2033.739746	110.911293
779.879578	936.362854	1924.440430	2030.916382	110.776070
780.192749	922.245422	1908.613892	2009.219727	110.199623
780.505920	911.917297	1908.836914	2016.873047	110.836998
780.819031	912.214539	1889.889648	2002.235352	111.491104
781.132141	957.019043	1933.282593	2035.002930	110.419350
781.445190	961.625793	1933.133911	2033.516968	110.332695
781.758118	972.176819	1943.462036	2026.903687	108.590843
782.071045	925.960510	1882.385132	1970.508179	109.213791
782.383911	922.096741	1867.598755	1955.870483	109.335960
782.696838	911.768738	1846.942749	1944.353638	110.416344
783.009583	916.078308	1843.896484	1942.421875	110.619034
783.322266	917.712891	1826.212280	1936.700562	112.161621
783.634888	915.186584	1819.822266	1917.381836	110.784401
783.947510	900.623230	1806.819336	1897.617188	110.019669
784.260132	897.131042	1801.320923	1879.784546	108.677780
784.572571	897.948303	1788.540894	1881.567871	110.445511
784.885010	910.505554	1774.794922	1870.050781	111.021294
785.197449	924.102844	1783.042358	1871.314087	110.276825
785.509766	935.917053	1787.351929	1871.834351	109.922356
785.822083	932.721985	1779.029907	1878.892944	111.799850
786.134277	931.013000	1760.974487	1880.899048	114.449409
786.446533	930.641602	1751.092163	1885.580200	116.391975
786.758606	947.954102	1759.414063	1892.341797	116.381302
787.070740	948.474182	1769.593628	1899.549194	115.826637
787.382690	936.882996	1770.262329	1906.087891	116.298164
787.694641	912.734558	1778.286987	1920.353882	116.413437
788.006653	901.663574	1793.964844	1947.400024	117.195442
788.318481	912.065918	1830.670410	1977.641235	115.999359
788.630310	912.363220	1859.128418	2016.427246	116.614334
788.942017	908.945251	1867.598999	2033.442505	117.299629
789.253784	909.019531	1876.663696	2048.674561	117.776253
789.565430	915.558105	1879.264526	2038.643555	116.538132
789.877014	922.914063	1879.561646	2018.284668	114.500954
790.188538	918.455872	1860.168579	1984.253906	113.176567
790.500061	917.935791	1827.252563	1948.663086	113.351837
790.811462	920.610657	1801.989624	1916.490112	112.991058
791.122925	929.081238	1791.215820	1897.097168	112.281303
791.434204	929.452637	1786.683228	1874.509155	110.245308
791.745483	928.783997	1776.429565	1867.896118	110.790657
792.056702	914.294983	1748.788940	1838.917969	110.800438
792.367920	916.152588	1731.030640	1840.255493	113.403831
792.678955	911.397156	1713.272095	1819.748047	113.278374
792.990112	917.341370	1705.173218	1819.748047	114.543053
793.301086	914.815125	1694.473633	1806.745117	114.400085
793.612122	927.818115	1704.281616	1814.918335	114.248802
793.922974	924.400208	1699.228882	1801.915405	113.252800
794.233826	923.434265	1707.773804	1799.760376	111.727905
794.544556	918.307312	1703.241211	1802.881226	112.694061
794.855286	921.279480	1698.783203	1800.429199	113.073380
795.166016	930.864502	1702.052368	1823.388672	115.733688
795.476624	924.548767	1694.993774	1823.537476	116.684341
795.787292	916.003906	1709.854126	1853.332642	118.073753
796.097778	904.189758	1718.176147	1852.366821	116.485619
796.408264	904.784241	1740.095337	1875.177734	116.171509
796.718689	913.031921	1764.689819	1886.248657	114.273201
797.029053	918.976135	1765.135376	1892.638794	115.068489
797.339355	921.428040	1764.095337	1880.824829	113.852379
797.649658	927.223633	1745.073853	1876.812500	116.107918
797.959839	920.016357	1736.306030	1859.871460	115.137451
798.270020	920.387878	1726.349487	1846.348267	114.888893
798.580078	925.737610	1732.739380	1844.639526	113.866158
798.890137	929.527039	1719.885132	1832.453735	114.242737
799.200195	929.898621	1711.265991	1830.150391	115.214920
799.510071	921.428040	1684.442749	1811.128906	116.603371
799.820007	918.753113	1676.343628	1795.896851	115.780716
800.129883	912.660339	1665.495483	1780.441772	115.268456
800.439575	907.310547	1669.359253	1767.661743	112.899765
800.749329	909.093750	1663.637817	1778.732910	115.253593
801.058960	907.904968	1653.607056	1767.364624	115.255096
801.368591	908.127869	1638.820801	1761.568970	116.798874
801.678162	912.065857	1635.848633	1742.398804	114.721291
801.987671	916.301086	1624.257446	1723.302856	113.990326
802.297119	920.982239	1616.232788	1716.021362	114.352898
802.606506	913.180481	1595.873901	1709.631348	116.663033
802.915894	910.654114	1595.650879	1718.696289	117.962921
803.225159	901.812073	1585.397095	1703.910156	117.336990
803.534424	905.230042	1597.137085	1703.464233	115.367256
803.843628	901.366272	1596.468140	1706.584961	115.841827
804.152771	914.146301	1607.464966	1724.120239	116.825638
804.461792	924.251465	1616.604126	1732.219238	116.698875
804.770874	929.898621	1621.508301	1737.197632	116.727547
805.079773	921.873840	1617.421509	1723.451660	115.244125
805.388733	914.666504	1606.127563	1724.268921	117.085754
805.697571	913.626221	1606.276367	1735.414429	118.644051
806.006470	914.517883	1624.331909	1749.606079	117.648872
806.315125	909.465332	1640.752563	1767.884644	117.384697
806.623901	903.075256	1648.554321	1767.810181	115.997208
806.932495	898.171326	1641.718384	1762.460571	116.238678
807.241150	904.932861	1634.288208	1751.017944	116.004509
807.549622	915.706787	1617.198853	1735.042969	116.799065
807.858154	921.799622	1607.019409	1729.321655	117.848618
808.166565	919.496277	1595.428101	1710.894531	117.082558
808.474915	915.855408	1599.960327	1709.111206	115.955284
808.783264	920.239197	1597.211304	1708.962524	116.507507
809.091492	920.313477	1577.818237	1703.241211	119.075600
809.399719	914.666504	1561.174438	1693.433228	120.457413
809.707825	904.487000	1557.162109	1680.578979	118.909386
810.015930	897.279602	1564.072266	1669.507813	115.812340
810.323975	908.425110	1572.319946	1661.631714	113.452698
810.632080	912.660339	1548.022949	1646.845337	115.553696
810.939880	911.694397	1530.636108	1640.752808	117.791122
811.247864	908.647949	1520.753906	1642.981812	119.968422
811.555664	903.149597	1517.410156	1642.090210	120.297585
811.863464	914.517883	1519.639282	1632.133423	118.590340
812.171143	907.013367	1500.320679	1616.975708	119.661819
812.478882	918.530273	1496.754028	1603.972778	118.542778
812.786438	927.595215	1501.435181	1612.517578	119.357735
813.094055	931.161682	1505.298828	1611.031616	118.415947
813.401489	921.873840	1507.973633	1610.734375	117.532974
813.708984	904.487000	1491.106934	1595.130859	117.732765
814.016357	919.867676	1498.091431	1603.155640	118.170166
814.323730	934.876892	1500.023438	1611.180298	119.668678
814.630981	933.836609	1504.035645	1609.099731	118.425865
814.938232	928.486816	1494.747925	1610.288574	120.404129
815.245361	914.072021	1481.224731	1600.257690	120.987816
815.552490	917.341370	1487.466187	1607.539429	121.060867
815.859619	913.477600	1487.912109	1594.833618	118.613350
816.166565	916.449707	1500.394897	1607.167969	118.284775
816.473572	915.186584	1496.456665	1611.551758	119.800621
816.780457	910.802734	1490.809937	1618.313354	121.983078
817.087341	907.756348	1489.175171	1628.046997	123.884987
817.394043	907.087646	1494.599243	1627.601196	122.638184
817.700806	909.168152	1495.267944	1624.926270	122.122231
818.007507	908.870911	1513.323608	1621.805542	117.947136
818.314209	910.951355	1513.100586	1634.213989	120.113518
818.620667	905.750183	1529.670288	1642.833130	118.137390
818.927246	902.332214	1524.320313	1658.436646	121.562523
819.233704	899.805908	1549.063110	1690.609741	121.801315
819.540161	898.691406	1578.784180	1726.795288	121.763367
819.846497	911.694397	1620.691040	1779.104492	122.343330
820.152832	913.403381	1664.232422	1825.172241	121.434952
820.458984	916.598328	1724.046265	1905.641968	122.490082
820.765259	908.127869	1785.494507	1980.687622	122.247620
821.071350	913.180420	1863.140991	2083.671143	123.214661
821.377502	902.480774	1960.254395	2213.329346	123.925247
821.683472	908.127869	2167.856201	2494.268066	125.911293
821.989441	906.344543	2538.180908	3031.476563	130.229477
822.295349	907.682068	3145.531250	3882.540283	132.933807
822.601196	909.985413	3918.576904	4959.929688	134.612640
822.907043	912.957520	4671.040527	5954.546387	134.153214
823.212769	919.124695	5158.243652	6528.014160	132.312622
823.518494	929.452698	5283.220703	6520.212402	128.411987
823.824097	916.003906	5040.250488	5995.783691	123.168671
824.129700	914.666504	4609.295410	5242.428223	117.136574
824.435242	900.177429	4088.507080	4432.306152	110.783051
824.740723	905.378723	3635.557861	3757.488525	104.466034
825.046082	897.799805	3259.437500	3243.462158	99.323547
825.351501	894.604797	2959.774658	2897.583008	96.988548
825.656799	891.186829	2725.572510	2680.247803	97.529160
825.962036	896.833801	2524.806396	2542.044678	101.058884
826.267212	910.802734	2394.256592	2482.230713	105.930359
826.572449	924.028625	2328.127197	2483.865723	111.091705
826.877502	928.486816	2364.089844	2600.223877	116.448418
827.182495	936.214294	2503.630127	2826.326904	120.587822
827.487488	936.660095	2669.399414	3103.401611	125.047173
827.792419	938.220459	2829.150391	3328.390625	126.401840
828.097290	915.781067	2868.902344	3374.383789	125.880699
828.402100	910.431335	2834.574463	3270.136719	122.636688
828.706848	919.198975	2687.380859	3042.993408	120.111763
829.011597	922.022522	2506.453857	2752.246826	115.513008
829.316223	910.208313	2294.393799	2462.540527	112.147705
829.620789	904.264160	2136.723389	2210.580078	105.992630
829.925354	910.356934	2010.260132	2046.519897	103.296631
830.229797	931.013184	1920.056641	1934.991333	101.510017
830.534302	954.046936	1841.741577	1865.518433	102.678497
830.838562	942.752930	1743.736328	1797.531250	106.716110
831.142944	928.561096	1668.318970	1741.953003	109.953804
831.447144	903.446777	1593.644897	1688.603516	113.758171
831.751404	905.378662	1570.165039	1664.529663	114.194733
832.055542	913.180420	1549.360352	1645.953735	115.183342
832.359619	909.985352	1538.363647	1648.777344	117.571213
832.663635	922.319641	1542.821655	1673.891724	121.123230
832.967651	916.895569	1568.901978	1711.711792	121.903130
833.271545	915.260925	1616.455688	1785.122925	124.054260
833.575439	903.446777	1695.365234	1887.883423	124.310356
833.879211	900.103210	1820.119507	2061.306152	126.215469
834.183044	902.926697	1968.353516	2254.641846	126.870766
834.486694	896.685242	2095.262451	2405.847656	125.912827
834.790344	920.462158	2173.428955	2476.435303	124.183113
835.093933	920.387878	2166.072998	2425.686768	120.841042
835.397522	930.641602	2088.129639	2306.802246	118.891998
835.700928	902.555176	1971.177124	2135.608887	115.387268
836.004395	919.124695	1876.218140	2007.139526	113.679070
836.307739	918.307373	1787.129272	1880.453247	110.741440
836.611023	921.279480	1716.764282	1782.745117	108.294418
836.914307	907.459167	1640.827026	1685.408691	106.079033
837.217529	920.016296	1601.297974	1640.752563	105.791229
837.520691	926.926453	1546.313843	1591.638550	107.317665
837.823730	919.198975	1491.775757	1539.775269	108.383072
838.126831	909.539612	1429.955688	1490.586914	111.650528
838.429749	908.870911	1397.931274	1465.323853	113.780014
838.732727	918.753235	1381.287476	1448.605835	114.554245
839.035522	916.003967	1369.622070	1431.887695	113.726440
839.338379	916.672668	1355.578857	1421.336792	114.982231
839.641113	910.431335	1357.436401	1416.284180	113.164902
839.943848	909.093811	1378.389648	1448.085571	114.851173
840.246460	902.852356	1405.361694	1483.528198	115.555237
840.549072	903.669678	1437.014526	1538.809204	119.086090
840.851563	911.917297	1454.772827	1566.598633	120.599548
841.154053	916.078308	1462.277466	1579.898804	121.534515
841.456482	922.245422	1437.609009	1557.607910	123.284317
841.758850	916.672668	1410.117065	1515.478149	121.352173
842.061157	911.694336	1378.686890	1464.283569	118.329346
842.363403	903.966858	1359.962646	1416.432739	112.383904
842.665588	896.462341	1327.715210	1373.411499	110.596169
842.967712	904.041260	1308.025024	1349.188843	110.189476
843.269775	906.939148	1282.910767	1329.944336	112.509872
843.571777	912.437500	1271.988281	1316.792847	112.461266
843.873840	913.106140	1263.592163	1298.588745	109.985161
844.175659	920.907959	1260.842896	1294.279175	109.836082
844.477600	936.660156	1267.455933	1300.817749	110.085320
844.779297	937.700378	1247.914185	1300.223389	116.862305
845.081116	939.855164	1237.140259	1297.251221	120.219971
845.382751	924.548767	1221.536743	1282.984985	120.690483
845.684387	910.877014	1214.849487	1258.390991	114.324158
845.985962	899.954529	1196.050903	1239.146484	114.554581
846.287537	901.737793	1174.205811	1217.672974	115.953125
846.588989	908.499329	1172.794067	1221.759644	118.526886
846.890381	909.539612	1175.394653	1214.032227	114.533325
847.191711	907.236145	1179.630005	1221.239624	115.275536
847.493042	915.112305	1178.218262	1221.239624	116.351341
847.794250	925.811829	1193.450317	1231.641968	114.269867
848.095459	930.270020	1189.363647	1224.731812	113.650726
848.396606	920.462097	1184.385376	1211.654419	110.332184
848.697693	907.459167	1161.574585	1200.063110	115.146080
848.998657	909.168152	1160.237061	1195.604980	114.086937
849.299622	920.016296	1157.562134	1208.013672	121.238655
849.600464	929.972839	1151.171997	1199.617432	121.901276
849.901367	921.576660	1147.011108	1194.341919	120.995377
850.202087	915.483826	1151.469238	1184.459595	113.979828
850.502808	911.768738	1157.636353	1190.775391	113.478409
850.803467	911.545837	1161.054199	1186.985962	110.393143
851.104065	927.298035	1166.255493	1205.413086	116.386848
851.404663	928.858398	1170.490723	1204.744263	114.175896
851.705139	929.007019	1164.472290	1199.617432	114.925827
852.005615	916.301086	1149.983276	1185.276978	115.103294
852.306030	912.586121	1144.410522	1178.292480	114.615356
852.606384	918.753174	1149.611694	1194.787842	119.568756
852.906616	924.697327	1156.819092	1196.422485	117.061470
853.206909	931.013123	1158.007935	1193.970459	115.842880
853.506958	925.068848	1152.732422	1178.589722	111.357681
853.807129	917.267090	1138.763550	1163.654907	111.237816
854.107178	909.093750	1134.230957	1164.100830	113.267410
854.407166	909.093750	1134.230957	1167.741577	114.884529
854.707092	905.081482	1136.162964	1168.707520	114.083588
855.007019	901.737793	1134.008179	1169.896362	115.451035
855.306763	910.951355	1127.246582	1164.323608	117.141861
855.606567	909.911133	1120.262085	1146.268066	112.363136
855.906250	908.945251	1110.305542	1133.785156	111.660500
856.205933	900.177429	1110.082642	1139.506470	114.017677
856.505493	905.824463	1115.655273	1153.995483	118.271965
856.805054	916.969788	1124.274414	1166.998535	120.609344
857.104492	923.434265	1125.389038	1166.552612	120.382568
857.403931	922.096741	1119.073242	1161.574463	121.576797
857.703308	912.288757	1120.782104	1147.828491	112.972305
858.002563	906.493164	1123.011353	1139.432251	107.584076
858.301819	909.911133	1129.327026	1143.667480	106.535744
858.601013	918.307312	1126.652222	1147.234009	109.878708
858.900208	922.245361	1121.525269	1146.045044	112.304192
859.199219	918.381653	1118.924683	1140.546753	110.781761
859.498291	923.137024	1122.491211	1142.701538	110.137901
859.797302	924.102966	1129.772949	1151.840698	110.729691
860.096191	933.019226	1141.958618	1165.363892	111.201942
860.395020	926.257751	1132.224854	1160.534180	113.744583
860.693787	917.489990	1125.983398	1147.902710	110.513191
860.992554	899.805969	1111.642944	1125.686157	106.629257
861.291260	902.480896	1116.844116	1136.757324	109.289467
861.589844	911.025696	1122.119629	1140.472534	108.694191
861.888428	923.582825	1127.543823	1141.735596	106.958084
862.186890	919.347595	1131.110352	1135.419800	102.035034
862.485413	912.511719	1127.469604	1140.175293	105.910782
862.783813	907.013367	1127.395142	1149.017334	109.811241
863.082153	908.499329	1127.395142	1150.577637	110.590652
863.380371	912.437439	1130.441528	1145.376465	106.850761
863.678589	908.350769	1123.902954	1148.720093	111.513283
863.976746	904.338379	1119.296265	1141.364136	110.266136
864.274902	909.836731	1116.026855	1143.593140	113.369354
864.572937	918.010071	1122.342651	1140.323853	108.799965
864.870911	931.161682	1128.138184	1157.859375	115.088699
865.168884	915.855286	1124.943237	1154.441406	114.108017
865.466736	897.428223	1109.934082	1153.549805	120.524483
865.764587	881.601807	1098.862915	1137.648926	117.852257
866.062317	886.208496	1102.206665	1146.342407	120.433388
866.360107	900.103088	1113.946411	1148.497192	116.157051
866.657715	900.474609	1114.615112	1149.834595	116.446907
866.955322	900.549011	1103.395386	1134.751099	115.457863
867.252808	901.514954	1095.519409	1132.299194	118.958214
867.550293	912.660217	1095.445190	1128.955566	118.333221
867.847717	907.607727	1099.308716	1123.828613	112.790703
868.145081	910.802734	1098.119995	1113.203491	108.052376
868.442383	903.223877	1097.971313	1108.002075	105.150650
868.739624	914.072083	1101.091919	1123.085571	111.760063
869.036804	923.062683	1109.785400	1137.277466	114.723473
869.333984	922.393982	1106.144653	1133.487915	114.880630
869.631042	911.322937	1103.172485	1121.005005	109.295052
869.928101	900.846191	1095.519409	1113.872070	109.427422
870.224976	897.799805	1088.757813	1114.020630	113.229515
870.521851	943.644592	1121.005127	1152.509521	117.762909
870.818726	939.186340	1121.748169	1152.658203	116.931267
871.115479	947.954102	1136.162964	1165.363892	115.515175
871.412231	917.787170	1110.528442	1142.107056	116.383942
871.708862	921.279480	1113.946411	1133.562378	110.181282
872.005493	915.929688	1111.568726	1125.611938	107.178123
872.302063	908.499329	1105.921753	1117.661621	105.946571
872.598572	909.093750	1108.819458	1126.726440	108.965790
872.895020	906.938965	1107.184937	1126.429321	109.610374
873.191406	913.700500	1116.695679	1128.286743	105.710022
873.487671	913.329041	1110.454102	1122.045410	105.880180
873.783997	915.558044	1114.020630	1123.680054	104.867126
874.080200	900.549011	1101.909302	1122.416870	110.184517
874.376343	893.415955	1104.732788	1120.707886	107.559784
874.672424	906.195984	1114.392212	1132.447754	108.672371
874.968445	925.663269	1126.503540	1134.008179	103.736618
875.264465	927.966614	1129.698608	1141.735474	105.966759
875.560364	917.415710	1122.639771	1129.178345	103.186066
875.856201	898.022644	1117.884399	1118.924683	100.473152
876.152039	901.514954	1121.079468	1119.519043	99.289307
876.447754	897.502625	1122.713989	1123.457153	100.329987
876.743469	910.505554	1137.871826	1140.918335	101.339912
877.039063	899.285828	1130.441528	1136.162964	102.475143
877.334595	903.595398	1123.382813	1136.831665	106.119026
877.630127	898.245605	1108.522339	1128.286865	109.399292
877.925537	909.836853	1117.735840	1132.596313	107.147926
878.221008	905.601563	1121.822388	1124.943237	101.443359
878.516296	898.245605	1111.122925	1131.110352	109.389175
878.811646	894.753418	1113.723511	1132.893677	108.754700
879.106812	900.846191	1122.416870	1154.961548	114.688171
879.401978	905.304382	1128.807007	1150.874878	109.873650
879.697083	905.527344	1134.528320	1168.781738	114.957764
879.992126	905.750183	1155.333008	1198.577148	117.326569
880.287109	909.985535	1197.759888	1251.926392	118.822563
880.582031	918.233093	1244.199097	1313.003296	121.107780
880.876892	917.267090	1318.204590	1401.052124	120.663452
881.171753	913.180420	1467.330078	1583.093750	120.890327
881.466492	919.050293	1712.454712	1896.354126	123.178520
881.761230	916.152527	2033.665527	2289.118408	122.859055
882.055786	913.923523	2360.597412	2685.151611	122.434509
882.350403	898.617188	2598.217529	2940.158936	120.118927
882.644958	895.124939	2687.455322	2999.377930	117.403191
882.939453	900.400391	2630.390625	2859.391602	113.237122
883.233826	908.722229	2487.209229	2603.641602	107.376198
883.528137	907.087585	2315.495850	2318.690674	100.226837
883.822449	908.870911	2153.070068	2066.581787	93.048676
884.116577	900.177429	2001.640991	1851.921021	86.407173
884.410828	897.799805	1866.038452	1697.519897	82.595352
884.704956	902.332275	1750.794922	1569.125000	78.588341
884.999023	903.669678	1635.031250	1477.732422	78.492332
885.292969	908.350830	1529.744263	1398.005737	78.799500
885.586914	901.663574	1431.962036	1335.814331	81.869133
885.880798	909.688232	1367.021484	1312.706177	88.123474
886.174622	913.774841	1331.653320	1286.105835	89.100304
886.468384	910.431152	1292.792969	1269.907837	94.014793
886.762085	903.149597	1262.848999	1232.161987	91.468704
887.055664	897.279602	1223.171387	1215.592407	97.674385
887.349304	893.861633	1208.385132	1191.072754	94.495682
887.642822	897.056641	1195.456543	1171.753906	92.056755
887.936340	896.833801	1189.809448	1157.636353	89.018509
888.229736	901.737793	1174.280273	1148.571411	90.567024
888.523071	896.611023	1163.952026	1142.924438	92.134544
888.816284	921.873840	1170.193481	1148.422974	91.232872
889.109619	931.607483	1175.469116	1149.760376	89.457649
889.402710	946.245117	1161.351563	1143.147339	91.537109
889.695862	924.400085	1132.299194	1118.553223	93.388153
889.988892	909.465271	1112.460327	1101.612183	94.655960
890.281921	886.951538	1113.649170	1091.581299	90.265503
>>>>>End Processed Spectral Data<<<<<
