Jaz Data File
++++++++++++++++++++++++++++++++++++
Date: Fri Jun 04 14:08:53 2021
User: jaz
Dark Spectrum Present: Yes
Reference Spectrum Present: Yes
Processed Spectrum Present: Yes
Spectrometers: JAZA3586
Integration Time (usec): 519000 (JAZA3586)
Spectra Averaged: 10 (JAZA3586)
Boxcar Smoothing: 1 (JAZA3586)
Correct for Electrical Dark: No (JAZA3586)
Strobe/Lamp Enabled: Yes (JAZA3586)
Correct for Detector Non-linearity: No (JAZA3586)
Correct for Stray Light: No (JAZA3586)
Number of Pixels in Processed Spectrum: 2048
>>>>>Begin Processed Spectral Data<<<<<
W	D	R	S	P
191.335022	0.000000	0.000000	0.000000	0.000000
191.713211	267.935577	267.712708	260.653931	3267.218994
192.091385	537.060059	543.450073	528.069397	-140.698608
192.469528	806.704590	817.404236	797.862610	-82.638062
192.847641	811.831543	822.010986	806.555969	-51.825760
193.225739	843.335876	843.707458	831.001648	-3319.382324
193.603790	875.583252	872.536865	852.177917	768.298218
193.981842	902.852356	903.000977	878.480957	-16398.398438
194.359863	902.703796	908.202148	891.409668	-205.409332
194.737854	915.038025	914.592224	914.815125	50.000000
195.115829	908.276428	906.047363	908.499329	-9.999726
195.493774	909.762512	901.737793	894.976318	184.258087
195.871704	903.000977	893.490234	877.738098	265.624664
196.249603	921.353699	915.558105	904.264160	294.871246
196.627457	928.115234	915.409485	905.155762	180.701447
197.005310	926.629211	920.090576	901.217590	388.638000
197.383133	919.570496	905.675842	884.722473	250.801666
197.760910	930.121399	927.075012	912.214539	587.806519
198.138687	927.669434	931.310242	920.610657	-193.879395
198.516449	922.096863	932.944885	914.146301	-73.290421
198.894180	908.870911	909.985413	882.196106	-2393.428223
199.271866	910.356934	900.325989	874.022888	362.219574
199.649536	907.161926	890.666687	873.279846	205.405212
200.027191	909.019531	902.778015	888.809143	323.805756
200.404816	893.936035	900.623230	890.666687	-48.889679
200.782410	896.982422	916.672668	898.171204	6.037414
201.159988	890.072266	922.245361	901.663513	36.027767
201.537537	897.279602	942.455750	906.716064	20.888151
201.915070	892.524231	945.576416	908.276428	29.691891
202.292557	880.933044	940.746765	900.846191	33.291939
202.670029	883.607910	936.139954	908.870911	48.090649
203.047485	881.824707	928.189636	896.908203	32.532124
203.424911	885.465515	931.756104	897.279785	25.521971
203.802292	889.775085	937.031677	896.462402	14.151077
204.179688	888.140442	941.935608	900.251770	22.513784
204.557037	902.926697	940.078064	894.827637	-21.800167
204.934357	898.617126	937.774658	884.722473	-35.483986
205.311661	902.183594	935.842773	884.499512	-52.538662
205.688934	904.115479	943.050110	882.939209	-54.389290
206.066177	896.759521	925.366150	872.388245	-85.194511
206.443390	892.078430	922.691223	870.604980	-70.145348
206.820587	870.233459	912.957520	865.403809	-11.304288
207.197769	882.790710	927.520813	884.053772	2.823739
207.574921	892.078430	931.384705	891.484070	-1.512126
207.952042	900.400391	933.390808	891.855530	-25.901039
208.329147	897.428223	944.907715	885.911316	-24.256592
208.706223	1063.123413	1120.187866	1059.110962	-7.031437
209.083267	1066.838501	1134.528198	1080.212891	19.758383
209.460297	1066.615601	1132.224854	1081.104614	22.083796
209.837280	889.700867	952.858093	904.858643	24.000065
210.214264	879.521301	940.969727	886.505859	11.366537
210.591217	868.598816	922.096741	878.332458	18.194429
210.968124	882.790710	940.523743	891.335449	14.800433
211.345016	894.753418	945.427734	903.298157	16.862070
211.721893	891.335449	951.594910	898.394226	11.713973
212.098724	887.991760	941.638367	899.880310	22.160860
212.475555	889.552185	947.879822	903.595398	24.076431
212.852356	897.799805	956.944763	917.267090	32.914532
213.229126	893.044434	957.390625	916.747009	36.836021
213.605865	879.149841	938.591980	906.567566	46.125065
213.982590	872.313965	927.520813	903.966980	57.335304
214.359283	868.970398	915.038025	886.431458	37.903103
214.735931	874.468750	921.130859	887.025879	26.910761
215.112579	886.431458	934.876770	886.728699	0.613560
215.489197	890.220886	951.223450	899.062927	14.494540
215.865799	887.471680	948.994385	903.446777	25.966183
216.242355	875.583252	942.752930	899.434387	35.508781
216.618896	880.933105	947.805603	893.936035	19.444361
216.995407	882.790588	955.458679	886.357117	4.907970
217.371902	880.561523	951.743469	883.905212	4.697383
217.748367	876.549133	942.901550	880.710205	6.271168
218.124802	879.744202	943.124451	881.081726	2.110317
218.501236	882.344727	942.678711	872.536926	-16.255848
218.877609	876.400574	938.889343	869.862000	-10.463599
219.253983	870.827881	939.112122	866.369690	-6.528872
219.630295	878.703918	945.353516	871.050781	-11.482646
220.006592	884.871094	950.703308	872.016663	-19.526051
220.382889	887.917480	949.885986	881.898926	-9.712280
220.759140	884.053711	948.845703	887.620300	5.504676
221.135391	889.032043	952.709473	892.375671	5.250884
221.511581	879.224121	948.325500	885.465515	9.032228
221.887772	879.818542	952.560852	887.694519	10.827229
222.263931	885.242615	970.987976	896.090820	12.651653
222.640060	899.211487	989.043457	906.418884	8.023199
223.016159	896.982422	999.445862	906.864746	9.644732
223.392212	888.214661	991.718445	899.731628	11.127098
223.768265	878.778259	994.096008	896.165039	15.077280
224.144302	876.400635	991.346924	892.895813	14.350335
224.520294	868.524597	983.842468	891.781250	20.167431
224.896286	879.224121	996.250977	903.743958	20.952316
225.272217	891.261047	1019.581970	918.158691	20.961229
225.648148	909.390930	1053.984009	933.390686	16.598137
226.024048	899.211487	1054.801392	919.421875	12.989524
226.399902	890.815247	1059.185303	912.511719	12.886182
226.775772	870.233459	1063.569214	904.932922	17.947773
227.151581	876.252014	1096.856812	916.449707	18.221586
227.527374	873.651428	1114.615112	923.359924	20.629040
227.903137	880.933105	1156.670532	933.093506	18.916693
228.278870	884.425293	1201.697998	943.718811	18.688503
228.654572	880.041504	1274.217407	961.551514	20.678587
229.030273	879.669922	1355.281616	979.978699	21.090477
229.405930	871.570984	1439.317993	988.300537	20.560135
229.781555	878.926941	1512.432007	1001.006287	19.270460
230.157181	874.988831	1530.041626	992.981628	18.012716
230.532761	879.149719	1493.187500	989.786621	18.017931
230.908325	869.787598	1432.556641	967.272766	17.322411
231.283859	882.419128	1387.306274	979.830017	19.293596
231.659332	884.499573	1359.739868	978.418213	19.762348
232.034821	890.369568	1335.368530	977.006531	19.469027
232.410263	877.143616	1308.842407	951.520691	17.228928
232.785690	877.292236	1291.604248	944.387512	16.194384
233.161087	877.217957	1273.697266	949.440186	18.215889
233.536469	880.710205	1254.898682	956.275940	20.194565
233.911804	883.979492	1256.384644	957.019043	19.612926
234.287140	880.041504	1268.941895	955.830139	19.487930
234.662430	888.289063	1307.356323	964.895081	18.280125
235.037704	875.583313	1319.541992	969.204651	21.087849
235.412933	877.292236	1317.238647	966.381165	20.249950
235.788162	860.871399	1310.551392	951.966492	20.257759
236.163345	874.320129	1310.922974	958.430847	19.264812
236.538513	884.276672	1333.436646	974.257141	20.033056
236.913635	889.403564	1336.334473	989.043457	22.294250
237.288742	890.072266	1351.269409	1000.857605	24.021254
237.663834	883.830872	1348.371582	1001.006287	25.223928
238.038879	882.196228	1352.235229	995.507996	24.106886
238.413910	875.063171	1342.724487	981.167480	22.688280
238.788910	877.812317	1359.814087	977.080811	20.595047
239.163879	878.852600	1371.033813	977.377991	20.018112
239.538834	871.199402	1391.467163	981.241760	21.151100
239.913757	874.691589	1422.005493	1001.229187	23.119749
240.288651	875.583191	1468.816284	1015.643860	23.609720
240.663528	877.217957	1537.992188	1033.179321	23.602821
241.038361	864.883606	1596.245483	1025.674805	21.985176
241.413177	867.187012	1695.959595	1052.795288	22.395561
241.787979	864.586487	1799.686157	1079.618530	22.995628
242.162735	874.691589	1933.282593	1116.026978	22.797792
242.537476	870.010559	2040.575684	1132.967896	22.464134
242.912170	896.982422	2177.292725	1176.880737	21.861755
243.286865	902.703796	2232.945557	1196.125244	22.057755
243.661514	907.161926	2242.307373	1204.372925	22.260571
244.036148	900.920471	2153.664307	1166.404175	21.192177
244.410751	891.335449	2062.271973	1138.912109	21.143475
244.785339	886.802979	1965.901367	1103.395386	20.071609
245.159882	879.669922	1930.087524	1106.813354	21.624107
245.534378	892.449951	1957.653687	1124.051636	21.742477
245.908890	890.146545	2059.968750	1157.785034	22.878559
246.283356	883.310730	2216.747314	1190.478149	23.035774
246.657791	867.558594	2437.946533	1242.341431	23.865622
247.032196	875.508972	2692.582275	1311.220093	23.978731
247.406586	872.165344	2925.892578	1352.160889	23.371922
247.780960	873.279846	3091.513428	1378.538452	22.777519
248.155289	868.598877	3118.410889	1375.566406	22.533773
248.529602	866.444031	3021.817383	1354.018555	22.621349
248.903870	869.936218	2823.354492	1305.944580	22.320278
249.278122	867.261414	2606.167969	1250.514771	22.039906
249.652344	862.877502	2415.655762	1203.258179	21.920752
250.026550	862.877441	2276.263916	1182.973511	22.647455
250.400711	888.363281	2187.249268	1182.379150	22.636003
250.774857	894.456116	2120.154053	1175.543335	22.932829
251.148987	892.152771	2085.157471	1161.277222	22.558542
251.523071	865.923889	2081.813721	1144.930664	22.946714
251.897125	881.601746	2129.887451	1176.434937	23.619049
252.271164	876.920715	2195.273926	1190.849731	23.812208
252.645187	876.177673	2252.263916	1198.354370	23.412539
253.019165	858.419250	2267.793213	1177.549561	22.643408
253.393112	883.162109	2262.220703	1194.193359	22.553883
253.767044	885.539856	2178.407227	1187.803223	23.379301
254.140930	894.010315	2094.073975	1187.654663	24.469063
254.514801	878.926941	1991.015747	1157.116333	25.015032
254.888657	883.905212	1956.464844	1138.837891	23.768627
255.262466	876.326355	1927.041016	1118.924683	23.088888
255.636276	894.753357	1942.941772	1135.122681	22.931881
256.010010	910.282532	1968.873413	1152.806641	22.910089
256.383759	922.765442	2022.148438	1172.125366	22.681805
256.757446	900.474670	2070.965576	1173.462891	23.322540
257.131134	889.626465	2131.893555	1185.574219	23.823198
257.504791	877.515137	2215.632568	1205.338745	24.498867
257.878418	872.982727	2333.551270	1229.189819	24.388248
258.252014	875.508972	2494.342529	1279.195679	24.936888
258.625580	886.951660	2686.563477	1341.684204	25.268368
258.999115	879.967102	2915.416016	1400.234741	25.560339
259.372650	870.456360	3182.980225	1467.032837	25.797634
259.746124	864.809387	3481.454102	1524.245972	25.201609
260.119598	864.140625	3785.575439	1585.991577	24.708782
260.493042	865.775208	3991.319336	1613.037720	23.908237
260.866425	862.357239	4040.284912	1609.471069	23.509466
261.239838	869.341797	3866.639404	1569.496460	23.359531
261.613159	861.985840	3582.802734	1509.756836	23.807961
261.986511	864.289307	3283.214111	1445.633789	24.033176
262.359802	864.809387	3051.538330	1392.507324	24.131840
262.733063	865.924011	2896.989014	1354.018555	24.031460
263.106293	870.084961	2793.559326	1334.774048	24.158840
263.479523	884.573914	2749.126221	1327.269409	23.742723
263.852692	888.066162	2718.142090	1328.086792	24.043846
264.225861	871.125183	2683.591553	1317.981689	24.654610
264.598969	874.320129	2652.458740	1310.254272	24.516319
264.972076	871.645203	2641.833252	1306.390503	24.559273
265.345154	881.750305	2670.811279	1328.161133	24.952242
265.718201	867.112793	2715.021484	1343.318848	25.769999
266.091217	901.143372	2824.469482	1392.432983	25.543749
266.464203	903.372559	2931.019531	1416.135620	25.288576
266.837158	902.332214	3041.804688	1437.906250	25.032995
267.210114	871.199402	3120.639893	1423.565918	24.555731
267.583038	873.502747	3181.122314	1426.315063	23.955956
267.955902	870.604980	3213.147217	1435.751465	24.125349
268.328766	881.155945	3208.168701	1443.404663	24.161825
268.701569	877.292236	3200.143799	1434.339722	23.981192
269.074371	878.406738	3198.955078	1433.893921	23.937756
269.447144	868.598816	3230.385010	1434.785522	23.972818
269.819885	863.769226	3292.725342	1454.921753	24.337721
270.192596	864.958008	3395.708740	1491.181274	24.744566
270.565277	890.146667	3550.852783	1555.676147	25.013266
270.937927	892.747131	3735.123047	1609.471191	25.215668
271.310577	893.118652	3948.966553	1653.384155	24.879036
271.683136	870.307800	4153.447754	1692.318848	25.037344
272.055725	869.862000	4307.625977	1709.779907	24.432100
272.428284	869.638977	4343.291504	1703.464233	24.004278
272.800812	863.694824	4277.235840	1675.897827	23.793562
273.173279	868.301575	4140.890625	1658.511108	24.146311
273.545776	871.570862	4038.352783	1637.929199	24.199909
273.918152	886.654358	3939.901611	1622.771484	24.109318
274.290558	882.493408	3875.852783	1600.852051	23.998409
274.662964	883.756531	3799.544189	1581.904907	23.943733
275.035278	875.211731	3758.529053	1555.824585	23.605200
275.407593	880.190125	3768.559814	1562.437500	23.620501
275.779907	884.276672	3840.707764	1591.341431	23.916159
276.152161	878.852600	3895.394531	1609.842773	24.232719
276.524384	879.372620	3979.207764	1621.434082	23.938740
276.896606	874.914551	4027.950439	1621.136719	23.666782
277.268799	879.818542	4085.237549	1625.297852	23.256845
277.640930	872.611145	4090.439209	1627.155273	23.448864
278.013031	873.428467	4085.832764	1632.728027	23.636488
278.385162	866.889832	4072.904053	1635.477173	23.973299
278.757233	871.868164	4064.358643	1632.579468	23.828146
279.129272	867.855774	4085.906494	1640.752808	24.017553
279.501282	871.050842	4108.940430	1639.341187	23.728121
279.873230	869.490479	4170.463379	1663.192383	24.044483
280.245178	864.958008	4265.570801	1687.192017	24.178995
280.617126	872.016785	4425.172852	1749.977905	24.709332
280.988983	868.004395	4597.332520	1787.723511	24.661791
281.360870	893.193054	4778.631348	1845.530884	24.510435
281.732697	883.830872	4945.663574	1878.744141	24.494196
282.104492	887.100281	5074.355957	1918.347534	24.628237
282.476288	873.502747	5156.831543	1919.462280	24.419313
282.848053	878.555420	5181.648926	1933.282593	24.510904
283.219757	884.351013	5183.135254	1931.350586	24.355713
283.591461	881.601807	5136.992676	1942.124512	24.921865
283.963135	883.087891	5087.804688	1921.839844	24.704445
284.334747	880.710144	5098.132324	1934.099731	24.977097
284.706360	889.552063	5171.543457	1947.994263	24.718456
285.077942	902.034973	5327.802246	1995.473755	24.706196
285.449524	901.366272	5445.943848	2019.919434	24.612919
285.821014	886.654358	5542.166016	2014.495483	24.225931
286.192535	869.564758	5653.693848	2025.937988	24.171032
286.563995	868.598816	5747.167480	2040.055664	24.012304
286.935425	878.704041	5800.293457	2058.780029	23.977537
287.306824	877.440918	5718.857422	2033.517090	23.878883
287.678223	869.193298	5577.756348	1986.111694	23.721004
288.049561	881.601807	5462.587402	1961.963257	23.583605
288.420898	884.722473	5336.421387	1951.486694	23.963081
288.792145	893.861633	5298.526855	1967.981934	24.385971
289.163452	875.731934	5309.598145	1985.591675	25.031422
289.534668	876.846436	5454.265625	2005.504761	24.657091
289.905914	871.570862	5621.372559	2033.293945	24.458349
290.277039	885.837097	5826.002441	2089.466797	24.364157
290.648193	902.926697	6017.480469	2160.723145	24.592495
291.019318	907.459167	6136.587891	2176.846924	24.275318
291.390381	881.676086	6108.353027	2143.113281	24.134594
291.761475	862.580261	6010.421387	2087.980713	23.804161
292.132507	862.283142	5892.057129	2074.085938	24.092588
292.503510	872.016785	5806.534668	2082.853760	24.538099
292.874481	909.465332	5798.955566	2140.215576	25.171341
293.245422	912.734680	5834.175293	2174.320557	25.634485
293.616364	917.787292	5989.542480	2233.019775	25.932489
293.987213	881.676086	6126.482422	2270.988281	26.489296
294.358093	875.806152	6340.845703	2341.130371	26.812693
294.728943	862.357361	6537.450684	2381.179443	26.762943
295.099731	860.202576	6759.987793	2417.141846	26.389761
295.470490	860.128235	6917.806152	2447.085693	26.197456
295.841248	871.422180	7023.242188	2494.193604	26.378723
296.211975	869.787598	7114.931152	2535.431885	26.671032
296.582642	870.530579	7278.471191	2575.778320	26.611481
296.953308	864.363525	7447.732910	2599.257813	26.352682
297.323883	864.214905	7554.729004	2588.632568	25.774069
297.694519	867.632813	7561.192871	2563.666748	25.338295
298.065063	874.245789	7480.798340	2511.431885	24.781246
298.435608	874.394348	7270.520996	2450.057861	24.634653
298.806122	871.347900	6948.642090	2356.659424	24.440344
299.176575	877.366516	6616.136719	2283.768555	24.507030
299.547028	875.657532	6392.040527	2214.221191	24.265244
299.917450	867.484314	6259.707031	2188.438232	24.497391
300.287872	857.899231	6173.070313	2161.614746	24.528196
300.658234	855.149963	6097.652832	2160.871826	24.906460
301.028564	862.728821	6033.306152	2147.348633	24.844807
301.398865	858.345032	5968.812012	2142.890381	25.135578
301.769135	867.558594	5911.450684	2121.565430	24.861889
302.139374	873.874329	5877.642090	2120.079834	24.905344
302.509583	869.193176	5839.673828	2096.005615	24.681971
302.879791	869.861877	5772.207031	2089.318359	24.874962
303.249939	863.471863	5682.449219	2064.872314	24.930609
303.620087	875.508972	5592.691406	2060.562988	25.122070
303.990173	871.719482	5519.429199	2053.652588	25.430441
304.360260	880.561523	5475.664551	2062.197754	25.715120
304.730286	886.208496	5456.123047	2075.349365	26.021074
305.100281	897.354004	5459.986816	2089.392334	26.126106
305.470276	886.282776	5458.724121	2099.572021	26.534824
305.840179	874.022888	5460.581543	2110.197266	26.952110
306.210144	860.797058	5468.680176	2104.327393	26.987017
306.579987	881.750488	5496.767090	2115.918701	26.742443
306.949890	890.815369	5536.221191	2115.398438	26.361164
307.319702	900.326111	5617.062500	2151.509521	26.526464
307.689484	877.812317	5704.368652	2165.998535	26.689554
308.059265	875.508972	5839.971191	2198.394775	26.647110
308.429016	860.054016	5948.229980	2220.685547	26.741049
308.798737	863.917725	6082.568848	2247.805908	26.518120
309.168396	860.202576	6199.150391	2251.966797	26.068136
309.538055	872.462585	6285.712891	2250.257813	25.452271
309.907684	875.434631	6297.155762	2214.518311	24.698500
310.277313	876.846375	6322.566895	2198.394775	24.267649
310.646851	873.131287	6336.981934	2186.134521	24.030729
311.016388	887.323059	6370.492676	2208.276611	24.091059
311.385895	913.700500	6334.529785	2215.038574	24.006256
311.755371	910.505554	6279.322754	2190.072998	23.833319
312.124817	894.456238	6213.639160	2149.800537	23.600321
312.494232	875.880432	6138.296387	2112.574951	23.500509
312.863617	873.279846	6075.064453	2086.420166	23.321619
313.232971	876.697754	6022.087402	2088.649414	23.554129
313.602295	861.911560	6013.021973	2090.655518	23.853962
313.971619	867.409973	6070.234863	2114.729736	23.973896
314.340820	864.289246	6100.625000	2122.531494	24.029058
314.710083	878.852600	6168.463379	2133.974365	23.728056
315.079285	885.539856	6170.543457	2133.008301	23.603930
315.448486	904.041199	6187.484375	2141.478760	23.421041
315.817596	912.065918	6070.086426	2117.256104	23.365362
316.186707	907.904968	5901.642090	2077.503906	23.421314
316.555786	890.072266	5695.525879	2029.727539	23.715874
316.924866	878.481018	5517.720215	2007.213745	24.330124
317.293884	881.304504	5430.042969	2004.093140	24.683517
317.662872	889.552185	5398.835449	2005.579102	24.749540
318.031830	875.583252	5429.448242	2013.752441	24.993475
318.400757	878.852539	5474.996094	2041.170288	25.288979
318.769684	867.112793	5520.470215	2054.098877	25.508165
319.138550	864.586426	5529.832031	2057.665283	25.573763
319.507416	859.905334	5513.335938	2057.070801	25.726515
319.876190	855.521484	5490.599609	2037.455078	25.499756
320.244995	887.025879	5484.209473	2042.359009	25.131325
320.613770	887.694580	5437.770508	2008.699829	24.637066
320.982483	898.171204	5387.839355	2006.842285	24.693834
321.351166	876.623474	5320.148926	1984.328491	24.928518
321.719818	873.651367	5312.198730	1982.322266	24.978237
322.088440	869.490417	5362.204590	1995.325195	25.059120
322.457062	872.908386	5475.962402	2022.817261	24.981434
322.825623	881.378906	5633.781250	2082.928223	25.282988
323.194183	875.806152	5803.414063	2115.918701	25.166624
323.562653	875.657532	5965.988281	2142.816162	24.893446
323.931183	868.747498	6092.674316	2138.729492	24.310867
324.299591	867.335632	6180.128906	2142.741943	24.006321
324.668060	868.004333	6210.742188	2129.144287	23.604750
325.036407	870.679260	6192.463379	2106.927979	23.229969
325.404755	875.806152	6122.989746	2075.349365	22.860706
325.773102	866.146790	6025.802246	2025.566528	22.470875
326.141388	869.118958	5919.103516	1995.176758	22.298244
326.509674	868.153015	5820.949707	1967.610352	22.198715
326.877899	876.623535	5758.238281	1956.687866	22.125145
327.246124	868.004395	5707.488770	1943.907715	22.231775
327.614288	882.790588	5660.529785	1940.415405	22.136511
327.982422	880.338623	5608.146484	1927.115234	22.140846
328.350525	895.867981	5576.122559	1928.675659	22.067339
328.718628	887.471680	5558.661621	1921.022461	22.126070
329.086700	895.273438	5575.602051	1953.195435	22.603584
329.454712	885.911316	5612.827637	1962.557983	22.776936
329.822693	883.979492	5669.148926	1994.805298	23.213928
330.190674	888.140381	5722.349609	2026.458374	23.547140
330.558563	894.901917	5755.786621	2055.287598	23.871904
330.926483	899.360107	5786.695801	2069.702393	23.946426
331.294312	882.121887	5839.524902	2065.467041	23.870266
331.662231	876.995056	5957.220703	2096.154053	23.998125
332.029999	870.679260	6074.990723	2131.001953	24.216896
332.397766	882.047546	6194.023438	2172.091553	24.285576
332.765503	892.970154	6272.041016	2187.695313	24.069679
333.133240	889.106384	6351.248047	2204.487549	24.081783
333.500916	882.344788	6409.056152	2226.778320	24.326105
333.868561	858.047791	6433.575684	2237.254883	24.736797
334.236176	852.920898	6422.281250	2226.332520	24.660131
334.603790	851.657776	6357.341309	2193.639404	24.374479
334.971344	857.527771	6314.468262	2177.812744	24.194599
335.338867	864.140686	6261.712891	2169.787842	24.189528
335.706360	856.933289	6253.911621	2171.497070	24.357401
336.073853	855.595886	6221.812500	2170.085449	24.495647
336.441284	858.939453	6228.500000	2175.509521	24.519140
336.808655	869.639099	6239.273926	2190.815674	24.604588
337.176086	868.375916	6253.168457	2190.889893	24.560165
337.543396	872.016663	6258.964355	2180.487549	24.289654
337.910706	865.923889	6237.268066	2169.862549	24.275837
338.277954	879.447021	6238.828125	2162.729492	23.944603
338.645264	876.029114	6211.410156	2151.138184	23.899120
339.012421	879.075500	6177.305176	2119.262207	23.407570
339.379669	878.183899	6144.760254	2099.943359	23.198364
339.746796	897.205383	6150.630859	2088.649414	22.679377
340.113953	903.966980	6184.587402	2098.531738	22.621672
340.481018	895.199219	6178.494141	2096.599854	22.739609
340.848114	875.731873	6202.196777	2083.596924	22.676672
341.215118	869.193176	6241.502441	2066.358643	22.284002
341.582153	878.035217	6353.402832	2081.070557	21.971773
341.949066	884.053772	6456.312500	2120.748291	22.193775
342.316010	886.357117	6576.385254	2160.723389	22.396482
342.682922	872.016785	6684.941895	2180.487549	22.509676
343.049835	861.391418	6828.271484	2215.855957	22.699713
343.416656	883.459290	7051.550781	2303.681641	23.025314
343.783478	889.106262	7325.282715	2375.532227	23.094862
344.150269	896.759521	7638.616699	2458.751465	23.168570
344.516998	885.911377	7885.747559	2482.825439	22.813593
344.883728	897.056824	8041.412109	2499.320801	22.426991
345.250427	894.381897	8053.671875	2476.509766	22.098949
345.617065	883.979492	7958.490234	2432.968018	21.895346
345.983704	874.988953	7813.525391	2406.293701	22.069563
346.350281	874.765930	7646.344238	2368.250488	22.055193
346.716827	872.611145	7472.921875	2335.408936	22.162561
347.083405	868.970276	7304.923828	2317.353271	22.504560
347.449860	923.211243	7241.691895	2348.931885	22.564297
347.816376	947.359619	7170.955566	2358.739990	22.677893
348.182770	948.028320	7076.368652	2341.724609	22.741823
348.549194	893.490173	6955.402832	2295.433838	23.127083
348.915558	876.846375	6970.635254	2304.424561	23.426773
349.281921	874.765869	7038.399902	2324.411865	23.519341
349.648193	874.245789	7117.011719	2365.650146	23.890120
350.014526	870.233398	7159.364746	2393.513428	24.220833
350.380737	871.496582	7228.243652	2425.760986	24.450624
350.746948	879.521301	7329.592285	2451.395264	24.369873
351.113159	875.063171	7374.024902	2460.608643	24.396902
351.479309	873.428528	7434.210449	2474.206299	24.399193
351.845428	864.512207	7469.800781	2476.212646	24.400152
352.211517	855.447266	7576.053223	2508.608154	24.598391
352.577576	861.465820	7675.099121	2538.180908	24.608238
352.943604	868.004395	7801.710938	2574.366455	24.609667
353.309601	898.022766	7962.354004	2620.136963	24.377598
353.675537	892.450012	8155.540527	2664.569824	24.398979
354.041473	880.487305	8354.671875	2704.247559	24.400793
354.407379	862.506042	8504.837891	2737.089111	24.528940
354.773254	865.032288	8690.743164	2770.674072	24.351038
355.139038	873.205566	8868.549805	2805.299561	24.165237
355.504913	891.781250	9124.151367	2854.933594	23.846745
355.870636	883.236511	9369.499023	2897.732178	23.738314
356.236389	885.985657	9625.842773	2961.632080	23.749203
356.602081	871.570984	9895.785156	3012.826904	23.727894
356.967804	879.149841	10151.757813	3069.891357	23.625946
357.333405	872.016785	10411.965820	3105.333740	23.410154
357.699036	864.363586	10613.846680	3110.980713	23.043449
358.064606	859.608215	10764.161133	3101.395752	22.633911
358.430176	860.574219	10805.622070	3062.535156	22.141281
358.795654	861.465820	10811.714844	3039.352783	21.887764
359.161163	864.066406	10804.209961	3031.253906	21.802376
359.526581	861.317200	10926.512695	3077.024170	22.013552
359.892029	884.202454	11207.153320	3178.670654	22.226864
360.257416	884.276672	11614.852539	3301.195557	22.523664
360.622772	885.316895	12126.055664	3420.525635	22.553757
360.988098	869.267517	12628.937500	3510.952148	22.463934
361.353394	874.617371	13132.262695	3591.496094	22.164768
361.718658	888.437683	13428.953125	3642.393799	21.960468
362.083893	884.350891	13483.863281	3613.490234	21.660675
362.449097	889.997864	13245.054688	3498.246826	21.110781
362.814209	881.527405	12775.833008	3327.870361	20.567347
363.179382	885.242615	12116.840820	3155.339111	20.211695
363.544434	878.183777	11394.323242	3026.869873	20.432270
363.909546	873.576965	10738.303711	2920.022705	20.745085
364.274536	877.143555	10264.326172	2859.391602	21.116539
364.639587	883.905090	9930.186523	2808.197266	21.271639
365.004517	886.134277	9710.622070	2780.853516	21.471151
365.369507	883.830872	9533.187500	2756.556641	21.651621
365.734344	871.199402	9430.129883	2763.541016	22.109556
366.099274	869.638977	9366.750000	2790.661377	22.607948
366.464081	870.827881	9306.861328	2804.407471	22.920483
366.828918	878.332458	9241.103516	2807.973877	23.074184
367.193665	885.094055	9161.600586	2783.454346	22.936733
367.558411	898.840027	9105.575195	2792.370850	23.072887
367.923126	894.902039	9018.567383	2774.760742	23.140522
368.287781	905.675964	8944.487305	2779.887451	23.314533
368.652435	884.871094	8833.033203	2749.423096	23.458908
369.017059	896.908203	8784.884766	2751.801514	23.515451
369.381653	897.131104	8744.910156	2763.763916	23.785490
369.746185	901.440735	8759.844727	2792.816406	24.068192
370.110687	895.793701	8778.049805	2827.292725	24.504395
370.475220	881.601868	8824.786133	2842.822266	24.690609
370.839661	890.889648	8931.038086	2880.048096	24.740320
371.204041	888.809265	9029.118164	2897.955078	24.681442
371.568451	885.614075	9089.303711	2905.533936	24.622091
371.932770	870.307800	9095.841797	2895.874268	24.625347
372.297150	878.258118	9089.823242	2882.425049	24.406637
372.661377	878.332458	9092.646484	2874.029297	24.295355
373.025696	885.985596	9079.867188	2860.357422	24.095684
373.389862	872.388184	9067.979492	2849.063721	24.118765
373.754059	888.734863	9105.129883	2866.227539	24.067646
374.118225	876.772156	9172.373047	2864.592529	23.962343
374.482361	877.069336	9312.136719	2903.229736	24.020678
374.846436	855.224304	9467.281250	2929.384766	24.084379
375.210510	862.283020	9706.312500	2997.074463	24.138224
375.574524	876.772156	9971.499023	3064.244141	24.052092
375.938538	889.552246	10282.530273	3142.187500	23.982119
376.302460	891.632629	10574.094727	3214.112549	23.986462
376.666412	894.604797	10851.763672	3273.035156	23.886637
377.030304	894.827637	11057.062500	3293.988281	23.608593
377.394196	894.307617	11155.067383	3277.418945	23.225487
377.757996	891.409668	11174.980469	3223.177734	22.674694
378.121796	885.762756	11032.468750	3136.317627	22.180153
378.485565	887.100159	10840.543945	3042.324951	21.653057
378.849304	864.289246	10520.670898	2945.136719	21.548935
379.212982	863.992004	10268.264648	2870.908447	21.340475
379.576630	870.753601	10003.152344	2831.304932	21.468088
379.940277	889.997986	9860.713867	2811.912109	21.424311
380.303864	892.227051	9723.700195	2812.134766	21.739384
380.667450	881.230286	9692.567383	2812.283936	21.915558
381.030945	873.577087	9647.614258	2796.754639	21.918959
381.394501	891.261169	9685.954102	2803.590088	21.744122
381.757935	915.483887	9708.913086	2817.856445	21.634022
382.121399	921.651062	9756.690430	2837.026611	21.679310
382.484741	914.072083	9878.621094	2876.852783	21.894920
382.848145	887.545959	9972.316406	2908.802979	22.248852
383.211487	884.796814	10091.944336	2958.437256	22.522072
383.574768	872.611145	10217.069336	2996.926025	22.733421
383.938019	870.604980	10319.384766	3035.043213	22.907066
384.301270	871.050781	10432.176758	3068.033936	22.978289
384.664459	870.902161	10453.278320	3094.856689	23.208801
385.027649	879.372742	10492.956055	3156.305420	23.684536
385.390778	885.391174	10560.051758	3256.688232	24.510391
385.753876	897.131042	10638.886719	3353.653320	25.216421
386.116943	894.010254	10727.009766	3438.061279	25.872581
386.479980	889.775085	10773.894531	3505.602295	26.464949
386.842987	888.586182	10858.599609	3606.654053	27.262428
387.205994	897.651184	10941.000977	3696.411377	27.866800
387.568909	889.032043	10989.149414	3791.816406	28.740107
387.931793	882.493408	10942.562500	3851.704346	29.514816
388.294678	873.056946	10885.720703	3926.675781	30.497566
388.657471	876.846375	10863.355469	4021.931641	31.493340
389.020294	895.496338	10848.270508	4162.661621	32.826679
389.383057	906.418884	10930.523438	4324.121094	34.094837
389.745819	907.013367	10990.858398	4487.364258	35.505810
390.108521	896.388000	11169.333008	4681.888184	36.849220
390.471191	889.626465	11355.015625	4902.344238	38.342751
390.833801	885.911316	11613.738281	5126.961426	39.533173
391.196442	879.744202	11859.458008	5341.250977	40.634090
391.558960	872.016785	12046.700195	5521.732422	41.609375
391.921509	872.388245	12167.071289	5652.133301	42.318542
392.284027	871.050781	12237.213867	5745.011719	42.881321
392.646484	870.604980	12259.577148	5809.357910	43.364342
393.008911	865.329407	12185.497070	5865.531250	44.170738
393.371307	866.295410	12127.096680	5964.947754	45.277885
393.733673	873.279846	12046.848633	6033.752441	46.184643
394.096008	873.131165	12016.979492	6110.581543	46.998577
394.458344	875.583252	11963.629883	6148.400879	47.554070
394.820587	867.855774	11872.163086	6176.859375	48.244774
395.182831	870.010559	11755.953125	6176.190918	48.743416
395.545013	862.134460	11534.160156	6114.074219	49.212215
395.907196	871.942383	11310.805664	6069.789551	49.793228
396.269287	881.527527	11072.516602	6040.736816	50.625206
396.631409	885.762695	10897.534180	6035.461426	51.436440
396.993469	891.781189	10757.473633	6049.504395	52.279385
397.355530	895.273438	10666.601563	6095.795410	53.222263
397.717499	895.422119	10637.325195	6155.757813	53.997005
398.079468	883.459412	10630.043945	6207.918457	54.628971
398.441376	872.313965	10675.741211	6244.846191	54.802589
398.803284	865.255188	10662.812500	6265.354004	55.116783
399.165131	875.434753	10679.381836	6305.774902	55.389328
399.526978	887.174500	10650.922852	6330.220215	55.747505
399.888763	890.666748	10653.375000	6390.404785	56.334148
400.250519	882.642029	10643.790039	6421.092285	56.739738
400.612244	898.840088	10680.496094	6499.408203	57.255829
400.973938	913.700623	10676.781250	6543.766113	57.666893
401.335602	919.496155	10722.625977	6623.493652	58.185474
401.697205	922.394043	10845.522461	6729.151855	58.517406
402.058807	916.078308	11041.383789	6860.370605	58.707291
402.420349	917.787292	11331.387695	7051.031250	58.896481
402.781860	894.679138	11629.043945	7217.171875	58.899548
403.143341	894.679016	12026.934570	7412.142090	58.545753
403.504822	890.815369	12411.006836	7576.054199	58.030621
403.866241	895.645020	12829.405273	7780.906250	57.695660
404.227631	891.409729	13128.770508	7926.167969	57.485912
404.588959	897.056824	13401.164063	8039.257324	57.118835
404.950287	894.233215	13445.151367	8044.161621	56.967373
405.311554	893.193054	13343.653320	8031.529785	57.333920
405.672821	893.415955	13046.963867	7986.502441	58.362270
406.034027	887.174561	12674.409180	7922.973145	59.689987
406.395203	890.443848	12276.295898	7803.346191	60.714848
406.756348	882.716309	11996.100586	7719.606934	61.519428
407.117493	887.917480	11823.644531	7668.635254	62.005188
407.478516	883.013489	11781.143555	7722.058594	62.754299
407.839600	882.790588	11769.476563	7784.250000	63.393578
408.200592	891.186829	11850.020508	7884.855469	63.817635
408.561554	898.319824	11867.629883	8003.591309	64.774094
408.922485	898.245605	11914.663086	8107.020996	65.436653
409.283417	893.936035	11925.437500	8210.375977	66.323151
409.644257	897.502625	12064.309570	8330.894531	66.566856
410.005096	907.384827	12211.057617	8474.374023	66.942749
410.365906	907.607727	12309.731445	8552.020508	67.043762
410.726715	900.920471	12379.352539	8601.729492	67.089386
411.087433	894.530457	12354.758789	8598.608398	67.224472
411.448120	892.524231	12340.789063	8619.116211	67.491379
411.808807	892.970032	12269.385742	8596.082031	67.711235
412.169434	890.815247	12156.668945	8549.197266	67.978706
412.530029	911.620056	12150.204102	8613.097656	68.527115
412.890564	914.220703	12154.440430	8703.895508	69.301804
413.251099	925.886230	12261.137695	8861.416992	70.007538
413.611572	912.140198	12326.821289	8978.815430	70.669304
413.972076	914.815186	12456.182617	9123.409180	71.123238
414.332489	906.418945	12558.051758	9253.661133	71.640106
414.692871	910.877014	12739.424805	9427.604492	72.001465
415.053223	908.870789	12910.171875	9593.819336	72.366722
415.413574	912.957458	13178.331055	9835.227539	72.743568
415.773834	905.973083	13392.397461	10038.223633	73.137436
416.134094	910.208313	13634.028320	10292.785156	73.740250
416.494263	903.372498	13864.441406	10505.290039	74.082764
416.854462	902.257996	14230.010742	10829.027344	74.481941
417.214630	903.892578	14634.143555	11160.566406	74.701286
417.574738	908.127869	15043.403320	11547.312500	75.266907
417.934784	912.363098	15484.389648	11907.976563	75.456993
418.294861	918.381653	16039.133789	12326.004883	75.443489
418.654846	915.929626	16637.865234	12764.464844	75.363083
419.014832	915.632385	17287.716797	13285.996094	75.557655
419.374756	896.536621	17923.154297	13783.006836	75.684265
419.734680	925.217468	18688.396484	14408.041992	75.903214
420.094543	923.954346	19320.787109	14931.875000	76.143112
420.454376	931.756165	19865.650391	15321.147461	75.998055
420.814148	908.573730	20286.947266	15558.618164	75.599976
421.173920	902.183655	20719.759766	15747.496094	74.909828
421.533691	907.979309	21067.791016	15938.824219	74.558456
421.893341	900.474670	21244.113281	16000.644531	74.225510
422.253021	898.914307	21294.937500	15963.567383	73.860741
422.612640	894.233215	21225.240234	15863.780273	73.629143
422.972260	902.406555	21151.458984	15813.031250	73.636162
423.331757	902.480896	21096.177734	15868.164063	74.110664
423.691315	923.582825	21238.541016	16022.266602	74.322983
424.050781	937.105957	21387.740234	16125.622070	74.269165
424.410248	939.557922	21410.996094	16023.010742	73.680481
424.769653	913.849121	21297.982422	15843.717773	73.242599
425.128998	901.440613	21117.353516	15588.488281	72.650925
425.488373	899.731628	20800.007813	15261.406250	72.168221
425.847656	903.669678	20399.591797	14891.824219	71.749130
426.206940	908.425049	19983.791016	14502.106445	71.263023
426.566193	918.604492	19543.693359	14138.989258	70.981590
426.925385	912.808899	19094.757813	13751.129883	70.610260
427.284576	900.474670	18525.078125	13337.190430	70.564514
427.643677	900.400391	18070.125000	13005.129883	70.500427
428.002777	904.264160	17658.412109	12746.557617	70.682747
428.361847	915.335205	17281.400391	12529.817383	70.966858
428.720856	912.288818	16921.330078	12310.028320	71.195641
429.079865	910.728516	16688.392578	12153.027344	71.254517
429.438812	902.555176	16534.212891	12052.942383	71.332077
429.797760	899.360168	16456.937500	12034.515625	71.573837
430.156616	906.641785	16248.444336	11929.747070	71.850128
430.515503	909.465332	16108.831055	11864.807617	72.077629
430.874268	905.304382	16025.536133	11801.129883	72.061234
431.233093	892.970154	16041.213867	11817.698242	72.118774
431.591827	891.558350	16121.757813	11893.041992	72.234665
431.950562	892.672913	16197.621094	11994.464844	72.537270
432.309204	901.514893	16333.596680	12101.833008	72.578140
432.667877	900.920410	16519.576172	12248.803711	72.655945
433.026459	907.904968	16850.371094	12374.523438	71.924995
433.385010	907.459167	17288.087891	12507.898438	70.818031
433.743561	904.709900	17903.833984	12639.710938	69.032974
434.102051	907.756287	18540.236328	12794.928711	67.416336
434.460510	921.948181	19289.134766	12979.199219	65.645599
434.818939	925.068909	19888.458984	13083.148438	64.113426
435.177338	918.827454	20424.332031	13152.918945	62.721230
435.535675	904.487000	20674.435547	13161.686523	61.999146
435.894012	917.192810	20674.210938	13150.168945	61.917122
436.252289	921.725281	20530.509766	13190.664063	62.568581
436.610535	933.465088	20071.986328	13154.034180	63.853256
436.968719	954.938538	19647.570313	13255.011719	65.801720
437.326935	952.412292	19065.333984	13352.867188	68.461922
437.685028	951.149170	18609.708984	13489.065430	71.001915
438.043152	926.332031	18259.001953	13574.661133	72.973923
438.401215	922.245361	18214.791016	13736.417969	74.102295
438.759277	911.025635	18396.535156	14014.756836	74.940514
439.117249	920.239075	18862.414063	14407.594727	75.171234
439.475250	937.031555	19266.992188	14752.286133	75.369797
439.833130	949.142883	19799.224609	15168.676758	75.434868
440.191071	940.672363	20079.865234	15389.430664	75.493034
440.548889	928.263855	20326.029297	15604.909180	75.661530
440.906708	913.180420	20455.244141	15633.441406	75.326027
441.264496	912.957520	20468.244141	15625.045898	75.233299
441.622223	913.403320	20397.138672	15504.229492	74.887215
441.979950	919.942078	20172.445313	15293.581055	74.658539
442.337616	918.604492	19997.982422	15121.049805	74.438721
442.695251	921.799561	19745.205078	14888.778320	74.200058
443.052887	911.620117	19511.152344	14772.346680	74.521912
443.410461	898.840027	19380.156250	14754.663086	74.972061
443.768005	902.406555	19383.869141	14866.190430	75.555618
444.125458	912.511719	19468.873047	15027.129883	76.063499
444.482941	921.502380	19695.718750	15270.249023	76.427940
444.840393	919.124695	20027.333984	15603.497070	76.848503
445.197754	919.050476	20500.716797	16008.745117	77.060318
445.555084	911.248718	20844.960938	16348.754883	77.444206
445.912415	902.257996	21234.531250	16649.455078	77.449272
446.269714	903.743958	21425.710938	16818.941406	77.552010
446.626953	912.214539	21576.396484	16887.298828	77.308090
446.984161	918.158691	21637.546875	16900.376953	77.136536
447.341309	935.545593	21711.105469	16810.470703	76.411537
447.698456	948.028503	21722.175781	16694.632813	75.799042
448.055542	951.817871	21632.271484	16516.009766	75.260399
448.412598	939.186340	21347.837891	16280.320313	75.169754
448.769653	929.452820	20964.068359	15948.632813	74.966148
449.126617	927.595154	20485.111328	15575.485352	74.896477
449.483582	952.635193	20146.365234	15305.692383	74.779930
449.840515	957.464844	19761.849609	15038.277344	74.880478
450.197388	950.331787	19485.666016	14826.811523	74.865005
450.554230	936.288574	19258.744141	14681.327148	75.017456
450.911041	927.446533	19143.501953	14581.239258	74.954720
451.267822	932.647766	19067.861328	14605.833008	75.395782
451.624573	908.350769	18967.107422	14518.825195	75.367729
451.981262	903.744080	18917.769531	14481.377930	75.372566
452.337921	901.143372	18750.439453	14315.309570	75.152351
452.694580	902.034973	18542.988281	14115.584961	74.902695
453.051147	907.384827	18354.853516	13947.585938	74.739792
453.407715	906.493164	18099.324219	13662.784180	74.195404
453.764221	940.895325	18026.283203	13549.026367	73.794815
454.120728	952.337891	17693.558594	13265.116211	73.547676
454.477142	951.892151	17579.132813	13153.885742	73.385559
454.833557	933.910889	17370.935547	12983.507813	73.307648
455.189911	926.777832	17297.451172	12939.446289	73.379189
455.546265	931.533203	17217.203125	12894.567383	73.457428
455.902557	932.721985	17154.044922	12899.250000	73.770355
456.258820	932.499207	17269.216797	12976.226563	73.721832
456.615051	933.539368	17420.867188	13122.827148	73.931252
456.971252	941.638367	17543.615234	13270.614258	74.262093
457.327393	941.489746	17837.259766	13546.351563	74.603653
457.683502	941.118225	18237.677734	13956.280273	75.247116
458.039612	941.118225	18950.537109	14538.664063	75.502419
458.395630	955.087158	19710.060547	15200.776367	75.956863
458.751648	949.440125	20425.445313	15742.739258	75.956535
459.107605	941.192566	21238.763672	16393.853516	76.130592
459.463562	927.595154	21821.818359	16756.972656	75.759590
459.819458	939.186340	22206.111328	16950.679688	75.288239
460.175323	923.211243	22259.091797	16747.388672	74.166977
460.531158	925.960449	22190.583984	16435.390625	72.935364
460.886932	922.468262	21923.539063	15954.578125	71.577827
461.242676	937.923157	21496.519531	15468.042969	70.676620
461.598419	941.341125	20892.291016	14980.394531	70.367851
461.954102	938.666260	20226.240234	14499.209961	70.307152
462.309723	940.598206	19524.376953	14039.350586	70.484863
462.665344	928.635437	18929.138672	13657.656250	70.714798
463.020905	925.514709	18542.837891	13456.296875	71.127625
463.376373	926.183411	18295.781250	13353.015625	71.543579
463.731873	941.638428	18105.863281	13280.496094	71.887062
464.087341	943.050110	17988.392578	13253.672852	72.222801
464.442749	945.204895	17941.580078	13296.100586	72.667824
464.798126	934.728210	17902.570313	13353.833008	73.192009
465.153503	933.316406	18011.275391	13471.454102	73.417076
465.508820	914.592102	18112.773438	13555.565430	73.501801
465.864105	914.740723	18277.726563	13685.965820	73.554306
466.219330	926.926453	18489.044922	13922.992188	74.000557
466.574524	936.139954	18612.607422	14060.007813	74.244858
466.929657	936.957336	18649.908203	14085.715820	74.232460
467.284790	945.353516	18634.677734	13996.625977	73.780502
467.639893	946.096497	18576.421875	13863.773438	73.269638
467.994934	940.152283	18541.351563	13773.644531	72.912598
468.349945	924.994568	18362.802734	13620.133789	72.802383
468.704926	925.143127	18189.750000	13527.999023	72.998215
469.059875	949.217285	17958.744141	13386.377930	73.118790
469.414764	950.183167	17770.312500	13276.335938	73.282150
469.769653	943.718933	17661.013672	13210.354492	73.376915
470.124451	930.047119	17672.607422	13261.176758	73.651398
470.479248	926.554871	17636.865234	13255.753906	73.781990
470.834015	929.601257	17594.958984	13307.468750	74.273041
471.188721	926.777771	17700.541016	13434.453125	74.566902
471.543365	940.449402	17876.861328	13656.542969	75.081390
471.898010	947.879700	18078.074219	13862.583008	75.391457
472.252625	953.303894	18278.693359	14076.054688	75.742897
472.607178	949.737305	18526.492188	14337.526367	76.167587
472.961700	950.703308	18696.201172	14501.586914	76.362373
473.316193	958.876648	18867.169922	14641.796875	76.405495
473.670654	956.350281	18909.892578	14623.742188	76.126434
474.025055	965.861023	19039.998047	14689.574219	75.930115
474.379456	948.028381	19082.945313	14714.242188	75.909996
474.733795	953.155273	19212.603516	14852.073242	76.119041
475.088104	930.195801	19365.814453	15028.914063	76.475426
475.442383	942.901550	19543.025391	15255.313477	76.947945
475.796570	934.431091	19770.021484	15473.094727	77.187195
476.150787	956.276062	20110.328125	15799.507813	77.493950
476.504944	957.241943	20474.560547	16101.325195	77.593056
476.859070	972.919739	20825.642578	16404.033203	77.727943
477.213135	963.632019	21106.505859	16622.263672	77.737823
477.567200	955.755920	21456.992188	16919.994141	77.869637
477.921173	943.347351	21807.330078	17165.191406	77.750465
478.275146	947.211121	22191.771484	17456.162109	77.709076
478.629089	960.659912	22435.335938	17643.404297	77.685661
478.983002	972.474060	22835.009766	17971.080078	77.752213
479.336823	975.371826	23241.966797	18276.908203	77.701759
479.690643	968.684570	23788.833984	18731.716797	77.839249
480.044403	959.099548	24388.828125	19327.177734	78.396461
480.398163	967.718689	25331.728516	20200.306641	78.938515
480.751862	968.090149	26542.271484	21311.431641	79.546402
481.105499	964.300781	28217.201172	22763.380859	79.988113
481.459137	952.783875	30512.634766	24795.560547	80.659325
481.812744	952.338074	33480.953125	27493.271484	81.592575
482.166290	966.306946	37165.105469	30952.804688	82.838387
482.519806	971.805359	41348.277344	34888.695313	84.001617
482.873291	975.817688	45704.343750	38944.433594	84.886803
483.226715	983.916687	49577.375000	42506.285156	85.448471
483.580139	982.727722	51805.863281	44385.394531	85.399429
483.933502	990.975403	53572.261719	45323.097656	84.311600
484.286804	998.182800	54244.105469	44795.769531	82.255287
484.640106	1001.154968	54707.160156	43649.953125	79.411598
484.993347	991.346924	53968.886719	41457.503906	76.383606
485.346558	971.953918	52692.667969	39131.824219	73.780632
485.699738	961.031433	51301.718750	37385.562500	72.356049
486.052887	954.715637	49860.988281	36358.253906	72.390587
486.405975	956.350342	49189.738281	36351.269531	73.382607
486.759064	967.495789	48847.425781	36767.070313	74.769478
487.112061	977.823792	48889.109375	37262.296875	75.732620
487.464996	975.000305	48909.019531	37335.183594	75.854652
487.817963	970.987976	48801.281250	37031.808594	75.393265
488.170868	960.734192	48229.378906	36112.164063	74.365219
488.523743	963.483337	47287.667969	34816.769531	73.079079
488.876587	966.158386	46072.515625	33213.542969	71.491890
489.229401	995.136414	44796.144531	31915.398438	70.592583
489.582153	992.758728	43494.808594	30903.320313	70.374397
489.934845	1003.904114	42614.246094	30544.140625	70.992531
490.287537	981.241760	42352.105469	30746.466797	71.947311
490.640198	995.582214	42608.078125	31517.134766	73.347084
490.992798	977.526611	42845.625000	32172.187500	74.506989
491.345337	975.966248	43082.949219	32487.822266	74.837601
491.697876	971.285156	42834.925781	32056.048828	74.252411
492.050354	1006.430359	42356.265625	31227.947266	73.087395
492.402832	1031.098999	41231.394531	29752.443359	71.445602
492.755219	1038.900757	39721.339844	28002.318359	69.704544
493.107605	1010.071228	37657.214844	25950.968750	68.056870
493.459930	992.833008	35556.230469	24158.712891	67.024307
493.812225	991.792786	33409.847656	22564.771484	66.546188
494.164490	992.387146	31668.193359	21496.744141	66.842110
494.516724	986.294250	30203.015625	20753.791016	67.658165
494.868896	975.223145	29236.859375	20400.257813	68.732872
495.221039	983.768005	28675.275391	20241.101563	69.542381
495.573120	987.706055	28307.552734	20217.472656	70.387527
495.925201	1032.659180	28227.376953	20378.041016	71.136543
496.277222	1048.411499	28216.906250	20515.275391	71.652344
496.629211	1049.228638	28296.708984	20604.218750	71.768066
496.981140	996.473816	28263.642578	20525.458984	71.620872
497.333069	979.830017	28122.912109	20408.953125	71.580383
497.684967	971.062256	28000.609375	20183.814453	71.080559
498.036804	966.306885	27724.427734	19918.033203	70.826073
498.388580	964.449280	27371.859375	19585.826172	70.515724
498.740326	976.040527	26895.501953	19220.257813	70.388100
499.092072	983.916687	26379.322266	18836.039063	70.296661
499.443756	977.229431	25896.578125	18481.539063	70.243851
499.795410	978.195313	25418.960938	18212.935547	70.516365
500.147003	991.569824	25087.273438	18002.955078	70.599243
500.498566	1003.606873	24694.062500	17789.630859	70.855637
500.850098	995.433594	24365.943359	17583.960938	70.980598
501.201599	987.557556	23998.291016	17411.283203	71.374199
501.553009	983.247864	23745.960938	17239.419922	71.415794
501.904449	991.198242	23545.193359	17163.630859	71.705399
502.255859	1005.984436	23477.208984	17175.742188	71.957619
502.607178	1009.328125	23469.181641	17283.257813	72.457863
502.958405	997.142395	23490.431641	17367.146484	72.777283
503.309692	976.634949	23472.228516	17371.531250	72.880478
503.660919	966.455383	23490.283203	17386.093750	72.898972
504.012115	989.266357	23511.533203	17419.900391	72.952843
504.363251	995.730774	23541.552734	17462.921875	73.038773
504.714294	998.702820	23527.955078	17466.562500	73.095459
505.065369	1002.566650	23518.296875	17437.882813	72.994820
505.416443	1011.111389	23418.431641	17370.119141	73.007423
505.767395	1017.947266	23320.578125	17379.554688	73.361778
506.118317	1005.241516	23177.099609	17349.611328	73.716736
506.469238	998.702820	23191.585938	17416.482422	73.977676
506.820160	992.387146	23208.009766	17427.109375	73.978218
507.170929	1007.247620	23352.380859	17613.533203	74.317238
507.521729	1010.739990	23521.789063	17815.265625	74.650124
507.872498	1010.962891	23726.791016	18054.669922	75.030090
508.223236	989.340820	23965.080078	18263.681641	75.185135
508.573883	983.619446	24198.318359	18470.986328	75.328857
508.924500	992.758606	24456.146484	18699.021484	75.463371
509.275116	993.650330	24585.806641	18838.638672	75.639496
509.625702	1000.634705	24768.146484	19004.628906	75.750435
509.976196	997.513977	24966.900391	19159.251953	75.770561
510.326660	1013.117676	25212.322266	19363.212891	75.829330
510.677124	1009.699707	25414.724609	19538.792969	75.923271
511.027557	1030.950317	25584.583984	19754.195313	76.254478
511.377869	1028.349609	25753.619141	19952.138672	76.536232
511.728180	1028.423950	25832.382813	20014.552734	76.544754
512.078430	1012.820374	25876.888672	20040.111328	76.525253
512.428650	998.479980	25908.318359	20019.976563	76.361382
512.778931	1010.739929	25928.750000	20018.564453	76.281471
513.129028	1009.773987	25904.900391	19950.800781	76.083275
513.479126	1014.306396	25777.843750	19858.294922	76.095703
513.829285	998.851501	25622.179688	19798.109375	76.347343
514.179382	989.266418	25435.232422	19707.533203	76.569962
514.529297	993.055847	25363.234375	19686.134766	76.704727
514.879272	994.913391	25352.833984	19711.990234	76.841850
515.229187	1003.086731	25358.328125	19760.064453	77.014130
515.579163	990.752441	25528.630859	19927.839844	77.174919
515.928955	986.963074	25747.898438	20230.996094	77.719330
516.278748	983.545105	26243.197266	20712.031250	78.102760
516.628540	995.879395	26763.244141	21287.357422	78.748749
516.978333	1002.640869	27471.724609	21928.218750	79.056679
517.327942	995.284912	28162.884766	22637.958984	79.663551
517.677612	993.130127	28898.484375	23256.750000	79.782608
518.027222	984.139465	29540.906250	23741.875000	79.692970
518.376831	985.848450	30075.291016	24075.494141	79.374657
518.726379	986.517273	30347.236328	24202.697266	79.072243
519.075867	991.718445	30251.609375	23994.132813	78.614151
519.425293	1016.238281	30116.529297	23613.478516	77.652969
519.774658	1018.467346	29773.177734	23073.150391	76.699371
520.124084	1028.201050	29425.064453	22633.500000	76.083397
520.473389	1013.191895	28886.000000	22159.447266	75.866974
520.822693	1012.894714	28420.791016	21815.724609	75.900864
521.171997	1018.913269	28042.587891	21565.845703	76.033081
521.521240	1033.773804	27713.353516	21412.037109	76.381500
521.870361	1034.368286	27502.333984	21355.716797	76.777145
522.219482	1025.229004	27406.111328	21375.705078	77.140999
522.568604	1005.613037	27453.591797	21475.937500	77.398445
522.917664	1008.287903	27629.689453	21677.447266	77.641136
523.266724	1013.340515	27984.560547	22004.750000	77.828918
523.615662	1023.817200	28552.976563	22504.361328	78.028336
523.964600	1031.247437	29271.929688	23236.466797	78.628479
524.313538	1035.334106	30194.101563	24119.181641	79.166061
524.662354	1029.984253	31224.234375	25109.341797	79.748154
525.011169	1048.188354	32392.273438	26073.791016	79.841545
525.359985	1032.139038	33588.472656	27057.708984	79.940117
525.708740	1026.417603	34838.093750	28002.837891	79.784332
526.057434	1016.089661	36262.179688	29144.126953	79.804703
526.406067	1026.269165	37950.933594	30453.787109	79.696098
526.754700	1029.687134	39988.386719	32225.312500	80.073578
527.103333	1016.238281	42483.546875	34396.957031	80.498878
527.451782	1014.529358	45212.687500	36991.832031	81.400002
527.800293	1014.157898	47962.628906	39606.472656	82.201431
528.148743	1016.089661	50085.683594	41651.207031	82.811195
528.497131	1000.188904	51566.683594	42712.769531	82.490555
528.845642	1005.167175	52087.324219	42550.050781	81.329536
529.193909	998.331299	51922.296875	41436.027344	79.407990
529.542175	1009.625305	50947.515625	39426.730469	76.929771
529.890503	1009.179504	49310.847656	36979.796875	74.470757
530.238770	1012.374512	47035.480469	34258.980469	72.238945
530.586914	1018.838867	44790.269531	32043.570313	70.878952
530.934998	1029.092651	42612.386719	30284.822266	70.354530
531.283142	1031.544556	41152.042969	29438.443359	70.803947
531.631226	1026.417847	39924.187500	29043.892578	72.028488
531.979248	1014.083557	39587.449219	29371.939453	73.516670
532.327148	1009.996887	39665.988281	29959.822266	74.890915
532.675110	1006.950500	40039.730469	30596.154297	75.806030
533.023071	1006.727722	40295.703125	30945.820313	76.202271
533.370850	1010.517090	40429.449219	30918.921875	75.873192
533.718689	1016.238342	40400.988281	30530.765625	74.938972
534.066467	1018.913269	40013.574219	29744.642578	73.665802
534.414246	1013.860657	39126.550781	28608.333984	72.402321
534.761963	1020.473572	38154.968750	27520.093750	71.361198
535.109619	1033.773804	37366.468750	26678.244141	70.582352
535.457153	1043.433105	36677.312500	26140.958984	70.431641
535.804749	1036.077148	36101.687500	25864.181641	70.804718
536.152344	1026.194824	35585.207031	25654.203125	71.263634
536.499817	1027.532227	35115.542969	25424.830078	71.571487
536.847229	1030.355835	34740.832031	25087.869141	71.365097
537.194641	1027.903931	34328.601563	24617.085938	70.836899
537.542114	1032.510620	34084.292969	24133.818359	69.894295
537.889404	1029.538574	33726.453125	23613.400391	69.070313
538.236694	1035.779907	33508.597656	23228.812500	68.343414
538.583984	1024.783081	33514.988281	23074.562500	67.865929
538.931213	1031.619019	34040.378906	23324.962891	67.537659
539.278381	1028.646851	35143.550781	24069.250000	67.538239
539.625488	1036.745972	36835.574219	25238.849609	67.605858
539.972595	1048.708618	39148.914063	26903.826172	67.860832
540.319641	1049.451660	41812.144531	28661.384766	67.738251
540.666687	1060.597046	44521.593750	30470.580078	67.669830
541.013611	1048.114258	46912.285156	31877.056641	67.217918
541.360596	1051.829346	48464.394531	32709.025391	66.769630
541.707458	1039.272095	49598.406250	32879.769531	65.570564
542.054260	1051.755005	49859.730469	32402.451172	64.232727
542.401062	1049.526001	49854.152344	31647.162109	62.694134
542.747864	1062.380249	49037.343750	30507.804688	61.376644
543.094666	1058.442261	48003.199219	29266.056641	60.086826
543.441284	1064.535156	46571.609375	27900.521484	58.971020
543.787903	1049.748901	45407.281250	26717.623047	57.865879
544.134460	1042.690063	44538.832031	25711.712891	56.715431
544.481079	1043.210205	44140.421875	24986.962891	55.557545
544.827637	1058.590942	43941.218750	24511.650391	54.691280
545.174072	1057.996460	43890.019531	24179.070313	53.980812
545.520508	1059.185303	43827.015625	24089.609375	53.849873
545.866943	1048.114136	43647.277344	23969.093750	53.806175
546.213318	1054.578491	43225.238281	23886.687500	54.142166
546.559631	1064.015015	42554.878906	23587.619141	54.285694
546.905823	1068.101685	41401.625000	23152.208984	54.753727
547.252136	1059.705444	39895.582031	22500.796875	55.209499
547.598389	1048.039917	37882.945313	21692.976563	56.047211
547.944458	1049.823120	35919.644531	20828.910156	56.722656
548.290588	1063.940552	33873.421875	19933.638672	57.512943
548.636658	1050.120483	32114.974609	19092.232422	58.078854
548.982727	1034.442505	30315.437500	18339.544922	59.100117
549.328735	1022.702637	28804.640625	17730.115234	60.137676
549.674622	1033.773804	27447.650391	17234.443359	61.333935
550.020569	1037.934692	26403.546875	16893.615234	62.508568
550.366455	1038.380493	25452.396484	16603.166016	63.753483
550.712280	1026.937988	24681.802734	16388.060547	64.938538
551.058044	1029.315552	24185.984375	16314.054688	66.005783
551.403748	1029.166992	23768.921875	16299.640625	67.153206
551.749512	1046.479492	23520.156250	16370.821289	68.187965
552.095154	1041.426880	23236.093750	16392.443359	69.165344
552.440735	1062.603149	23088.458984	16478.187500	69.988579
552.786316	1046.182251	22923.132813	16515.041016	70.708473
553.131897	1038.751953	22684.546875	16449.433594	71.194809
553.477417	1012.448792	22367.867188	16271.924805	71.454819
553.822815	1015.495300	22043.462891	16037.276367	71.437157
554.168213	1023.297119	21691.935547	15790.293945	71.446396
554.513672	1023.371399	21306.232422	15557.132813	71.655380
554.859009	1029.018433	20851.572266	15335.338867	72.171928
555.204285	1033.922363	20454.423828	15121.420898	72.539307
555.549500	1033.402222	20104.310547	14933.956055	72.888786
555.894714	1013.266113	19831.171875	14778.291992	73.148552
556.239990	1006.430359	19525.640625	14670.179688	73.781487
556.585022	1020.845032	19316.849609	14591.270508	74.171532
556.930115	1039.272095	19064.814453	14514.887695	74.758446
557.275146	1033.922363	18881.064453	14417.997070	74.992813
557.620178	1012.671814	18663.060547	14326.752930	75.432228
557.965149	1001.674988	18505.685547	14247.695313	75.674210
558.310059	997.216797	18362.951172	14161.950195	75.808678
558.654968	996.845215	18247.187500	14090.172852	75.901848
558.999756	994.467590	18181.207031	14075.238281	76.109665
559.344604	997.588318	18196.291016	14126.953125	76.339272
559.689331	990.678162	18159.882813	14139.733398	76.585114
560.033997	1001.600586	18125.480469	14135.721680	76.700623
560.378723	998.479980	18092.638672	14153.331055	76.955246
560.723389	1005.018555	18144.873047	14208.463867	77.033585
561.067932	984.139587	18172.291016	14290.715820	77.417145
561.412476	989.415039	18185.664063	14309.738281	77.460625
561.757019	996.102295	18163.892578	14317.836914	77.597252
562.101501	999.297302	18143.533203	14282.097656	77.476768
562.445862	1005.613037	18058.087891	14226.816406	77.532463
562.790222	995.507874	17994.855469	14145.827148	77.357788
563.134644	1007.916321	18004.664063	14103.028320	77.044807
563.478943	1012.746094	18010.683594	14126.656250	77.150009
563.823181	1016.684082	18038.472656	14202.593750	77.464890
564.167358	1006.801819	18090.335938	14313.230469	77.890381
564.511536	992.758606	18241.021484	14480.411133	78.197159
564.855774	986.740173	18426.853516	14679.839844	78.514969
565.199768	992.461426	18658.974609	14942.648438	78.964012
565.543823	988.374756	18924.085938	15191.859375	79.191086
565.887817	996.325195	19198.931641	15449.096680	79.399467
566.231812	1004.349915	19353.925781	15563.151367	79.341354
566.575745	1006.430420	19409.060547	15599.484375	79.298737
566.919617	1007.990723	19386.843750	15512.401367	78.919014
567.263428	997.439758	19299.462891	15330.508789	78.314125
567.607239	992.535706	19210.744141	15132.937500	77.616859
567.950989	995.062012	19075.439453	14920.953125	77.022125
568.294678	996.696716	18965.248047	14806.303711	76.854317
568.638367	997.365417	18788.556641	14684.893555	76.934296
568.981995	981.761719	18663.058594	14600.781250	77.025002
569.325623	986.294250	18554.056641	14584.807617	77.406067
569.669128	1001.229187	18529.833984	14614.676758	77.664177
570.012573	1004.498474	18531.542969	14690.539063	78.085274
570.356140	1008.436523	18645.375000	14816.184570	78.288811
570.699524	1002.863770	18768.347656	14927.862305	78.382317
571.042908	1007.024719	18982.564453	15144.975586	78.651054
571.386230	988.449036	19157.396484	15258.062500	78.538467
571.729492	1002.417969	19369.306641	15429.851563	78.551323
572.072815	1003.235291	19469.466797	15474.432617	78.365730
572.416016	1010.442627	19502.085938	15460.464844	78.143532
572.759094	997.365417	19477.046875	15376.129883	77.808510
573.102234	987.929016	19416.490234	15230.497070	77.285301
573.445374	989.266418	19342.187500	15100.690430	76.889252
573.788391	988.374817	19229.617188	14941.682617	76.493187
574.131409	1003.235352	19150.039063	14833.721680	76.214447
574.474365	994.244629	19111.697266	14769.300781	76.031967
574.817261	992.833008	19085.841797	14688.086914	75.693626
575.160156	989.192139	19095.353516	14575.816406	75.038673
575.502930	995.507874	19061.250000	14409.304688	74.249908
575.845703	987.483215	19081.681641	14250.296875	73.298706
576.188477	1011.037170	19040.146484	14094.929688	72.570930
576.531250	1008.882324	18970.970703	13861.320313	71.553139
576.873901	1013.043396	18777.337891	13585.137695	70.771706
577.216431	975.074646	18608.669922	13302.936523	69.911224
577.559082	970.170715	18445.353516	13040.945313	69.073807
577.901611	967.570068	18308.486328	12812.390625	68.305618
578.244080	970.542175	18119.759766	12582.348633	67.710419
578.586487	989.935120	17943.810547	12430.546875	67.480804
578.928955	1552.109497	18344.080078	12893.898438	67.542931
579.271301	1586.140259	18108.539063	12704.055664	67.289955
579.613647	1572.839966	17814.298828	12490.137695	67.218704
579.955872	1017.650085	16972.748047	11686.629883	66.868782
580.298157	993.873230	16680.960938	11528.067383	67.152008
580.640320	989.786560	16463.181641	11402.941406	67.297157
580.982483	981.464661	16236.483398	11283.016602	67.528938
581.324524	989.712219	16131.417969	11243.636719	67.719742
581.666626	989.043518	16020.409180	11164.726563	67.696327
582.008728	984.956848	15948.334961	11102.535156	67.615601
582.350647	972.102478	15846.391602	11022.437500	67.568504
582.692566	985.997131	15834.653320	10977.781250	67.290833
583.034424	993.501648	15775.656250	10937.137695	67.267838
583.376343	990.306641	15721.788086	10850.723633	66.934319
583.718201	980.944519	15629.428711	10803.467773	67.054878
584.059937	974.554504	15603.125977	10729.833008	66.686470
584.401611	967.421387	15564.339844	10704.273438	66.704842
584.743347	965.489563	15535.139648	10641.041992	66.408958
585.085022	966.009766	15468.637695	10592.670898	66.378738
585.426514	977.749573	15502.743164	10572.905273	66.059616
585.768127	974.851746	15551.708008	10580.113281	65.893921
586.109619	987.557434	15652.239258	10601.066406	65.555527
586.451172	980.870300	15746.456055	10610.651367	65.217735
586.792542	984.288147	15829.897461	10625.140625	64.940765
587.133850	979.904297	15853.895508	10637.325195	64.928238
587.475220	983.173523	15850.034180	10634.056641	64.915405
587.816589	977.377930	15796.238281	10646.168945	65.246521
588.157776	984.065247	15772.909180	10686.588867	65.607048
588.498962	987.706055	15706.333008	10714.898438	66.087631
588.840210	981.984680	15631.956055	10732.583008	66.557114
589.181335	991.718323	15565.157227	10766.614258	67.073364
589.522400	996.622375	15504.898438	10789.573242	67.499069
589.863403	1001.377747	15425.914063	10776.124023	67.764717
590.204407	998.628601	15317.209961	10752.644531	68.121384
590.545410	985.179749	15284.145508	10702.564453	67.958656
590.886353	998.628601	15265.570313	10658.948242	67.711212
591.227112	974.777344	15250.485352	10566.739258	67.190796
591.567932	976.932129	15224.480469	10510.640625	66.914734
591.908752	963.780579	15252.565430	10454.169922	66.418449
592.249512	974.480225	15396.711914	10449.562500	65.697754
592.590149	962.740295	15415.362305	10443.916992	65.601776
592.930786	976.932129	15464.921875	10471.258789	65.532387
593.271423	959.248108	15421.604492	10485.673828	65.870499
593.612000	969.873535	15437.504883	10515.394531	65.978470
593.952576	956.647644	15455.262695	10577.213867	66.355072
594.292969	965.861084	15469.456055	10649.734375	66.768776
594.633484	966.083984	15500.141602	10801.311523	67.670212
594.973877	962.814636	15464.773438	10919.304688	68.656174
595.314209	971.805237	15519.682617	11087.750000	69.535538
595.654480	973.217041	15638.270508	11242.893555	70.028221
595.994812	978.046692	15822.690430	11475.757813	70.717163
596.335022	969.130371	15968.472656	11652.449219	71.225250
596.675171	971.136536	16053.624023	11776.833008	71.643997
597.015320	968.090149	16117.300781	11793.550781	71.458908
597.355408	977.452332	16067.293945	11734.257813	71.285080
597.695496	970.839355	16009.413086	11605.268555	70.714348
598.035461	971.582336	15799.953125	11345.653320	69.960960
598.375366	965.341003	15598.073242	11059.366211	68.982506
598.715271	969.799133	15335.338867	10756.879883	68.128876
599.055176	988.820618	15108.492188	10526.243164	67.547058
599.395081	976.337708	14846.796875	10322.133789	67.379143
599.734802	971.953857	14569.425781	10148.711914	67.488708
600.074524	960.511230	14315.757813	9995.276367	67.649567
600.414246	967.867188	14090.395508	9920.453125	68.223022
600.753906	983.768066	13913.780273	9895.041992	68.919296
601.093506	967.272766	13710.413086	9899.722656	70.096146
601.433044	971.285156	13644.284180	9930.112305	70.692245
601.772583	954.789978	13612.333008	9994.383789	71.416656
602.112122	981.910461	13732.257813	10160.451172	71.986595
602.451538	978.566833	13855.601563	10368.795898	72.922295
602.790894	979.904297	14011.338867	10621.500000	73.987213
603.130310	961.848633	14240.338867	10868.852539	74.609413
603.469604	971.953918	14513.252930	11149.791992	75.161461
603.808838	968.387390	14832.754883	11438.160156	75.515686
604.148010	959.173828	15115.476563	11688.709961	75.793350
604.487305	959.842529	15304.206055	11852.101563	75.934067
604.826416	971.656738	15410.905273	11890.886719	75.621880
605.165527	981.390381	15399.463867	11816.807617	75.151627
605.504456	963.334778	15340.836914	11652.671875	74.347664
605.843445	952.189270	15216.082031	11393.429688	73.200500
606.182434	951.743591	15014.200195	11146.299805	72.494850
606.521423	961.700134	14788.766602	10896.643555	71.851418
606.860229	966.826965	14570.390625	10699.146484	71.542427
607.199036	968.758850	14418.442383	10516.584961	70.989227
607.537903	966.752686	14381.440430	10399.855469	70.319214
607.876648	974.628845	14462.059570	10394.430664	69.841339
608.215271	978.566895	14731.109375	10519.555664	69.376175
608.553955	977.600891	15195.128906	10714.600586	68.485886
608.892578	980.944519	16049.312500	10990.264648	66.426041
609.231140	978.641113	17279.619141	11310.434570	63.381428
609.569641	977.972412	18917.919922	11657.948242	59.531811
609.908081	968.535950	20817.394531	11989.635742	55.525105
610.246521	977.675232	22792.806641	12263.589844	51.734344
610.584961	982.579102	24579.337891	12472.231445	48.691658
610.923340	985.848450	25870.201172	12546.683594	46.458248
611.261597	993.873230	26535.507813	12480.406250	44.971802
611.599854	1001.303528	26681.068359	12300.964844	44.002197
611.938110	1001.897888	26461.576172	12037.190430	43.344196
612.276245	989.786621	25929.791016	11774.827148	43.243942
612.614319	979.458496	25026.937500	11459.188477	43.579330
612.952393	972.028137	23804.361328	11136.417969	44.517525
613.290466	966.901306	22530.515625	10780.656250	45.510712
613.628479	970.987976	21278.070313	10485.228516	46.851833
613.966370	981.167419	20053.189453	10239.880859	48.546055
614.304260	976.932129	18841.982422	10013.628906	50.583103
614.642151	968.684570	17635.380859	9753.495117	52.708775
614.979980	955.607239	16632.515625	9531.553711	54.704323
615.317749	956.498840	15741.700195	9342.973633	56.722088
615.655396	972.399658	15049.421875	9218.441406	58.578026
615.993164	975.223145	14440.066406	9117.538086	60.470921
616.330811	989.935059	13949.221680	9058.764648	62.262913
616.668396	971.730957	13443.368164	8981.565430	64.224403
617.005859	983.545105	13019.397461	8914.691406	65.896011
617.343445	982.430664	12626.929688	8846.853516	67.537666
617.680908	978.492615	12341.534180	8802.124023	68.851555
618.018311	984.139587	12115.132813	8782.953125	70.063950
618.355652	971.508118	11909.612305	8732.872070	70.957115
618.692993	995.507813	11746.442383	8715.633789	71.808884
619.030273	974.703125	11598.358398	8657.008789	72.313202
619.367554	968.610168	11501.764648	8607.747070	72.524681
619.704712	953.526855	11434.222656	8549.568359	72.476501
620.041870	961.997375	11362.668945	8518.510742	72.654083
620.379028	954.715637	11294.385742	8482.993164	72.809647
620.716064	938.220520	11232.416992	8450.077148	72.971764
621.053040	926.777832	11188.429688	8405.717773	72.882416
621.389954	932.499207	11159.004883	8380.083984	72.826294
621.726929	932.127625	11129.359375	8359.205078	72.834259
622.063843	929.824219	11127.575195	8336.691406	72.632362
622.400635	923.434265	11133.742188	8335.204102	72.591057
622.737427	934.653870	11157.222656	8332.084961	72.363724
623.074219	937.403076	11165.172852	8318.932617	72.171448
623.410889	953.823975	11173.122070	8326.584961	72.145470
623.747559	960.808594	11226.026367	8348.951172	71.972588
624.084167	970.839417	11287.028320	8400.368164	72.018158
624.420715	967.570068	11379.461914	8469.024414	72.046989
624.757324	973.217102	11480.440430	8544.069336	72.053780
625.093750	967.198547	11590.704102	8653.518555	72.352005
625.430176	968.387390	11712.040039	8728.787109	72.232422
625.766602	979.086975	11830.554688	8841.801758	72.457619
626.102905	975.297546	11971.284180	8934.828125	72.385780
626.439209	965.861084	12081.696289	9070.950195	72.914803
626.775452	941.266907	12166.401367	9153.500000	73.159332
627.111694	944.461914	12189.659180	9183.073242	73.263374
627.447876	941.118347	12178.215820	9148.448242	73.037811
627.783997	942.455750	12126.649414	9056.536133	72.549538
628.120056	943.644531	12113.870117	8968.487305	71.841370
628.456055	957.836426	12059.554688	8844.549805	71.040474
628.792053	947.879883	12006.651367	8743.423828	70.491951
629.128052	938.369141	11869.414063	8644.600586	70.498581
629.463928	942.158508	11820.894531	8583.748047	70.243355
629.799744	946.245117	11797.934570	8487.674805	69.495445
630.135559	954.195496	11839.618164	8395.093750	68.356537
630.471375	933.390686	11812.870117	8274.945313	67.480751
630.807068	958.802246	11742.429688	8232.964844	67.455620
631.142700	971.953918	11610.914063	8181.026855	67.761070
631.478333	981.315979	11457.999023	8094.910156	67.899300
631.813965	954.121277	11261.468750	7964.731934	68.015663
632.149475	932.053284	11024.739258	7835.444824	68.399948
632.484924	931.607483	10780.582031	7780.832031	69.542511
632.820435	939.706482	10557.971680	7732.833496	70.627357
633.155884	942.158447	10360.252930	7715.520020	71.918594
633.491150	977.526550	10265.960938	7731.421387	72.712952
633.826477	978.343933	10105.541992	7711.062012	73.765442
634.161804	1000.486145	9997.208008	7686.616699	74.317406
634.497009	964.746582	9793.619141	7552.351563	74.614334
634.832153	948.325684	9620.790039	7454.792480	75.024422
635.167297	923.954346	9476.198242	7340.439941	75.026917
635.502380	912.437439	9335.245117	7259.227051	75.352425
635.837463	926.629211	9248.459961	7167.314453	74.991730
636.172424	933.836609	9125.786133	7086.175781	75.102257
636.507324	951.297791	9036.102539	7037.507813	75.279617
636.842224	954.418457	8949.317383	6991.588379	75.512772
637.177124	959.471008	8845.590820	6922.784668	75.617844
637.511963	941.415344	8753.975586	6832.952637	75.411095
637.846741	934.579590	8667.262695	6759.541504	75.329117
638.181396	915.260925	8568.143555	6660.570313	75.073792
638.516113	933.613708	8496.145508	6611.010254	75.072693
638.850769	930.641602	8404.530273	6534.181641	74.974892
639.185303	938.666199	8363.514648	6495.618652	74.842636
639.519836	933.836609	8281.484375	6428.225098	74.777519
639.854370	926.703552	8208.073242	6359.718262	74.615288
640.188843	932.350525	8129.089355	6320.189453	74.865005
640.523254	935.322693	8083.467285	6277.465332	74.734673
640.857605	958.059265	8049.140137	6265.279785	74.843605
641.191895	948.994385	8002.180176	6207.917969	74.560974
641.526184	935.842773	7914.651855	6163.039063	74.900978
641.860413	922.319641	7869.921387	6122.023438	74.841705
642.194580	922.914063	7826.008301	6084.427246	74.771011
642.528748	925.811951	7801.710938	6037.615723	74.343788
642.862793	942.604309	7762.405762	6012.650391	74.343018
643.196838	943.050110	7743.681152	6001.950684	74.388695
643.530823	944.164612	7721.910156	5982.707031	74.339500
643.864746	929.304199	7692.932129	5946.669922	74.181572
644.198669	927.892395	7639.806152	5919.400391	74.367882
644.532532	931.979065	7621.007324	5918.583496	74.549011
644.866333	931.013184	7597.230469	5899.412598	74.531013
645.200073	943.718933	7591.138184	5884.403809	74.324860
645.533813	935.619934	7547.076172	5863.970703	74.542587
645.867554	925.737610	7541.429199	5858.323730	74.558891
646.201172	920.090637	7535.856934	5858.249512	74.642281
646.534729	960.288391	7592.475098	5893.766113	74.386894
646.868225	966.381287	7595.595703	5903.648438	74.477409
647.201782	953.749756	7569.886719	5913.456543	74.963791
647.535217	913.031799	7560.004395	5884.329590	74.790405
647.868591	926.926453	7578.134277	5884.998535	74.543938
648.201965	935.768494	7617.068848	5879.351563	73.991333
648.535278	933.019287	7607.558594	5861.518066	73.840294
648.868591	915.186584	7614.914551	5834.695313	73.428482
649.201782	912.214539	7643.074707	5819.463379	72.906715
649.534912	918.381653	7685.799316	5840.640137	72.734665
649.868103	907.979248	7701.031250	5839.079590	72.590355
650.201172	909.539551	7737.662109	5844.577637	72.275185
650.534180	910.356934	7754.306152	5831.574707	71.906113
650.867188	928.189636	7767.605957	5842.199707	71.848381
651.200134	922.765442	7749.550781	5844.577637	72.095604
651.533020	916.449707	7699.099121	5825.407715	72.375229
651.865845	936.288574	7672.350098	5800.219238	72.207336
652.198608	955.904480	7636.610840	5766.337402	72.004852
652.531433	959.991150	7598.567871	5732.009277	71.883148
652.864136	938.220459	7544.326660	5705.186035	72.159988
653.196777	3431.300049	10204.067383	8404.901367	73.435287
653.529358	3540.822266	10197.677734	8446.881836	73.699356
653.861938	3539.781982	10124.489258	8390.932617	73.672989
654.194519	1035.259888	7328.254395	5610.226563	72.699356
654.526978	931.904785	7246.298340	5503.527832	72.400032
654.859375	927.743713	7184.403809	5477.373535	72.716591
655.191833	931.607422	7149.927734	5468.308594	72.957016
655.524170	923.582764	7074.511230	5435.986816	73.361351
655.856445	935.322693	7059.130371	5439.182129	73.546715
656.188660	1014.083496	7141.532715	5527.751465	73.663086
656.520874	1027.458008	7161.370605	5558.809082	73.873749
656.853088	1017.650085	7181.135254	5600.047363	74.347504
657.185181	935.768555	7120.058594	5542.611328	74.492668
657.517212	921.948181	7194.212891	5597.669434	74.545982
657.849243	931.533203	7293.332520	5683.191406	74.690475
658.181274	937.997559	7403.968750	5823.550293	75.557907
658.513123	933.242188	7488.302246	5924.378906	76.141739
658.844971	919.570496	7596.784668	6043.040527	76.730652
659.176819	914.072021	7698.728027	6114.296387	76.646843
659.508667	912.883118	7780.683594	6201.751465	77.009636
659.840393	922.022461	7832.472656	6214.159668	76.581657
660.172058	922.468262	7839.382813	6211.707520	76.468185
660.503662	937.626038	7814.193848	6159.026855	75.930336
660.835266	941.415527	7738.033691	6110.804688	76.058258
661.166931	937.626038	7648.945313	5999.275879	75.419594
661.498413	932.796387	7548.190918	5916.800293	75.339478
661.829773	932.945007	7428.712402	5783.798340	74.677139
662.161194	944.536194	7315.548828	5692.480469	74.524170
662.492615	934.728271	7178.014160	5542.537598	73.804237
662.823975	949.068665	7078.076660	5454.934082	73.517044
663.155212	941.044006	6940.171387	5357.077637	73.611267
663.486450	940.300964	6841.126465	5323.343750	74.278465
663.817627	933.465088	6719.863281	5261.375488	74.794540
664.148743	932.870667	6631.443848	5221.623535	75.260117
664.479858	938.220459	6552.682129	5176.521973	75.489014
664.810913	915.855286	6479.271484	5148.732910	76.084145
665.141907	907.384827	6411.285156	5116.856934	76.481621
665.472778	899.360107	6342.777344	5081.191895	76.823654
665.803711	937.403137	6333.043457	5095.309082	77.060471
666.134583	941.861328	6303.396973	5080.151367	77.184792
666.465454	960.288391	6309.192871	5103.259766	77.454575
666.796143	922.765442	6251.979004	5049.761230	77.440987
667.126831	931.458984	6244.920410	5075.618652	77.993599
667.457458	925.811829	6213.713379	5069.897949	78.369202
667.788147	935.619812	6194.469238	5092.113770	79.038086
668.118774	939.409241	6202.716797	5098.801270	79.026199
668.449219	943.718811	6196.178223	5113.142090	79.380402
668.779663	953.749756	6213.416504	5119.234375	79.196732
669.110107	934.133850	6170.989746	5098.206543	79.514748
669.440552	924.251648	6182.209473	5082.083496	79.076935
669.770874	895.050598	6144.611816	5060.684082	79.352028
670.101135	903.669678	6129.231934	5029.254395	78.950066
670.431396	902.629395	6078.111328	4993.960449	79.052177
670.761597	918.010071	6032.191895	4951.384766	78.866478
671.091797	920.387695	6006.037109	4947.000977	79.175987
671.421875	914.369324	5950.384766	4925.007324	79.639107
671.751892	916.301208	5940.279297	4938.382324	80.057693
672.081909	911.545715	5913.232910	4912.078613	79.983673
672.411865	919.347473	5902.310547	4902.047363	79.926338
672.741821	910.579834	5853.865234	4851.893066	79.730644
673.071716	911.099915	5807.723145	4826.259277	79.956314
673.401550	913.477722	5772.652344	4788.736328	79.751373
673.731262	915.632385	5742.856934	4773.429688	79.917503
674.060974	907.904968	5683.266113	4760.203613	80.670303
674.390625	911.991638	5650.127441	4753.590820	81.078285
674.720276	915.186707	5625.533203	4744.748535	81.301064
675.049927	924.102966	5596.183594	4750.395996	81.896980
675.379395	917.489990	5563.713379	4758.791504	82.675781
675.708923	918.455994	5540.233887	4753.293457	82.973213
676.038330	919.347656	5554.425781	4742.816895	82.489853
676.367737	921.725281	5543.502441	4705.591309	81.870361
676.697083	938.369080	5553.459473	4725.281738	82.055008
677.026428	937.700256	5555.094238	4708.414551	81.663254
677.355652	920.907898	5559.181152	4715.696777	81.814682
677.684875	933.465149	5588.232910	4725.652832	81.468895
678.013977	921.650940	5569.509277	4742.742676	82.211884
678.343079	934.505371	5603.985840	4793.416504	82.641121
678.672180	906.790344	5590.759277	4807.386230	83.275444
679.001221	903.075195	5659.786621	4858.654785	83.157860
679.330139	910.728516	5711.575684	4937.415527	83.874512
679.659058	907.607727	5788.181641	5007.334473	84.000916
679.987976	909.465332	5854.683105	5059.346680	83.917061
680.316772	903.149597	5897.257813	5068.188965	83.399063
680.645630	897.948425	5912.416016	5066.479980	83.130096
680.974304	903.223877	5921.183594	5067.891602	82.995239
681.302979	894.679016	5907.660156	5065.662598	83.203659
681.631653	899.583008	5908.552246	5074.875977	83.356331
681.960266	907.310547	5892.874512	5083.940918	83.774483
682.288757	914.889465	5876.082520	5081.934570	83.992805
682.617249	917.118469	5831.128906	5064.027344	84.389503
682.945679	917.341370	5760.318359	5022.343750	84.761963
683.274109	935.471191	5714.251465	4959.335449	84.202744
683.602478	944.907715	5633.261230	4869.429199	83.707886
683.930725	936.808777	5558.809082	4773.727051	83.014229
684.259033	909.985535	5455.231445	4665.765137	82.630936
684.587280	903.521057	5373.795410	4593.468262	82.544090
684.915344	919.719055	5328.842285	4539.599121	82.099777
685.243469	935.619873	5285.523926	4526.447266	82.549576
685.571533	937.105896	5269.548340	4513.519043	82.549583
685.899536	939.186340	5245.697266	4509.134766	82.896545
686.227539	925.811829	5232.917480	4499.921387	82.981705
686.555420	918.307312	5244.062988	4526.298828	83.407188
686.883301	908.722229	5256.472168	4543.834473	83.609047
687.211121	907.459045	5282.403320	4548.960938	83.235390
687.538940	917.935791	5310.117676	4540.341797	82.473961
687.866638	905.898743	5316.508301	4514.559082	81.817726
688.194336	910.431213	5298.749512	4502.447754	81.854057
688.521973	890.072266	5254.242188	4458.906250	81.775780
688.849609	894.827637	5199.480957	4433.717285	82.210793
689.177063	905.230042	5163.519043	4413.061035	82.376534
689.504578	915.632385	5099.395996	4401.247559	83.312912
689.832031	915.409485	5038.244629	4362.907227	83.619591
690.159485	901.960693	4965.353516	4300.864746	83.646950
690.486816	899.508728	4909.106445	4227.527832	83.001320
690.814087	932.201904	4875.596191	4202.933594	82.942039
691.141296	947.656921	4816.673828	4164.073242	83.132652
691.468506	938.368958	4734.346191	4108.123535	83.502991
691.795715	900.251770	4645.777344	4032.334717	83.621986
692.122803	898.096985	4605.059570	3980.768555	83.158958
692.449829	909.688293	4589.976563	3966.205078	83.051018
692.776855	910.654236	4581.431641	3936.855469	82.440338
693.103821	890.072266	4555.500000	3901.858643	82.167389
693.430664	873.502747	4542.794434	3875.258545	81.807503
693.757568	879.298340	4516.416504	3864.930420	82.087852
694.084351	887.545959	4492.416504	3869.239502	82.712914
694.411133	906.567566	4461.209473	3870.502930	83.382111
694.737854	903.818298	4436.318359	3845.314453	83.269531
695.064575	901.514893	4428.070801	3814.850586	82.611359
695.391174	905.527283	4423.761230	3784.757813	81.837379
695.717773	908.499451	4408.751953	3799.469727	82.593193
696.044250	910.431213	4386.460938	3813.587158	83.519310
696.370789	904.561279	4399.166504	3855.271240	84.436142
696.697205	901.366394	4435.129395	3896.212158	84.749481
697.023621	905.007141	4512.850098	3977.127686	85.151169
697.349915	918.901794	4617.468262	4079.071045	85.443085
697.676208	914.889404	4723.943848	4176.779297	85.635162
698.002380	911.025696	4848.029785	4292.988770	85.901947
698.328674	895.422058	4975.904785	4396.566406	85.802208
698.654724	897.056824	5122.280762	4507.500488	85.449753
698.980896	906.121765	5234.998535	4583.957520	84.960503
699.306946	916.152527	5282.552246	4610.632324	84.611572
699.632935	925.960449	5274.750488	4604.167969	84.580017
699.958862	921.502258	5223.778320	4538.410156	84.069641
700.284729	910.134033	5136.918457	4440.404785	83.521431
700.610596	903.892578	5051.247559	4336.826660	82.774063
700.936340	897.651184	4931.174316	4227.750488	82.560562
701.262146	891.261169	4787.770020	4117.336426	82.793991
701.587830	893.341614	4661.158691	3998.526611	82.413368
701.913513	903.075256	4539.450684	3898.069092	82.362061
702.239075	908.573730	4435.872559	3796.571533	81.875618
702.564697	909.316711	4318.696777	3688.758545	81.523376
702.890137	894.604736	4215.564453	3575.447266	80.724937
703.215698	890.295227	4136.061035	3506.197021	80.594284
703.541016	883.682312	4070.526123	3448.983643	80.496613
703.866455	889.403564	4036.718018	3411.312500	80.128914
704.191711	903.000977	4024.829834	3367.622314	78.947998
704.517029	906.493164	4009.894775	3343.844971	78.538071
704.842163	920.759277	3993.622803	3333.962891	78.532730
705.167419	914.889404	3995.554688	3333.666016	78.514748
705.492493	914.889404	4013.907471	3332.774170	78.020996
705.817566	901.366394	4029.288086	3320.068604	77.326172
706.142578	905.973083	4065.250732	3311.375000	76.137718
706.467590	915.558105	4106.711426	3301.270264	74.760185
706.792480	919.570496	4155.603027	3285.146240	73.101112
707.117371	912.808899	4163.701660	3271.697266	72.561249
707.442200	928.932617	4205.905762	3276.675781	71.643646
707.766907	932.424805	4227.453613	3285.740234	71.420181
708.091675	932.573425	4260.592285	3300.452393	71.149803
708.416321	908.796631	4240.530762	3297.554688	71.697136
708.741028	905.452942	4252.790527	3319.028320	72.104332
709.065552	913.403381	4254.722656	3330.025391	72.325386
709.390137	912.065918	4248.035156	3336.415283	72.673012
709.714600	912.214539	4246.548828	3337.678467	72.742073
710.039063	914.369324	4231.911133	3347.263428	73.334244
710.363403	937.328857	4234.140625	3367.622314	73.716476
710.687744	936.437256	4231.613770	3388.426758	74.411476
711.012085	921.948242	4257.620117	3404.625000	74.428085
711.336304	911.620178	4299.452637	3444.897217	74.775749
711.660461	906.567566	4315.204590	3448.092041	74.561310
711.984619	919.421875	4327.019043	3449.355225	74.243912
712.308716	913.477722	4317.507813	3422.531982	73.708344
712.632751	926.777832	4291.873535	3419.485596	74.075394
712.956726	942.752930	4250.933105	3419.708740	74.873665
713.280701	951.223389	4189.410156	3402.173096	75.688957
713.604553	963.706238	4130.934082	3375.349609	76.143661
713.928467	957.910645	4055.591064	3321.480469	76.301277
714.252258	949.217102	3971.554688	3258.322998	76.401321
714.575989	931.979004	3896.360596	3192.862305	76.268295
714.899719	916.078308	3827.184814	3146.497314	76.617569
715.223267	910.134033	3788.027344	3126.287109	77.006088
715.546936	914.146423	3766.627686	3125.915771	77.538437
715.870422	911.917297	3759.271729	3121.234619	77.591934
716.193970	908.276550	3737.873047	3114.770264	77.979095
716.517395	905.304382	3715.210693	3123.909424	78.956551
716.840820	897.874023	3668.622803	3090.696045	79.141853
717.164124	904.338379	3626.567139	3068.850830	79.512512
717.487488	910.134033	3588.152344	3028.207275	79.091064
717.810730	920.759338	3555.310791	3016.541992	79.549889
718.133972	909.762512	3508.574463	2959.923096	78.888374
718.457092	895.496399	3445.194092	2893.868164	78.376816
718.780212	884.202393	3385.751953	2830.933594	77.821014
719.103210	886.357117	3351.869873	2791.181885	77.258766
719.426208	881.081726	3304.985107	2755.367920	77.325119
719.749207	911.843018	3307.139893	2754.476563	76.927147
720.072083	917.638672	3261.963623	2728.470459	77.243210
720.394958	923.805664	3235.289063	2704.024658	77.016304
720.717773	890.666687	3163.884033	2650.823730	77.430214
721.040527	888.957703	3147.983398	2633.362549	77.219345
721.363281	901.812073	3137.580811	2630.167725	77.304764
721.685913	930.121399	3126.138428	2628.755859	77.350700
722.008545	929.378418	3093.519531	2610.700439	77.690033
722.331055	915.409485	3054.659424	2569.685303	77.329712
722.653503	895.273499	3032.517334	2535.208740	76.731316
722.976013	899.731689	3029.098877	2528.001465	76.467308
723.298401	903.521179	3022.857666	2526.515381	76.580299
723.620789	903.966980	3005.173828	2514.106689	76.629280
723.943115	908.276550	3001.607178	2498.280518	75.955704
724.265381	908.573669	3000.269531	2503.109863	76.231743
724.587585	909.613953	3004.802002	2520.199463	76.870689
724.909790	908.945129	3002.275635	2539.444092	77.890182
725.231873	905.081482	3003.390381	2542.564941	78.038246
725.553894	927.595215	3020.405518	2577.115723	78.818443
725.875916	1492.964478	3609.923096	3157.345459	78.621330
726.197937	1521.422363	3642.764893	3176.961182	78.042030
726.519775	1499.874634	3645.662842	3142.187500	76.536583
726.841675	929.675720	3064.318359	2557.499756	76.257446
727.163513	901.291992	3044.702881	2549.400635	76.891869
727.485291	897.131042	3058.076904	2563.889648	77.130974
727.806946	907.533447	3087.203857	2599.777832	77.637627
728.128662	907.087585	3113.952393	2610.031494	77.165756
728.450256	921.725281	3127.327148	2634.105713	77.637787
728.771790	908.722351	3122.125732	2635.888916	78.032166
729.093323	914.146301	3121.679932	2659.963135	79.084496
729.414795	902.852356	3119.154053	2666.278809	79.566177
729.736145	902.109375	3114.844482	2655.876465	79.257889
730.057495	895.347839	3108.974609	2634.774658	78.578140
730.378845	896.536621	3102.212891	2616.347412	77.972038
730.700134	903.223816	3115.438721	2620.433838	77.624016
731.021301	900.548889	3131.710938	2620.954102	77.108032
731.342468	903.743958	3146.868896	2637.746582	77.302986
731.663574	898.096985	3150.063721	2631.356689	76.966492
731.984680	918.901672	3153.927734	2643.839355	77.177521
732.305664	912.363098	3154.150391	2646.514404	77.355751
732.626648	919.198975	3162.769531	2669.919678	78.032791
732.947571	903.223877	3163.661377	2663.678467	77.881142
733.268433	908.053528	3168.639404	2665.535889	77.744553
733.589233	903.595398	3158.831299	2659.591797	77.863091
733.909973	922.022461	3149.246826	2689.238281	79.346107
734.230713	943.570313	3145.605469	2689.015625	79.265099
734.551331	941.861328	3098.720703	2652.161377	79.295853
734.871948	921.576660	3040.987305	2582.316895	78.358589
735.192505	900.400391	2976.789795	2519.828369	77.992500
735.513062	898.096985	2934.585938	2487.952393	78.068451
735.833435	906.716125	2901.372314	2453.847412	77.563805
736.153931	896.685242	2858.722656	2427.618652	78.027740
736.474304	903.446777	2839.924072	2399.309326	77.246582
736.794617	910.282654	2837.769531	2397.005859	77.132729
737.114807	935.025452	2838.512451	2408.596924	77.414322
737.434998	932.201965	2839.180908	2416.547363	77.837532
737.755188	935.248352	2839.255127	2440.993164	79.082954
738.075256	924.177246	2828.704834	2445.376953	79.872810
738.395325	918.976074	2834.649170	2451.989990	80.024818
738.715271	922.096741	2853.150391	2459.494385	79.614449
739.035278	919.124695	2867.787842	2457.190918	78.929298
739.355164	925.663269	2864.964600	2457.711182	78.999992
739.675049	913.106140	2843.268311	2438.987061	79.054543
739.994873	923.954407	2850.698242	2442.479004	78.812996
740.314636	923.731445	2837.249268	2427.544189	78.588905
740.634277	931.681824	2814.735596	2410.157227	78.514771
740.953979	911.768738	2776.469971	2371.222656	78.267441
741.273499	913.626221	2771.640381	2361.489014	77.925285
741.593140	916.746887	2761.163330	2353.835938	77.915649
741.912598	924.028625	2743.479492	2352.126953	78.490623
742.232117	921.130859	2710.711914	2336.077393	79.065796
742.551453	902.406494	2669.548096	2307.396729	79.506378
742.870850	922.022461	2652.755615	2296.697266	79.427315
743.190063	921.205078	2619.170898	2281.316406	80.102394
743.509338	922.171082	2604.904785	2263.483887	79.710342
743.828552	901.291992	2577.338623	2233.317139	79.474228
744.147705	906.344543	2566.713135	2203.075928	78.099007
744.466797	911.174316	2549.400635	2182.568115	77.607948
744.785828	929.378418	2558.985840	2182.419434	76.892204
745.104858	930.418701	2553.264404	2184.351318	77.267517
745.423706	930.121521	2541.673340	2188.660889	78.094872
745.742615	929.824219	2517.525146	2187.917969	79.239967
746.061401	948.622864	2521.834473	2204.264404	79.813904
746.380249	945.873596	2510.391846	2202.852783	80.342888
746.698975	938.369080	2487.357910	2192.302002	80.951706
747.017639	920.239075	2451.915527	2160.871826	80.998360
747.336304	915.558105	2446.565674	2148.909180	80.558128
747.654907	921.799500	2457.339600	2156.041992	80.378395
747.973389	931.087402	2481.042236	2171.422607	80.023956
748.291931	943.050232	2478.144287	2172.091553	80.062935
748.610352	933.985168	2469.896729	2147.645752	79.018913
748.928711	933.687988	2459.865967	2148.017334	79.566696
749.247070	947.433899	2478.812988	2143.039063	78.073753
749.565308	947.062439	2465.141357	2147.422852	79.071014
749.883545	938.591980	2455.556396	2144.896484	79.520950
750.201782	924.845947	2440.398682	2167.781982	82.012062
750.519836	917.415710	2441.661865	2171.719971	82.290138
750.837952	910.728516	2437.203613	2181.528076	83.250595
751.155884	905.675842	2429.550537	2174.617920	83.270760
751.473877	902.406555	2417.290283	2171.868652	83.799309
751.791809	892.747253	2399.680664	2150.320801	83.452492
752.109619	894.084656	2377.241211	2135.311523	83.688187
752.427490	899.954590	2377.612549	2129.590576	83.215195
752.745300	923.805847	2390.169678	2125.503662	81.950859
753.062988	914.592224	2396.559814	2120.970947	81.403854
753.380615	906.864563	2400.795166	2100.686523	79.911476
753.698303	907.533386	2397.971680	2104.847412	80.333015
754.015808	914.963684	2392.399170	2102.766846	80.396278
754.333374	923.062683	2379.693359	2118.667969	82.080193
754.650757	915.038025	2369.216553	2127.138428	83.352928
754.968262	916.449707	2365.055664	2136.649170	84.232666
755.285583	928.858215	2375.606445	2158.791260	85.013618
755.602905	926.777832	2370.331055	2157.825439	85.278992
755.920105	925.366028	2371.148438	2164.215332	85.687119
756.237305	908.722229	2357.996826	2145.268311	85.321724
756.554443	904.932800	2355.396240	2131.968018	84.596077
756.871582	904.412659	2353.018311	2128.178467	84.478882
757.188599	900.251770	2347.965820	2126.469482	84.700272
757.505615	907.013367	2351.904053	2129.515869	84.608650
757.822510	919.941895	2369.588135	2138.060791	84.028702
758.139465	926.034729	2390.689941	2150.023438	83.568382
758.456238	922.542542	2410.603027	2175.286377	84.186356
758.773010	907.161865	2426.281006	2188.289307	84.333572
759.089783	909.911133	2443.742188	2214.444092	85.050629
759.406433	903.372375	2438.020752	2219.793701	85.779999
759.723145	903.298157	2428.064209	2225.663818	86.725807
760.039673	904.709961	2424.125977	2248.846191	88.464005
760.356201	900.103210	2419.593750	2258.951416	89.427879
760.672668	899.731689	2433.191162	2267.867676	89.218918
760.989136	893.713074	2430.813477	2233.539795	87.165855
761.305481	900.697571	2440.101318	2229.007568	86.287308
761.621826	909.390930	2446.491455	2226.927002	85.715675
761.938049	939.706543	2475.172119	2275.892334	87.021538
762.254333	942.307129	2507.865479	2295.805664	86.454681
762.570496	935.099792	2543.307861	2312.523682	85.649605
762.886597	899.805969	2583.877197	2335.111572	85.228317
763.202637	892.672852	2685.671875	2438.020752	86.187881
763.518677	902.555176	2831.305420	2607.654053	88.404335
763.834656	908.796570	2990.164307	2780.333252	89.918594
764.150574	902.926697	3104.218994	2892.010498	90.359825
764.466370	905.304382	3149.617920	2947.885986	91.011421
764.782288	896.090820	3131.710938	2939.118408	91.385277
765.097961	914.815125	3096.863037	2902.264404	91.081833
765.413696	898.468506	3001.755615	2792.221924	90.037796
765.729309	906.344543	2908.951416	2662.266357	87.681801
766.044861	899.805969	2793.262451	2539.592529	86.602814
766.360474	897.948425	2708.259766	2445.748047	85.499084
766.675903	896.462402	2618.427979	2357.031006	84.819847
766.991394	894.381836	2530.676514	2278.418701	84.583595
767.306763	908.945129	2475.172119	2223.806152	83.950859
767.622131	902.406555	2435.048828	2192.673096	84.185760
767.937378	902.629456	2386.009033	2153.589844	84.331779
768.252625	902.629456	2354.653076	2137.763672	85.062958
768.567810	904.709961	2303.235596	2106.036377	85.899490
768.882996	913.106140	2289.564209	2104.773193	86.574890
769.197998	897.948425	2251.149658	2070.371094	86.640671
769.513062	915.781067	2244.016602	2067.473145	86.708420
769.828064	907.756348	2216.153076	2041.838867	86.677269
770.142944	914.146301	2187.695068	2024.749146	87.205353
770.457825	902.778076	2158.717041	2002.829712	87.587982
770.772705	898.765808	2132.933838	1976.675293	87.338959
771.087402	898.171387	2121.639893	1962.334961	86.979240
771.402100	897.428284	2104.253174	1938.855103	86.294762
771.716736	904.635742	2095.634033	1921.765625	85.401459
772.031372	902.332275	2076.760986	1888.552246	83.974442
772.345947	898.840088	2054.990234	1865.146973	83.579704
772.660461	894.530457	2043.473267	1860.020142	84.032875
772.974854	907.904968	2028.612915	1865.072754	85.407417
773.289246	920.610779	2033.145386	1865.667114	84.946236
773.603638	917.044189	2013.900879	1864.255371	86.356880
773.917908	908.796570	2003.721558	1862.026367	87.058907
774.232178	900.474670	1989.455444	1859.797241	88.093620
774.546265	904.487061	1995.176758	1855.338867	87.178947
774.860474	906.493164	1997.851563	1845.828125	86.070259
775.174561	907.310547	1989.826782	1848.280273	86.924309
775.488586	917.861511	1987.746460	1840.478394	86.235146
775.802551	919.496155	1982.470825	1827.326782	85.404732
776.116516	913.477722	1967.758911	1809.494141	84.988365
776.430359	900.028870	1956.242065	1797.159790	84.938438
776.744202	913.106140	1966.644531	1803.029785	84.469986
777.057922	913.403320	1963.746704	1780.441772	82.548096
777.371704	909.465332	1949.332031	1762.460571	82.029289
777.685303	883.905090	1918.199097	1742.250122	82.988503
777.998962	883.682312	1912.700562	1749.606079	84.150475
778.312500	885.539856	1908.390991	1753.321289	84.839462
778.626038	888.140442	1891.672852	1760.082886	86.887321
778.939453	909.539612	1903.189819	1775.463501	87.145744
779.252869	932.647766	1925.777954	1809.716919	88.313614
779.566223	931.384583	1930.161743	1795.079468	86.475235
779.879578	916.078186	1922.285645	1787.054688	86.560333
780.192749	902.183594	1889.741089	1763.723633	87.239479
780.505920	909.019470	1897.394165	1770.485352	87.159851
780.819031	902.109314	1884.688477	1741.135742	85.390213
781.132141	969.056091	1950.966431	1780.515991	82.640938
781.445190	969.204651	1938.706665	1773.382935	82.947563
781.758118	988.597717	1945.468140	1782.002319	82.916618
782.071045	926.480652	1874.509155	1716.244263	83.305893
782.383911	922.022461	1867.376099	1697.668579	82.048248
782.696838	899.211609	1844.416504	1683.996948	83.028069
783.009583	890.369446	1833.122437	1678.126953	83.559273
783.322266	885.911316	1816.404297	1673.371582	84.628288
783.634888	890.518066	1802.732544	1662.449219	84.621674
783.947510	886.877258	1790.621094	1659.402710	85.480576
784.260132	888.809265	1786.386108	1670.102173	87.044685
784.572571	892.375793	1786.014526	1670.399414	87.062431
784.885010	889.775146	1784.528442	1657.470703	85.799690
785.197449	899.211609	1794.113403	1650.114746	83.908997
785.509766	904.264160	1793.222046	1644.170532	83.233009
785.822083	910.059753	1789.729614	1639.118042	82.878624
786.134277	912.734680	1787.054688	1618.907837	80.768272
786.446533	909.836853	1788.540894	1612.220581	79.934052
786.758606	926.257751	1795.376587	1615.787109	79.336601
787.070740	918.678894	1784.900024	1623.217285	81.334702
787.382690	919.050354	1778.286987	1626.932251	82.384979
787.694641	899.508789	1771.079468	1628.864258	83.682884
788.006653	899.731628	1794.856445	1644.467773	83.199142
788.318481	905.007141	1829.481445	1684.814331	84.351418
788.630310	905.155762	1864.998413	1717.136108	84.595154
788.942017	897.874084	1876.515259	1728.652832	84.891045
789.253784	899.583008	1889.889648	1743.587524	85.226585
789.565430	904.709961	1883.425293	1739.649536	85.309746
789.877014	904.635559	1860.168579	1729.618774	86.337486
790.188538	904.338379	1839.512573	1705.693359	85.690453
790.500061	899.954529	1813.209351	1675.452148	84.915794
790.811462	905.229980	1809.345703	1658.436890	83.308685
791.122925	906.418762	1802.732788	1639.192383	81.754120
791.434204	899.434387	1786.980469	1612.889160	80.385094
791.745483	900.920471	1763.352173	1595.428101	80.528999
792.056702	881.081726	1727.909790	1561.471680	80.345703
792.367920	894.902039	1721.222534	1561.471680	80.667206
792.678955	889.849426	1703.612915	1546.833984	80.734093
792.990112	903.446777	1703.315552	1550.772095	80.928940
793.301086	888.809143	1694.102051	1542.301636	81.149666
793.612122	905.081360	1703.092651	1547.279907	80.474869
793.922974	904.338379	1697.668457	1541.335571	80.294090
794.233826	915.037903	1696.331055	1540.964233	80.114143
794.544556	905.898743	1695.810913	1540.592773	80.349953
794.855286	893.490234	1682.139282	1538.214844	81.750511
795.166016	902.555176	1694.993652	1547.577148	81.397102
795.476624	900.400391	1690.684082	1540.815430	81.036095
795.787292	910.951355	1709.036743	1550.920776	80.188087
796.097778	893.341553	1709.111328	1542.375854	79.560966
796.408264	888.140381	1723.600220	1571.502563	81.794739
796.718689	882.716309	1731.624878	1578.709961	81.986877
797.029053	891.706970	1744.999390	1599.366089	82.932777
797.339355	894.976257	1747.079956	1587.700562	81.295776
797.649658	899.062988	1747.377319	1588.443481	81.264748
797.959839	888.214661	1724.863403	1572.542603	81.793938
798.270020	890.072266	1726.721069	1572.542603	81.571899
798.580078	898.914307	1727.538208	1576.852417	81.814934
798.890137	898.394226	1719.662109	1573.285767	82.176788
799.200195	893.638855	1695.885376	1552.183960	82.087624
799.510071	885.093933	1672.628540	1526.400757	81.432205
799.820007	892.524231	1667.724609	1497.125610	77.992912
800.129883	888.066101	1659.922729	1481.298950	76.857910
800.439575	888.066162	1653.904297	1465.101196	75.346863
800.749329	891.112610	1648.554565	1472.159790	76.711777
801.058960	897.205383	1640.678345	1466.587280	76.584076
801.368591	891.186829	1628.715698	1460.271484	77.161003
801.678162	890.815369	1624.406250	1452.543945	76.572456
801.987671	900.549011	1621.136719	1449.646118	76.201286
802.297119	911.917297	1626.932495	1460.494263	76.722420
802.606506	895.124817	1608.059448	1460.494141	79.301704
802.915894	883.607971	1597.657227	1459.008179	80.582703
803.225159	874.245850	1578.784180	1441.546997	80.520981
803.534424	889.998047	1587.552124	1434.785522	78.099678
803.843628	891.186829	1588.666504	1432.630737	77.628632
804.152771	896.833801	1590.821289	1439.986694	78.265518
804.461792	901.366394	1587.997681	1462.797729	81.766060
804.770874	900.549011	1587.997681	1466.735718	82.360580
805.079773	893.564453	1590.598267	1469.113281	82.571152
805.388733	882.196106	1590.746948	1444.667847	79.383400
805.697571	876.623535	1587.997681	1441.175415	79.360756
806.006470	876.400574	1606.870483	1435.528687	76.543617
806.315125	870.976563	1621.359497	1438.203491	75.591660
806.623901	879.224121	1632.876465	1433.373657	73.528534
806.932495	873.131348	1619.873535	1418.290405	73.004990
807.241150	895.942200	1609.545532	1429.138550	74.718872
807.549622	907.607727	1610.362915	1444.444946	76.390358
807.858154	913.180420	1596.765503	1454.921509	79.249985
808.166565	899.360107	1579.378540	1427.726929	77.698898
808.474915	885.316895	1569.273438	1409.522583	76.643127
808.783264	901.217712	1576.555176	1412.791992	75.750908
809.091492	895.942200	1564.443848	1414.946655	77.636978
809.399719	897.353943	1555.230347	1408.705444	77.727592
809.707825	893.341614	1544.605103	1394.662109	76.976601
810.015930	890.889648	1553.744263	1390.501343	75.372742
810.323975	893.936035	1554.858887	1395.925293	75.952774
810.632080	885.539856	1542.747437	1380.024414	75.240242
810.939880	881.601807	1525.732056	1365.238159	75.083626
811.247864	880.561584	1514.883789	1354.092773	74.651520
811.555664	879.298401	1510.128418	1353.869873	75.229691
811.863464	887.620300	1505.373047	1358.105103	76.160698
812.171143	881.378845	1490.364136	1345.325073	76.183487
812.478882	889.849365	1486.574585	1341.164063	75.631912
812.786438	904.487061	1500.469116	1345.845215	74.055611
813.094055	906.493225	1507.527954	1349.114502	73.643211
813.401489	891.335510	1490.512573	1346.365234	75.942444
813.708984	875.509033	1476.172241	1329.795898	75.630882
814.016357	892.747253	1492.444336	1344.507690	75.331436
814.323730	911.768738	1497.422729	1351.269287	75.044403
814.630981	918.307312	1483.973999	1347.554199	75.883362
814.938232	913.626282	1461.831665	1330.315918	76.009766
815.245361	890.146667	1461.163086	1322.291260	75.679886
815.552490	883.682312	1464.878296	1319.913452	75.057495
815.859619	874.468750	1463.020508	1311.666016	74.283569
816.166565	878.703918	1464.358032	1310.997192	73.813751
816.473572	875.285950	1466.141235	1321.845337	75.578468
816.780457	875.508850	1467.701660	1335.591309	77.691330
817.087341	881.155945	1475.949219	1344.730713	77.938805
817.394043	882.790710	1488.283569	1343.170410	76.033875
817.700806	880.635925	1496.754028	1331.504761	73.178963
818.007507	887.248779	1494.896484	1333.659546	73.465393
818.314209	891.781250	1487.094727	1345.993774	76.298042
818.620667	890.963867	1483.156616	1360.631470	79.309921
818.927246	881.676025	1500.989380	1368.507446	78.608253
819.233704	883.830872	1537.694946	1377.349609	75.477264
819.540161	886.802979	1568.010376	1394.439087	74.520050
819.846497	897.205383	1611.700317	1431.664673	74.802391
820.152832	897.651184	1653.681274	1479.664429	76.982819
820.458984	889.329285	1711.860474	1518.970703	76.549248
820.765259	881.676086	1761.643188	1562.809204	77.404381
821.071350	890.295227	1842.187134	1629.012817	77.605194
821.377502	893.638855	1956.242065	1713.643555	77.169411
821.683472	904.561340	2170.679688	1877.852661	76.872063
821.989441	894.158936	2561.511963	2198.617432	78.235291
822.295349	900.846191	3196.874268	2729.584717	79.647919
822.601196	898.691406	3998.081055	3397.492188	80.622353
822.907043	897.205383	4748.390137	4004.768311	80.691086
823.212769	885.762695	5229.128418	4415.513184	81.267632
823.518494	892.970154	5336.867676	4501.556152	81.203178
823.824097	886.877258	5079.557129	4290.164551	81.172127
824.129700	891.112549	4620.812500	3896.731689	80.586082
824.435242	879.224060	4096.531738	3441.999268	79.655891
824.740723	880.635803	3641.427734	3042.696533	78.313065
825.046082	882.419128	3261.963867	2706.848145	76.671349
825.351501	873.948547	2948.332031	2432.374023	75.127167
825.656799	871.347961	2704.247559	2221.279541	73.650055
825.962036	867.558533	2503.853027	2067.770264	73.349373
826.267212	886.282776	2389.203857	1991.684204	73.550194
826.572449	902.703674	2330.950684	1971.771118	74.851715
826.877502	905.898743	2376.126709	2017.393188	75.600136
827.182495	910.877136	2501.103760	2146.605469	77.707687
827.487488	894.827637	2675.864014	2298.331787	78.802666
827.792419	897.502625	2816.890625	2434.157227	80.059608
828.097290	869.862000	2858.500000	2457.785400	79.849792
828.402100	876.326355	2803.441406	2409.488770	79.557388
828.706848	884.871155	2678.315918	2297.588867	78.771187
829.011597	891.335449	2495.010986	2137.169189	77.686150
829.316223	886.728516	2297.440186	1966.050171	76.509018
829.620789	889.254883	2119.782227	1803.327148	74.282974
829.925354	908.870850	1990.347046	1699.674805	73.122643
830.229797	924.771667	1882.682251	1619.725098	72.548882
830.534302	946.616638	1810.162720	1573.954468	72.646713
830.838562	929.229797	1712.900513	1497.422729	72.504044
831.142944	921.205078	1643.056030	1432.779297	70.869781
831.447144	889.180664	1560.803101	1363.677856	70.649399
831.751404	888.214661	1537.100464	1350.452026	71.235550
832.055542	894.679016	1525.657837	1355.727417	73.068764
832.359619	888.586243	1525.360718	1356.024780	73.407234
832.663635	895.793640	1545.570923	1374.451782	73.664955
832.967651	888.734863	1568.456055	1386.711548	73.261902
833.271545	879.521301	1623.068726	1438.500610	75.177361
833.575439	869.564758	1695.216675	1494.747681	75.719917
833.879211	862.951843	1821.382690	1599.812012	76.881935
834.183044	870.159180	1963.077759	1708.962524	76.748932
834.486694	869.193176	2096.674072	1816.998901	77.215515
834.790344	896.462402	2172.760010	1893.159058	78.092812
835.093933	899.583008	2162.209229	1891.078491	78.526443
835.397522	899.954590	2079.435791	1828.218384	78.701027
835.700928	877.886658	1961.220215	1717.655884	77.517151
836.004395	903.595398	1873.394531	1642.758789	76.218193
836.307739	904.115540	1786.683228	1557.162109	73.993935
836.611023	906.344543	1710.597290	1493.038696	72.948975
836.914307	877.292175	1618.833374	1408.333862	71.613243
837.217529	897.725525	1557.459473	1376.012085	72.496887
837.520691	891.186829	1499.503296	1326.452148	71.552444
837.823730	890.072266	1450.834839	1298.811523	72.889893
838.126831	870.233459	1418.215820	1260.397095	71.200035
838.429749	880.115723	1397.336914	1248.582886	71.239769
838.732727	886.059998	1378.389771	1238.775024	71.642029
839.035522	889.775146	1352.755249	1222.056885	71.770195
839.338379	882.716370	1331.653320	1211.208740	73.171158
839.641113	880.710205	1336.483032	1208.756714	71.975883
839.943848	889.106384	1357.510620	1234.762695	73.794449
840.246460	887.545959	1384.036743	1255.716064	74.154472
840.549072	886.654297	1411.603027	1282.910889	75.484818
840.851563	881.973206	1437.163208	1300.074707	75.307823
841.154053	884.945374	1447.788452	1308.991089	75.339951
841.456482	884.053772	1428.989868	1297.325562	75.838577
841.758850	887.843262	1393.993286	1273.771606	76.247818
842.061157	879.595642	1364.718140	1248.434326	76.030006
842.363403	874.988831	1339.529419	1224.954590	75.335884
842.665588	861.837219	1307.653442	1195.010742	74.733376
842.967712	864.958008	1288.111938	1186.391479	75.961357
843.269775	872.016785	1269.536255	1166.106812	73.981285
843.571777	866.889832	1240.558228	1149.537354	75.641273
843.873840	876.772156	1233.573853	1137.128784	72.969559
844.175659	883.013489	1232.161987	1139.357910	73.419884
844.477600	912.288757	1274.886108	1163.506226	69.282761
844.779297	907.979248	1259.802612	1161.277222	71.995781
845.081116	905.973083	1250.589233	1152.063599	71.410034
845.382751	897.279602	1218.193115	1130.887451	72.794647
845.684387	898.542786	1206.601929	1109.636841	68.523872
845.985962	894.158936	1178.738281	1092.547241	69.712830
846.287537	884.722473	1160.311279	1085.265625	72.768974
846.588989	886.802979	1153.698364	1087.717529	75.278389
846.890381	891.632629	1164.175171	1086.825806	71.619339
847.191711	896.165100	1170.342163	1081.773315	67.696480
847.493042	896.313721	1169.599121	1086.380005	69.548645
847.794250	905.601563	1178.589722	1102.057983	71.965179
848.095459	908.796570	1181.338989	1101.463501	70.692459
848.396606	904.041199	1178.961304	1084.002441	65.459473
848.697693	894.679016	1162.391724	1070.999390	65.861786
848.998657	887.546082	1142.627319	1060.745728	67.899796
849.299622	890.072327	1145.153442	1074.045898	72.123558
849.600464	888.734863	1141.809937	1072.634155	72.665901
849.901367	883.310791	1134.231079	1062.083130	71.246666
850.202087	883.236389	1117.364258	1048.782837	70.707710
850.502808	880.933105	1120.262085	1049.823120	70.568146
850.803467	887.546082	1127.395142	1061.117065	72.366753
851.104065	899.508728	1156.819214	1076.200562	68.668724
851.404663	903.298157	1150.057617	1073.228638	68.864830
851.705139	893.341614	1145.376465	1067.284302	69.015335
852.005615	879.892822	1125.166138	1048.931519	68.918503
852.306030	872.165344	1127.395142	1045.736450	68.005814
852.606384	886.059875	1140.100952	1057.847778	67.622093
852.906616	895.793640	1142.478638	1071.668091	71.295158
853.206909	895.867859	1129.029907	1072.931274	75.940063
853.506958	894.679016	1112.831909	1065.946777	78.508133
853.807129	885.539795	1103.989746	1059.631104	79.693909
854.107178	885.242615	1114.838013	1058.442139	75.436844
854.407166	885.688416	1122.416870	1054.578491	71.343376
854.707092	882.790588	1120.039185	1051.903687	71.280968
855.007019	886.802979	1114.317871	1048.634277	71.129982
855.306763	887.174500	1116.101196	1051.680664	71.859756
855.606567	880.858704	1109.859741	1045.141968	71.739090
855.906250	876.549133	1112.460327	1042.912964	70.519684
856.205933	874.097168	1103.023804	1040.238159	72.573898
856.505493	883.385010	1100.200439	1038.454712	71.521523
856.805054	899.583008	1100.051758	1051.532104	75.796898
857.104492	891.335449	1095.444946	1041.947144	73.789658
857.403931	882.493408	1103.766968	1039.346558	70.886528
857.703308	863.843323	1092.472900	1019.507568	68.085785
858.002563	869.416077	1095.370728	1024.114380	68.464317
858.301819	879.224060	1096.411011	1033.996704	71.262405
858.601013	885.985596	1100.794800	1044.027466	73.573135
858.900208	888.734863	1097.302612	1045.736450	75.276062
859.199219	884.573914	1095.965210	1042.690063	74.797852
859.498291	884.573914	1102.503784	1044.770508	73.508324
859.797302	892.301453	1113.277710	1057.922119	74.949532
860.096191	912.660339	1128.881226	1073.451416	74.364265
860.395020	912.957520	1126.875122	1062.231812	69.781212
860.693787	900.103210	1111.048584	1040.460938	66.537476
860.992554	868.004395	1088.237671	1011.185730	65.013489
861.291260	879.149841	1091.729858	1027.978149	70.010490
861.589844	881.081726	1091.655640	1037.191772	74.135513
861.888428	901.589172	1099.605957	1055.172974	77.561005
862.186890	904.115479	1104.807129	1051.309204	73.343224
862.485413	909.539734	1110.454102	1043.953247	66.900894
862.783813	905.230042	1095.965210	1036.894531	69.029999
863.082153	892.895813	1080.658813	1031.767578	73.961197
863.380371	886.357117	1087.940430	1040.163818	76.299324
863.678589	880.561523	1097.376831	1038.603516	72.892448
863.976746	873.279846	1085.934204	1038.603516	77.742905
864.274902	879.149841	1081.773315	1037.340210	78.071098
864.572937	882.939209	1080.584473	1039.346558	79.135391
864.870911	897.056702	1108.893799	1045.439331	70.045631
865.168884	882.642029	1096.039429	1040.906738	74.164307
865.466736	881.824707	1084.002319	1034.888306	75.707489
865.764587	867.409973	1063.123413	1024.040039	80.030304
866.062317	882.641907	1068.101563	1028.869751	78.846176
866.360107	885.316895	1080.510132	1036.968750	77.693192
866.657715	894.381836	1078.429688	1040.015137	79.127953
866.955322	886.951599	1087.494629	1037.414673	75.027824
867.252808	880.412903	1078.726929	1027.829590	74.334976
867.550293	877.515137	1085.859985	1032.213501	74.251114
867.847717	878.183899	1075.308960	1028.498291	76.253311
868.145081	880.115723	1076.943726	1026.417725	74.329872
868.442383	883.756592	1077.835327	1023.965759	72.243446
868.739624	881.898987	1080.287231	1038.009033	78.689163
869.036804	890.443848	1086.231445	1043.656128	78.254333
869.333984	878.109558	1075.977661	1035.779907	79.684570
869.631042	870.679260	1062.751831	1015.272278	75.280411
869.928101	861.317139	1053.686890	1017.427063	81.150970
870.224976	874.097168	1054.727173	1013.340515	77.087608
870.521851	929.229797	1114.020630	1066.764160	74.427048
870.818726	927.966736	1123.011353	1064.237915	69.866669
871.115479	929.006897	1147.679810	1078.355347	68.297646
871.412231	887.843201	1115.729614	1040.015259	66.775398
871.708862	892.598633	1104.361450	1034.813965	67.157837
872.005493	884.053772	1080.138672	1029.687134	74.270561
872.302063	884.276672	1061.637207	1022.851318	78.131615
872.598572	876.029053	1073.154175	1032.659302	79.457275
872.895020	879.298340	1075.606079	1031.841919	77.706352
873.191406	879.224121	1091.135498	1043.953369	77.734970
873.487671	887.397400	1085.191284	1044.176270	79.263763
873.783997	898.245605	1095.222046	1051.680786	77.895195
874.080200	888.957825	1079.692749	1038.231934	78.262596
874.376343	883.162170	1075.903320	1029.612915	75.983124
874.672424	890.146667	1080.733032	1037.414673	77.271011
874.968445	898.542786	1092.324219	1048.931519	77.607399
875.264465	899.211487	1097.153931	1055.470215	78.941498
875.560364	887.248718	1088.832031	1052.869629	82.160027
875.856201	871.570862	1075.754761	1039.940918	82.460007
876.152039	874.765930	1075.606079	1037.191772	80.873192
876.447754	868.004395	1077.835327	1025.972046	75.283302
876.743469	897.576843	1096.559692	1038.974976	71.060463
877.039063	901.886414	1085.042847	1034.665405	72.494858
877.334595	898.914307	1075.457642	1034.219604	76.641411
877.630127	875.508972	1061.265747	1016.758484	76.040031
877.925537	867.261414	1083.036499	1022.479797	71.935265
878.221008	866.221191	1082.887939	1012.151672	67.352501
878.516296	862.803223	1083.482300	1015.718262	69.292946
878.811646	854.481262	1079.618530	1021.513855	74.191444
879.106812	866.295410	1106.887695	1049.377441	76.096382
879.401978	870.679382	1117.141479	1064.980957	78.836288
879.697083	886.059998	1134.231079	1080.807495	78.473083
879.992126	883.830872	1148.422852	1104.881592	83.543999
880.287109	890.963928	1188.323364	1142.255737	84.507767
880.582031	889.329285	1237.066040	1184.905518	85.000000
880.876892	875.137390	1318.056030	1245.313599	83.576569
881.171753	861.465759	1464.209473	1388.494995	87.438362
881.466492	862.506042	1715.649902	1627.601074	89.679489
881.761230	872.016785	2039.535522	1943.759155	91.796585
882.055786	880.338623	2371.965820	2242.976074	91.352417
882.350403	872.165344	2607.430908	2466.404297	91.872910
882.644958	864.363586	2696.445557	2516.930420	90.201576
882.939453	861.911560	2630.093262	2447.829102	89.692001
883.233826	868.524475	2483.939697	2277.081055	87.194710
883.528137	870.456360	2295.805420	2102.321045	86.425476
883.822449	878.481018	2140.438232	1943.759277	84.414772
884.116577	872.313965	1977.492554	1781.036133	82.224014
884.410828	876.251953	1850.955078	1638.003418	78.152153
884.704956	879.744202	1725.977905	1515.701172	75.151459
884.999023	875.954773	1611.923218	1425.943481	74.729927
885.292969	878.481140	1497.348511	1351.194946	76.383705
885.586914	867.855774	1392.209961	1276.000610	77.837624
885.880798	881.453186	1332.842285	1232.607910	77.794243
886.174622	883.533691	1294.204712	1204.224243	78.089401
886.468384	886.951599	1268.198853	1169.970581	74.235023
886.762085	873.651428	1229.710083	1141.735718	75.292168
887.055664	863.026062	1198.577148	1122.491211	77.325081
887.349304	860.425476	1175.840454	1119.742065	82.214417
887.642822	861.094177	1166.998535	1095.296387	76.560600
887.936340	870.530701	1151.543579	1080.361694	74.669533
888.229736	871.273682	1129.847046	1051.383423	69.655182
888.523071	874.022888	1115.878296	1047.371094	71.674316
888.816284	900.771790	1127.246704	1066.021118	72.965843
889.109619	905.898743	1139.878052	1080.584595	74.658676
889.402710	911.694397	1132.224976	1083.408081	77.863892
889.695862	880.784424	1100.720459	1047.296875	75.709488
889.988892	865.923889	1073.674194	1024.411621	76.287605
890.281921	846.828125	1057.922119	1007.321960	76.029564
>>>>>End Processed Spectral Data<<<<<
