Jaz Data File
++++++++++++++++++++++++++++++++++++
Date: Fri Jun 04 12:54:46 2021
User: jaz
Dark Spectrum Present: Yes
Reference Spectrum Present: Yes
Processed Spectrum Present: Yes
Spectrometers: JAZA3586
Integration Time (usec): 40000 (JAZA3586)
Spectra Averaged: 10 (JAZA3586)
Boxcar Smoothing: 1 (JAZA3586)
Correct for Electrical Dark: No (JAZA3586)
Strobe/Lamp Enabled: Yes (JAZA3586)
Correct for Detector Non-linearity: No (JAZA3586)
Correct for Stray Light: No (JAZA3586)
Number of Pixels in Processed Spectrum: 2048
>>>>>Begin Processed Spectral Data<<<<<
W	D	R	S	P
191.335022	0.000000	0.000000	0.000000	0.000000
191.713211	424.640045	428.652374	430.955780	157.408203
192.091385	846.753845	859.013672	864.586426	145.455399
192.469528	1283.133667	1284.322388	1298.811523	1318.884766
192.847641	1300.743530	1286.997437	1300.743530	-0.000000
193.225739	1322.068359	1296.508179	1299.183105	89.534790
193.603790	1320.879517	1312.483276	1300.371948	244.247040
193.981842	1316.569946	1320.507935	1305.498657	-281.140717
194.359863	1311.517334	1326.526489	1311.814453	1.979586
194.737854	1320.433716	1328.755615	1317.535767	-34.823170
195.115829	1324.743164	1333.882446	1323.703003	-11.381212
195.493774	1330.464478	1333.882446	1324.000122	-189.128571
195.871704	1333.287964	1328.012573	1321.771118	218.312668
196.249603	1341.015503	1325.783569	1324.891846	105.854301
196.627457	1339.083618	1321.325317	1325.040405	79.079712
197.005310	1337.448975	1324.074585	1328.086914	69.999908
197.383133	1336.260132	1323.703003	1323.703003	100.000000
197.760910	1337.746216	1323.257202	1326.600708	76.923851
198.138687	1332.767944	1327.120972	1326.303589	114.474709
198.516449	1331.504761	1324.891846	1324.074585	112.358559
198.894180	1329.275757	1324.594604	1324.743164	96.826431
199.271866	1323.405762	1314.043579	1320.507935	30.952475
199.649536	1314.786621	1314.340820	1315.752563	-216.675797
200.027191	1305.350220	1314.266479	1314.266479	100.000000
200.404816	1308.693726	1323.405762	1315.083862	43.434753
200.782410	1306.984863	1334.402466	1322.365479	56.097595
201.159988	1308.470825	1347.999878	1326.972290	46.804726
201.537537	1319.021973	1351.120605	1329.201294	31.712631
201.915070	1320.730835	1354.910034	1327.418091	19.565279
202.292557	1328.607056	1349.931763	1319.244751	-43.903557
202.670029	1321.696777	1358.328125	1315.604004	-16.632677
203.047485	1324.445923	1354.315674	1305.721680	-62.686306
203.424911	1316.644165	1357.807861	1308.247925	-20.397198
203.802292	1313.523438	1351.194946	1307.802124	-15.187375
204.179688	1312.409058	1339.603638	1319.764893	27.048901
204.557037	1314.340820	1338.266357	1321.473999	29.814079
204.934357	1311.665894	1337.300415	1324.520386	50.145241
205.311661	1305.201538	1348.891724	1322.960083	40.646530
205.688934	1300.371948	1336.185913	1321.771118	59.750912
206.066177	1294.873535	1337.968994	1329.498657	80.345177
206.443390	1302.229492	1342.129883	1328.532715	65.922218
206.820587	1311.814575	1350.749146	1328.086792	41.793751
207.197769	1314.340820	1357.807861	1321.696777	16.923069
207.574921	1309.808350	1355.132935	1316.644165	15.081915
207.952042	1303.566895	1349.931763	1314.192261	22.916847
208.329147	1304.681519	1337.448853	1321.548218	51.474129
208.706223	1313.077759	1336.111450	1332.842163	85.806496
209.083267	1313.077759	1348.148438	1332.693726	55.932671
209.460297	1318.798950	1357.064819	1326.526489	20.194338
209.837280	1305.944580	1354.687134	1315.678223	19.969496
210.214264	1301.635010	1349.783203	1312.334595	22.222195
210.591217	1299.034546	1337.449097	1303.938477	12.765816
210.968124	1302.378052	1341.387085	1309.957031	19.428782
211.345016	1308.842407	1343.096069	1314.563721	16.702780
211.721893	1307.505005	1352.532593	1319.319092	26.237442
212.098724	1305.573120	1352.086670	1317.981689	26.677322
212.475555	1302.675415	1353.349731	1320.285034	34.750580
212.852356	1304.161377	1352.458130	1324.148804	41.384617
213.229126	1305.350220	1356.098999	1318.278931	25.475904
213.605865	1304.458496	1352.681030	1317.535767	27.118587
213.982590	1309.362549	1356.173218	1311.665894	4.920555
214.359283	1309.659668	1347.479858	1315.529663	15.520798
214.735931	1311.220093	1341.461304	1313.523438	7.616576
215.112579	1301.189331	1335.740112	1319.319214	52.473148
215.489197	1299.034546	1342.055786	1320.730835	50.431576
215.865799	1299.703247	1345.102173	1319.467651	43.534962
216.242355	1297.325562	1344.582153	1314.786743	36.949726
216.618896	1293.758911	1341.164185	1313.969360	42.633335
216.995407	1295.319336	1343.764771	1311.368774	33.128899
217.371902	1300.148926	1345.770874	1309.511108	20.521225
217.748367	1297.028198	1343.616089	1304.978638	17.065464
218.124802	1300.074585	1346.142456	1303.938477	8.387389
218.501236	1296.433960	1348.074219	1302.006714	10.791492
218.877609	1302.303711	1352.755371	1309.213989	13.696831
219.253983	1296.136719	1351.938110	1318.130249	39.413944
219.630295	1302.155151	1357.807983	1320.507935	32.977268
220.006592	1306.910522	1352.903931	1320.582275	29.725462
220.382889	1313.597778	1354.241333	1319.616333	14.808141
220.759140	1318.278809	1349.931763	1323.405762	16.197392
221.135391	1308.470825	1357.956421	1321.250977	25.826002
221.511581	1302.749634	1357.064819	1321.548218	34.610180
221.887772	1295.913818	1357.287720	1317.758667	35.593060
222.263931	1305.944702	1350.080444	1323.480103	39.730610
222.640060	1308.025024	1354.018555	1323.405762	33.441090
223.016159	1309.436890	1356.619019	1321.028198	24.567160
223.392212	1306.464722	1357.510742	1318.873291	24.308594
223.768265	1308.470825	1349.411743	1314.860962	15.608191
224.144302	1308.025146	1348.520020	1317.312988	22.935846
224.520294	1308.470947	1357.584961	1311.220093	5.597477
224.896286	1302.006714	1370.885254	1321.176636	27.831488
225.272217	1302.006714	1379.801636	1326.080688	30.945433
225.648148	1308.768188	1379.801392	1330.538696	30.648354
226.024048	1314.043579	1373.485718	1327.343750	22.374987
226.399902	1316.569824	1362.711914	1329.201294	27.375158
226.775772	1310.774292	1361.597290	1333.510864	44.736778
227.151581	1307.356323	1365.683960	1331.133179	40.764305
227.527374	1293.164551	1384.631226	1335.665649	46.466213
227.903137	1293.015991	1398.674438	1336.483032	41.139202
228.278870	1296.731079	1412.197388	1345.176392	41.956234
228.654572	1310.031250	1420.890991	1348.743042	34.919613
229.030273	1309.585327	1435.454102	1356.619019	37.367245
229.405930	1306.910522	1448.977417	1354.984375	33.838886
229.781555	1302.823853	1453.138306	1350.897827	31.982269
230.157181	1296.879761	1451.578003	1338.934937	27.185297
230.532761	1295.839478	1445.410767	1330.538818	23.199200
230.908325	1295.913696	1437.311890	1334.105347	27.009998
231.283859	1301.040527	1427.503906	1341.387085	31.903748
231.659332	1296.136719	1414.277954	1340.941284	37.924580
232.034821	1297.845581	1410.934204	1339.901001	37.188019
232.410263	1298.514282	1407.590820	1333.436646	32.016384
232.785690	1299.331665	1412.940552	1344.210571	39.502991
233.161087	1296.433960	1418.364746	1346.736816	41.255257
233.536469	1301.114868	1417.473022	1354.984497	46.296394
233.911804	1303.789917	1419.256348	1358.550903	47.425892
234.287140	1300.594849	1418.438965	1355.132935	46.279854
234.662430	1303.789917	1429.955933	1350.600586	37.102440
235.037704	1302.006714	1435.008423	1349.411743	35.642422
235.412933	1312.854858	1436.717407	1351.269165	31.013657
235.788162	1297.251343	1435.082886	1354.092773	41.239784
236.163345	1301.858032	1437.088867	1354.835815	39.175816
236.538513	1295.616577	1442.884644	1358.476685	42.684139
236.913635	1300.000366	1450.166138	1356.990601	37.951550
237.288742	1291.975708	1453.212524	1353.944214	38.433224
237.663834	1286.997437	1458.785522	1360.482788	42.776745
238.038879	1291.529907	1458.116699	1367.244263	45.450394
238.413910	1300.966309	1468.964844	1373.411499	43.122513
238.788910	1313.597778	1468.370239	1374.600464	39.414433
239.163879	1314.786621	1478.104004	1377.795288	38.580502
239.538834	1312.334717	1478.772583	1386.637329	44.642853
239.913757	1305.721802	1495.936646	1385.448608	41.914082
240.288651	1300.223267	1508.345215	1391.467163	43.841553
240.663528	1298.960327	1529.298706	1398.823120	43.354820
241.038361	1301.040649	1541.484253	1411.974609	46.137207
241.413177	1309.288208	1571.651245	1433.745239	47.436954
241.787979	1310.551392	1610.140015	1452.023804	47.222225
242.162735	1307.950806	1656.876343	1477.063843	48.466797
242.537476	1300.074707	1675.006226	1485.757202	49.524376
242.912170	1300.074829	1676.789429	1491.181274	50.729771
243.286865	1295.913696	1665.941284	1488.580688	52.068279
243.661514	1297.771362	1655.390503	1489.249390	53.542442
244.036148	1296.359741	1646.994141	1484.716919	53.718967
244.410751	1299.257324	1641.421509	1479.961548	52.812138
244.785339	1299.257446	1636.963257	1469.410522	50.385002
245.159882	1297.325562	1650.189087	1483.230957	52.684788
245.534378	1295.170776	1678.275513	1500.320679	53.549301
245.908890	1290.563965	1730.956055	1541.261353	56.925953
246.283356	1291.827148	1793.964844	1572.542847	55.904129
246.657791	1297.102539	1862.992188	1609.174194	55.147087
247.032196	1304.458618	1920.130859	1647.217163	55.672241
247.406586	1302.898071	1966.570190	1671.439819	55.530697
247.780960	1307.876587	1974.817749	1688.455078	57.063278
248.155289	1313.226440	1975.709351	1671.959595	54.149799
248.529602	1318.056030	1928.229858	1655.613159	55.321468
248.903870	1310.105591	1877.183960	1619.353394	54.533520
249.278122	1302.155151	1814.621094	1598.177246	57.764248
249.652344	1301.040649	1775.983765	1567.267212	56.054409
250.026550	1304.087036	1756.293457	1558.722290	56.309517
250.400711	1299.851807	1741.878540	1553.521118	57.387775
250.774857	1297.325562	1741.061523	1560.357056	59.276577
251.148987	1304.978638	1754.658691	1562.140503	57.187740
251.523071	1309.882690	1771.896973	1565.335449	55.291096
251.897125	1315.455444	1790.844116	1584.059570	56.502003
252.271164	1306.464722	1793.741821	1600.034790	60.247047
252.645187	1298.662964	1794.931030	1607.242188	62.179947
253.019165	1299.851807	1788.912476	1600.034790	61.379498
253.393112	1298.737183	1778.287109	1587.700562	60.257206
253.767044	1297.697144	1760.008667	1580.493164	61.170013
254.140930	1299.257324	1736.677734	1558.871094	59.351086
254.514801	1303.418335	1718.250610	1551.886597	59.896076
254.888657	1312.631958	1716.095703	1546.016602	57.845257
255.262466	1300.966431	1722.931274	1552.035156	59.499916
255.636276	1295.245117	1747.228516	1559.019897	58.359394
256.010010	1289.746704	1772.268555	1561.917603	56.405922
256.383759	1302.303711	1798.571655	1576.332397	55.217888
256.757446	1302.526733	1826.509399	1591.787231	55.204212
257.131134	1311.442993	1860.763062	1625.594849	57.189220
257.504791	1309.882690	1901.332397	1663.340698	59.761295
257.878418	1315.752563	1956.539063	1707.848022	61.189720
258.252014	1311.443115	2031.956421	1760.528687	62.328560
258.625580	1306.984863	2133.454102	1829.407349	63.211365
258.999115	1300.520508	2256.276367	1911.511841	63.927551
259.372650	1303.269653	2378.578857	1991.387207	63.992531
259.746124	1300.000366	2486.614990	2063.535156	64.345642
260.119598	1304.235718	2543.679443	2106.259277	64.708351
260.493042	1300.074707	2545.462646	2106.705078	64.769409
260.866425	1304.904419	2502.367188	2073.491943	64.184669
261.239838	1308.025024	2416.175781	2016.947266	63.973446
261.613159	1309.882690	2321.439941	1960.328613	64.301445
261.986511	1304.087158	2227.075439	1898.062866	64.353546
262.359802	1299.554565	2161.020508	1857.791016	64.800758
262.733063	1297.102661	2133.156982	1832.602417	64.050835
263.106293	1298.142822	2118.519287	1820.565430	63.680840
263.479523	1302.303711	2111.980469	1815.438477	63.375263
263.852692	1305.127319	2108.339600	1812.243530	63.136013
264.225861	1301.932251	2105.144775	1814.472290	63.811260
264.598969	1298.291504	2114.061279	1816.552856	63.530346
264.972076	1299.777466	2131.002197	1827.549805	63.493340
265.345154	1303.864258	2167.113037	1857.047974	64.081612
265.718201	1300.223267	2210.728760	1889.592407	64.729881
266.091217	1305.573120	2258.728516	1928.006958	65.302452
266.464203	1305.424438	2308.808350	1961.666016	65.402840
266.837158	1313.151978	2347.966064	1994.210815	65.814606
267.210114	1304.235718	2380.213379	2013.529663	65.920883
267.583038	1310.402832	2390.541504	2022.445801	65.921440
267.955902	1301.783569	2405.402100	2037.974976	66.707054
268.328766	1302.749512	2389.129883	2043.176147	68.155380
268.701569	1293.981812	2403.024170	2053.207031	68.457733
269.074371	1292.272949	2419.742432	2046.519897	66.897324
269.447144	1295.170776	2463.878174	2077.875732	66.971848
269.819885	1302.229614	2532.608398	2125.354980	66.900162
270.192596	1308.768066	2613.747070	2195.199463	67.926872
270.565277	1311.442993	2737.089111	2264.003662	66.816071
270.937927	1304.309937	2847.577393	2329.984619	66.461243
271.310577	1307.653442	2934.437500	2391.209961	66.607277
271.683136	1304.458496	2992.616455	2426.503906	66.465668
272.055725	1313.151978	2996.406006	2440.769775	66.990349
272.428284	1309.437012	2981.619873	2425.835205	66.762924
272.800812	1299.331665	2935.626221	2408.002686	67.754982
273.173279	1293.981812	2876.704102	2362.900879	67.536743
273.545776	1289.598022	2841.781982	2340.238525	67.687889
273.918152	1304.012817	2807.454102	2307.693604	66.758896
274.290558	1303.715698	2797.943359	2309.328369	67.299828
274.662964	1307.430786	2797.794922	2308.882813	67.195122
275.035278	1300.743408	2814.810303	2328.647461	67.890266
275.407593	1303.269653	2844.976807	2337.489258	67.082756
275.779907	1307.430664	2886.363525	2363.643799	66.894112
276.152161	1311.220215	2931.316650	2399.903564	67.198677
276.524384	1308.322388	2975.526611	2441.067383	67.942787
276.896606	1306.316162	2998.634766	2463.803955	68.396568
277.268799	1304.830200	3004.430664	2466.850342	68.370193
277.640930	1307.430664	3003.984619	2479.184570	69.066704
278.013031	1306.093140	3007.253906	2472.645752	68.573921
278.385162	1302.006470	3010.968994	2477.550049	68.786972
278.757233	1295.839478	3017.210693	2474.354980	68.463760
279.129272	1299.851807	3044.033936	2505.116211	69.101982
279.501282	1301.932251	3075.240967	2526.589844	69.060600
279.873230	1305.052979	3142.262451	2575.629639	69.157967
280.245178	1300.297607	3229.121826	2633.659912	69.128242
280.617126	1299.034546	3337.752197	2725.943848	69.990532
280.988983	1301.412231	3441.033203	2796.382813	69.870811
281.360870	1298.440063	3537.775391	2877.372803	70.508987
281.732697	1297.028320	3619.954346	2923.589111	70.022064
282.104492	1296.136597	3657.179932	2966.090088	70.729469
282.476288	1297.325317	3658.443359	2963.861328	70.582489
282.848053	1299.851685	3638.975586	2953.235596	70.683891
283.219757	1300.891968	3636.969482	2941.570313	70.232185
283.591461	1302.452393	3626.269775	2942.016357	70.554771
283.963135	1295.839478	3662.678467	2961.186279	70.361649
284.334747	1295.467896	3707.408447	2999.155029	70.635536
284.706360	1293.758911	3793.897217	3064.615479	70.830345
285.077942	1301.040649	3872.806396	3132.454102	71.212303
285.449524	1294.204834	3949.263672	3195.091064	71.594879
285.821014	1294.427734	3972.817627	3204.899170	71.329102
286.192535	1291.604248	4002.835938	3242.793701	71.966904
286.563995	1296.359497	4000.607422	3238.707031	71.825790
286.935425	1295.096558	3988.124268	3233.802979	71.989838
287.306824	1296.285278	3911.889648	3174.732422	71.816940
287.678223	1298.662964	3856.534180	3114.175781	70.977493
288.049561	1297.696899	3808.534424	3092.479248	71.481422
288.420898	1299.926147	3807.197266	3074.795166	70.788879
288.792145	1302.155151	3832.608643	3106.373779	71.300209
289.163452	1306.761841	3916.496826	3153.704834	70.771286
289.534668	1297.696899	4027.579102	3232.762939	70.884598
289.905914	1293.684692	4122.537598	3311.300781	71.322762
290.277039	1295.988159	4208.877441	3384.043213	71.683304
290.648193	1300.594849	4249.224121	3421.789063	71.938316
291.019318	1296.508179	4258.585938	3434.271729	72.171089
291.390381	1291.975708	4208.431641	3397.640625	72.199440
291.761475	1296.582397	4126.996094	3370.520264	73.273323
292.132507	1305.870239	4090.067627	3334.557617	72.864357
292.503510	1305.127319	4095.565674	3321.554443	72.262016
292.874481	1309.065308	4156.419434	3340.130127	71.331657
293.245422	1304.904297	4233.174316	3401.801025	71.608719
293.616364	1302.898193	4345.297363	3503.224609	72.322083
293.987213	1296.582520	4482.312012	3605.093750	72.464134
294.358093	1288.632202	4586.261719	3690.244873	72.828461
294.728943	1293.238892	4688.427246	3755.780029	72.530319
295.099731	1297.399780	4763.918945	3823.840820	72.881210
295.470490	1302.006714	4871.286621	3891.233398	72.541992
295.841248	1306.018921	4955.100098	3959.666016	72.720963
296.211975	1302.823853	5066.331543	4030.179688	72.468452
296.582642	1301.709351	5171.172363	4124.989746	72.963104
296.953308	1296.508179	5220.955078	4161.843750	73.012466
297.323883	1291.901489	5207.803223	4165.039063	73.371033
297.694519	1294.724976	5113.513184	4090.067627	73.199738
298.065063	1293.758911	5003.545410	4028.767822	73.724152
298.435608	1300.817749	4873.887207	3922.663330	73.377968
298.806122	1295.839478	4701.059082	3797.315186	73.460037
299.176575	1297.771362	4553.122559	3678.058838	73.119232
299.547028	1290.786987	4430.819824	3600.115479	73.544731
299.917450	1298.142822	4389.582031	3571.731689	73.544670
300.287872	1299.851929	4382.077637	3564.153076	73.463188
300.658234	1305.796021	4389.433105	3564.375732	73.244011
301.028564	1299.331665	4372.121094	3568.833984	73.858047
301.398865	1299.851807	4353.173828	3542.085205	73.435867
301.769135	1297.251099	4301.013184	3511.843750	73.727303
302.139374	1298.365845	4275.081543	3474.098389	73.091705
302.509583	1288.632202	4232.654297	3455.893799	73.615677
302.879791	1284.322632	4192.308105	3423.348877	73.556984
303.249939	1287.889038	4135.317871	3385.974854	73.683525
303.620087	1289.746460	4085.089111	3352.464600	73.791245
303.990173	1295.244995	4064.729736	3335.152100	73.656555
304.360260	1297.696899	4069.262451	3341.987549	73.759422
304.730286	1305.350220	4063.912842	3345.034180	73.940102
305.100281	1308.842407	4046.749268	3351.795898	74.617348
305.470276	1302.898315	4046.303467	3355.213623	74.809052
305.840179	1299.480347	4073.498047	3373.046143	74.749557
306.210144	1295.468018	4113.621582	3403.584961	74.804901
306.579987	1295.913696	4158.054688	3432.414063	74.646927
306.949890	1295.988159	4187.181641	3469.936768	75.192093
307.319702	1296.359497	4263.118652	3501.813232	74.338814
307.689484	1302.898193	4344.851563	3573.589111	74.645813
308.059265	1306.613403	4446.645996	3655.322266	74.798866
308.429016	1304.978638	4526.967285	3737.352783	75.492943
308.798737	1304.830078	4600.007324	3796.348877	75.611069
309.168396	1302.898315	4644.812012	3837.215576	75.834320
309.538055	1306.167603	4654.693848	3857.574219	76.194916
309.907684	1306.018921	4653.431152	3870.800049	76.619827
310.277313	1298.737183	4667.474121	3876.149658	76.509766
310.646851	1296.731079	4694.148926	3877.487305	75.962288
311.016388	1298.960083	4679.288574	3863.964111	75.880310
311.385895	1310.477173	4629.653809	3851.481445	76.555260
311.755371	1315.827026	4560.478027	3830.305420	77.496117
312.124817	1306.316284	4514.484863	3795.085938	77.576027
312.494232	1306.390503	4473.617676	3751.693115	77.206421
312.863617	1304.235718	4458.163086	3728.139404	76.853508
313.232971	1307.653564	4471.686523	3746.714844	77.087097
313.602295	1300.743530	4547.920898	3804.150635	77.094872
313.971619	1299.034546	4624.750000	3886.998291	77.816757
314.340820	1297.919922	4648.154785	3929.350830	78.544670
314.710083	1301.263550	4631.288574	3926.527344	78.836159
315.079285	1299.331665	4575.561523	3880.979736	78.799347
315.448486	1303.418457	4512.775879	3819.903076	78.410858
315.817596	1305.573120	4390.770508	3735.718018	78.767899
316.186707	1304.755859	4286.747559	3660.152344	78.987358
316.555786	1304.458618	4211.032227	3595.509033	78.823059
316.924866	1303.492676	4186.289551	3564.747314	78.439613
317.293884	1307.282104	4173.286621	3561.477783	78.652908
317.662872	1306.464722	4185.025879	3581.465576	79.032578
318.031830	1307.653687	4208.877441	3616.461914	79.580498
318.400757	1310.105591	4244.245605	3642.022217	79.475296
318.769684	1310.402710	4275.527344	3673.972656	79.712326
319.138550	1296.359619	4273.446777	3692.919922	80.500175
319.507416	1300.743530	4254.202637	3686.752197	80.786926
319.876190	1298.811523	4193.273926	3644.474365	81.039673
320.244995	1309.882690	4146.834473	3600.487061	80.741753
320.613770	1300.372070	4092.593750	3561.106689	80.965439
320.982483	1296.136597	4101.807129	3565.638916	80.889847
321.351166	1297.325439	4136.877930	3597.588867	81.007957
321.719818	1293.461792	4205.236816	3669.737061	81.609169
322.088440	1293.684692	4306.288574	3784.311768	82.673561
322.457062	1292.570190	4453.259277	3900.521484	82.512108
322.825623	1291.455688	4601.344238	4032.780518	82.822266
323.194183	1294.724976	4736.649902	4121.274902	82.121193
323.562653	1295.393677	4797.652344	4179.379883	82.346466
323.931183	1296.508179	4824.104004	4191.565430	82.068848
324.299591	1297.845703	4788.364746	4169.348633	82.265785
324.668060	1297.771362	4735.758301	4125.212891	82.241196
325.036407	1299.183105	4672.006348	4083.528564	82.552368
325.404755	1306.093262	4596.143066	4037.684326	83.025826
325.773102	1296.805420	4533.952148	4006.476807	83.705544
326.141388	1290.638306	4450.584473	3931.282471	83.566109
326.509674	1286.031616	4377.768066	3851.184326	82.968033
326.877899	1299.108887	4296.926270	3783.048828	82.858284
327.246124	1313.523560	4268.765625	3747.531982	82.362396
327.614288	1309.288208	4230.945313	3725.389893	82.696274
327.982422	1299.183105	4242.091309	3725.538330	82.447533
328.350525	1292.644409	4243.948730	3731.185547	82.625877
328.718628	1297.920044	4288.678711	3766.479248	82.539558
329.086700	1303.566895	4318.251465	3786.763672	82.370033
329.454712	1306.018921	4372.714844	3826.664307	82.194183
329.822693	1305.647461	4412.244141	3852.150146	81.970818
330.190674	1308.025024	4464.107422	3886.923828	81.712021
330.558563	1302.823853	4502.224609	3916.570557	81.694878
330.926483	1302.675293	4574.446777	3968.731201	81.486618
331.294312	1296.805298	4641.394043	4030.551025	81.736374
331.662231	1301.857788	4732.266113	4110.203613	81.866226
332.029999	1300.966187	4802.036621	4191.044922	82.548431
332.397766	1303.269653	4872.847168	4249.149902	82.527420
332.765503	1300.148926	4919.359863	4282.512207	82.403687
333.133240	1297.399780	4953.910645	4293.285645	81.932915
333.500916	1297.771362	4963.272949	4302.127441	81.963028
333.868561	1298.811523	4956.660645	4291.873535	81.825737
334.236176	1303.715454	4920.846680	4272.109375	82.064865
334.603790	1297.399780	4873.589844	4227.081543	81.921867
334.971344	1300.594849	4836.958496	4187.404297	81.632141
335.338867	1297.994263	4821.651855	4156.048340	81.110435
335.706360	1307.356445	4823.287109	4157.237305	81.056229
336.073853	1305.796021	4837.404297	4169.645996	81.091949
336.441284	1298.662964	4871.806152	4189.187500	80.895851
336.808655	1291.381226	4898.852539	4203.676270	80.729538
337.176086	1287.889038	4934.814941	4234.288574	80.791321
337.543396	1303.269653	4937.267090	4272.703613	81.712608
337.910706	1308.619507	4959.706543	4287.787109	81.596725
338.277954	1312.483276	4949.007324	4272.777832	81.404510
338.645264	1294.427612	4933.255371	4223.664063	80.499451
339.012421	1283.728149	4878.791504	4174.550293	80.410881
339.379669	1281.796265	4803.002441	4101.658691	80.082283
339.746796	1288.186279	4707.448730	4028.990967	80.157776
340.113953	1296.730957	4641.542480	3973.783936	80.035988
340.481018	1300.743286	4611.598145	3945.623047	79.885101
340.848114	1307.207764	4618.730957	3955.208008	79.963211
341.215118	1306.093140	4668.365723	3992.136719	79.887741
341.582153	1307.579224	4767.782715	4098.835449	80.667404
341.949066	1297.845581	4938.901855	4212.666992	80.054283
342.316010	1300.520508	5145.983398	4365.582520	79.705933
342.682922	1297.919922	5392.520020	4510.695313	78.463715
343.049835	1308.025024	5683.489746	4720.451660	77.990036
343.416656	1307.876465	5968.291504	4907.323242	77.234467
343.783478	1308.768066	6191.274902	5070.046387	77.035805
344.150269	1309.882690	6312.312988	5163.742188	77.039742
344.516998	1307.059204	6329.105469	5186.330078	77.244827
344.883728	1301.709351	6249.750000	5136.398438	77.499146
345.250427	1297.473999	6143.349121	5042.628418	77.285408
345.617065	1295.244995	6000.242188	4925.453125	77.156433
345.983704	1294.873535	5876.304688	4814.593262	76.825768
346.350281	1290.563965	5729.334473	4704.476563	76.911224
346.716827	1295.765137	5615.576660	4597.555176	76.433662
347.083405	1301.783691	5520.692871	4523.103516	76.354332
347.449860	1304.532837	5468.755371	4460.095215	75.777946
347.816376	1301.412231	5445.423828	4443.896973	75.831947
348.182770	1292.941650	5466.451172	4429.407715	75.151764
348.549194	1296.136597	5505.980469	4439.661621	74.670822
348.915558	1299.108765	5576.047363	4460.169434	73.909424
349.281921	1300.891968	5640.616699	4509.952148	73.946167
349.648193	1297.176880	5680.591797	4534.917969	73.863441
350.014526	1298.737183	5701.842285	4549.778809	73.835205
350.380737	1298.439941	5732.603516	4550.818359	73.348183
350.746948	1300.520508	5783.426270	4562.781250	72.771118
351.113159	1292.644409	5845.617676	4592.130859	72.468826
351.479309	1298.662964	5906.769531	4635.449707	72.411232
351.845428	1301.486450	6014.806152	4710.495605	72.327133
352.211517	1308.545288	6135.993652	4783.163574	71.976288
352.577576	1309.436890	6258.295410	4855.607910	71.656342
352.943604	1304.681519	6377.625000	4914.010742	71.148621
353.309601	1301.337891	6511.890625	4989.353516	70.779739
353.675537	1292.050049	6655.666504	5074.504883	70.520607
354.041473	1296.731079	6801.746094	5164.782715	70.264145
354.407379	1294.353394	6903.986328	5220.138184	69.982918
354.773254	1301.560669	7048.058594	5289.833984	69.403549
355.139038	1295.987915	7186.707520	5357.152344	68.941734
355.504913	1299.851807	7431.980957	5516.234375	68.758873
355.870636	1293.461792	7667.892578	5661.421875	68.523140
356.236389	1306.241821	7926.614746	5834.695313	68.401787
356.602081	1312.928955	8150.414063	5969.035156	68.096764
356.967804	1317.164307	8338.994141	6060.946777	67.557632
357.333405	1312.706177	8439.749023	6090.593750	67.038849
357.699036	1302.155151	8440.045898	6081.306152	66.954666
358.064606	1307.579224	8382.610352	6046.012207	66.974022
358.430176	1303.864136	8329.112305	6011.238770	67.006523
358.795654	1304.755737	8397.098633	5977.728027	65.887566
359.161163	1299.405884	8580.625977	6039.474121	65.099915
359.526581	1302.006470	8944.710938	6219.658203	64.344391
359.892029	1301.932129	9422.625000	6509.884277	64.131866
360.257416	1301.189087	9957.530273	6814.005371	63.685299
360.622772	1289.820923	10384.326172	7049.321777	63.329460
360.988098	1290.118164	10643.344727	7180.688965	62.979023
361.353394	1284.322388	10748.706055	7221.332520	62.730022
361.718658	1291.604126	10601.734375	7120.132813	62.604160
362.083893	1296.062378	10217.217773	6870.995605	62.491158
362.449097	1300.817749	9601.620117	6473.625000	62.316952
362.814209	1299.034546	8987.136719	6055.597656	61.869144
363.179382	1289.746582	8425.037109	5668.034668	61.361034
363.544434	1291.084106	8028.929688	5402.773438	61.023800
363.909546	1292.124390	7761.217285	5207.654785	60.526730
364.274536	1301.635132	7631.707031	5091.742676	59.874638
364.639587	1305.052979	7533.255859	4974.790527	58.921288
365.004517	1306.836304	7474.928223	4905.911621	58.349895
365.369507	1306.241821	7380.935059	4833.391602	58.063011
365.734344	1301.263550	7353.740723	4806.122559	57.907845
366.099274	1300.371948	7344.823730	4773.206543	57.454914
366.464081	1299.406006	7356.118652	4723.201172	56.528934
366.828918	1306.984985	7312.502441	4680.848633	56.179401
367.193665	1302.303833	7218.880859	4612.861816	55.953941
367.558411	1300.966309	7144.578125	4570.955078	55.958351
367.923126	1289.300781	7066.782715	4495.091797	55.487686
368.287781	1295.690796	7045.458496	4432.677246	54.558491
368.652435	1307.876465	7012.244629	4370.485840	53.688847
369.017059	1309.139648	7037.061035	4352.876465	53.138592
369.381653	1307.356323	7065.742188	4363.278809	53.069080
369.746185	1296.953979	7129.865723	4381.557129	52.882732
370.110687	1293.758911	7208.106934	4393.148438	52.404587
370.475220	1296.656738	7293.927246	4402.808105	51.792751
370.839661	1298.440063	7351.139160	4406.746094	51.354050
371.204041	1306.241821	7379.375000	4391.885254	50.808098
371.568451	1301.263550	7363.919434	4363.576172	50.511074
371.932770	1299.554565	7344.972656	4338.535645	50.269161
372.297150	1303.864136	7317.257813	4300.567383	49.833809
372.661377	1304.681519	7322.458984	4288.679199	49.586372
373.025696	1299.777588	7361.170410	4289.645020	49.326412
373.389862	1292.941650	7408.798340	4294.325684	49.075451
373.754059	1288.111938	7507.917969	4292.171387	48.298283
374.118225	1292.272949	7606.963379	4297.966797	47.598434
374.482361	1294.724976	7787.222656	4341.433105	46.926594
374.846436	1298.662964	7982.638672	4414.398438	46.615002
375.210510	1290.415405	8287.428711	4517.084473	46.114948
375.574524	1292.198730	8560.044922	4621.926270	45.814503
375.938538	1286.180054	8864.389648	4728.922363	45.429493
376.302460	1288.483398	9067.235352	4792.599609	45.047279
376.666412	1291.232666	9207.444336	4831.905762	44.726860
377.030304	1301.412109	9201.351563	4797.058105	44.249023
377.394196	1315.083984	9096.287109	4721.491699	43.777390
377.757996	1308.396606	8890.691406	4591.165039	43.295185
378.121796	1304.978638	8619.040039	4438.101074	42.836971
378.485565	1298.885864	8326.139648	4291.353516	42.583744
378.849304	1295.319336	8121.138184	4164.593262	42.035599
379.212982	1288.780640	7982.786621	4095.417725	41.927616
379.576630	1279.864380	7946.081543	4036.198242	41.347797
379.940277	1282.539307	7930.106934	4016.507813	41.127354
380.303864	1288.111938	7932.558594	3969.623047	40.357178
380.667450	1294.353394	7946.007324	3958.328857	40.049824
381.030945	1289.895264	7964.285645	3923.703857	39.461411
381.394501	1283.802490	8002.626465	3906.688477	39.037872
381.757935	1290.341187	8062.662598	3883.877686	38.296124
382.121399	1291.901489	8130.352051	3874.812500	37.770412
382.484741	1306.836304	8260.233398	3896.954834	37.249687
382.848145	1297.474121	8375.922852	3924.075195	37.107014
383.211487	1302.526733	8488.713867	3940.793213	36.713024
383.574768	1290.266724	8571.338867	3937.672607	36.360107
383.938019	1290.340942	8618.149414	3923.852295	35.938591
384.301270	1292.941650	8648.093750	3910.477783	35.587788
384.664459	1296.508179	8683.981445	3882.614258	35.006638
385.027649	1301.486450	8710.953125	3846.354492	34.346172
385.390778	1300.594727	8824.636719	3849.401123	33.875496
385.753876	1301.412231	8908.524414	3850.515625	33.509476
386.116943	1296.805420	9016.114258	3866.565186	33.290024
386.479980	1295.690918	9059.878906	3837.067139	32.732029
386.842987	1302.600952	9074.516602	3821.240234	32.406929
387.205994	1308.991089	9073.922852	3782.380127	31.853329
387.568909	1308.842407	9017.006836	3744.559814	31.599186
387.931793	1301.189209	8978.071289	3709.563232	31.371775
388.294678	1307.504883	8968.634766	3674.417969	30.895092
388.657471	1310.922974	8972.202148	3649.303467	30.522062
389.020294	1302.749634	9034.245117	3618.542236	29.952711
389.383057	1293.313110	9188.719727	3629.762451	29.592512
389.745819	1291.009888	9393.202148	3651.607422	29.135296
390.108521	1296.731079	9633.347656	3692.028076	28.732244
390.471191	1286.254517	9865.022461	3729.402344	28.479008
390.833801	1285.437134	10057.467773	3772.423096	28.351315
391.196442	1282.464966	10190.097656	3791.073486	28.162458
391.558960	1288.186157	10226.729492	3779.110596	27.867229
391.921509	1290.192505	10209.194336	3726.355713	27.314302
392.284027	1300.669067	10171.893555	3684.746338	26.874273
392.646484	1302.080933	10118.619141	3642.542236	26.546263
393.008911	1300.743530	10113.565430	3616.387695	26.275850
393.371307	1299.703247	10118.024414	3592.907959	26.005001
393.733673	1306.539063	10087.633789	3562.220947	25.687935
394.096008	1304.681519	10013.554688	3540.970459	25.678284
394.458344	1302.749634	9871.338867	3488.512695	25.509022
394.820587	1303.343994	9664.257813	3416.141846	25.269939
395.182831	1310.031250	9446.030273	3337.752686	24.922832
395.545013	1305.424438	9225.871094	3269.691162	24.799948
395.907196	1297.102661	9080.163086	3217.010498	24.667774
396.269287	1288.483521	9013.588867	3168.193604	24.332485
396.631409	1285.362793	8947.682617	3137.803711	24.175980
396.993469	1293.387451	8912.908203	3122.274658	24.002655
397.355530	1295.616577	8912.313477	3120.714111	23.961798
397.717499	1304.978638	8962.765625	3108.677002	23.553780
398.079468	1304.532959	9010.467773	3111.649170	23.450968
398.441376	1305.721802	8984.982422	3101.246826	23.381483
398.803284	1306.464722	8951.768555	3089.952881	23.327892
399.165131	1304.904297	8922.270508	3072.343018	23.202753
399.526978	1306.316162	8911.125000	3054.064697	22.982151
399.888763	1305.721680	8908.079102	3045.000000	22.878145
400.250519	1302.229492	8918.852539	3032.442627	22.716276
400.612244	1302.675293	8944.264648	3025.532471	22.545797
400.973938	1299.628784	9026.739258	3025.904053	22.340502
401.335602	1297.176880	9120.065430	3039.501221	22.272135
401.697205	1300.371948	9304.707031	3064.912842	22.044815
402.058807	1301.857910	9492.990234	3083.785889	21.754354
402.420349	1304.755737	9731.577148	3121.903076	21.563852
402.781860	1300.074707	9919.859375	3166.559326	21.653494
403.143341	1294.502075	10077.678711	3210.546143	21.814932
403.504822	1295.913818	10235.051758	3233.431641	21.674549
403.866241	1297.771362	10343.459961	3242.347656	21.497272
404.227631	1300.520630	10463.903320	3262.557861	21.411713
404.588959	1302.526733	10489.910156	3249.926758	21.196459
404.950287	1298.514404	10439.532227	3234.843018	21.182856
405.311554	1297.325562	10312.771484	3193.605469	21.033678
405.672821	1295.765259	10175.163086	3158.163086	20.974371
406.034027	1299.703247	10073.888672	3109.717773	20.628860
406.395203	1306.390503	9908.639648	3061.123779	20.398540
406.756348	1307.281982	9822.077148	3022.040283	20.138575
407.117493	1307.059082	9782.028320	2998.040771	19.952660
407.478516	1300.817749	9859.080078	2984.443359	19.672516
407.839600	1300.446289	9929.221680	2983.625732	19.506586
408.200592	1297.622681	10052.416016	2984.814697	19.271639
408.561554	1304.607178	10166.692383	2992.616455	19.047541
408.922485	1308.248047	10294.641602	3000.938477	18.836149
409.283417	1307.505005	10365.155273	3005.099609	18.742107
409.644257	1306.613403	10462.640625	2993.656982	18.425497
410.005096	1304.978638	10521.116211	2988.009521	18.261782
410.365906	1303.789917	10516.436523	2976.121094	18.152559
410.726715	1292.495728	10472.225586	2963.266846	18.200657
411.087433	1289.152222	10383.433594	2932.282471	18.067730
411.448120	1285.585693	10345.093750	2893.867920	17.752424
411.808807	1290.340942	10294.567383	2865.335693	17.491728
412.169434	1287.889160	10271.459961	2839.181396	17.268105
412.530029	1291.084106	10317.007813	2832.048096	17.072645
412.890564	1297.845581	10415.458008	2818.079346	16.673595
413.251099	1307.059204	10566.664063	2824.915039	16.392231
413.611572	1312.409058	10719.132813	2831.304932	16.146917
413.972076	1316.198364	10880.147461	2830.116211	15.829422
414.332489	1313.374878	11003.637695	2821.051514	15.558677
414.692871	1313.597778	11204.627930	2819.862549	15.228593
415.053223	1308.693726	11385.925781	2823.131592	15.028312
415.413574	1309.659790	11659.286133	2839.106689	14.777799
415.773834	1309.659668	11847.495117	2843.193359	14.552644
416.134094	1304.384277	12131.479492	2872.171631	14.480221
416.494263	1299.034424	12411.972656	2883.911377	14.261547
416.854462	1295.616455	12819.448242	2913.335205	14.038028
417.214630	1296.508179	13214.961914	2938.969727	13.780828
417.574738	1300.594849	13598.437500	2969.359619	13.569573
417.934784	1305.721802	14018.323242	2987.563721	13.229723
418.294861	1310.922974	14511.098633	3022.263428	12.964528
418.654846	1310.551514	15098.536133	3065.432861	12.727613
419.014832	1303.418335	15698.307617	3121.383057	12.629237
419.374756	1298.960205	16325.570313	3175.178467	12.485971
419.734680	1297.325562	16968.437500	3236.477783	12.374056
420.094543	1297.622925	17468.419922	3266.050781	12.172732
420.454376	1304.681519	17762.955078	3269.468506	11.937989
420.814148	1299.183105	17932.664063	3251.190186	11.735410
421.173920	1306.613403	18086.173828	3246.508789	11.561062
421.533691	1301.337769	18183.732422	3231.871338	11.435188
421.893341	1307.653442	18218.060547	3204.156250	11.215004
422.253021	1300.148926	18204.314453	3160.986328	11.008159
422.612640	1299.331665	18198.148438	3120.639893	10.777726
422.972260	1300.223267	18192.501953	3083.934326	10.559327
423.331757	1300.149048	18210.630859	3065.210205	10.437675
423.691315	1306.018921	18328.996094	3050.572266	10.248227
424.050781	1302.823853	18360.500000	3029.322021	10.121532
424.410248	1308.990967	18213.083984	2983.031250	9.903165
424.769653	1299.405884	17915.798828	2926.115479	9.789788
425.128998	1300.149048	17536.408203	2861.769531	9.618105
425.488373	1297.251221	17109.984375	2795.565674	9.475367
425.847656	1303.715576	16696.416016	2739.838623	9.329897
426.206940	1304.607300	16273.039063	2688.941162	9.248356
426.566193	1312.111694	15910.516602	2635.814697	9.067450
426.925385	1318.353149	15492.860352	2574.812256	8.864218
427.284576	1322.662720	15127.290039	2517.078857	8.652288
427.643677	1317.536011	14812.023438	2471.382568	8.550503
428.002777	1309.139648	14591.641602	2441.067383	8.521947
428.361847	1303.567017	14398.604492	2409.265625	8.443646
428.720856	1303.567017	14204.301758	2385.117432	8.383635
429.079865	1303.046753	14103.918945	2343.507813	8.128048
429.438812	1302.600952	14080.143555	2312.375000	7.902725
429.797760	1297.474243	14049.010742	2286.814697	7.758598
430.156616	1292.793091	13902.559570	2268.239014	7.735638
430.515503	1289.449463	13796.379883	2257.390869	7.739240
430.874268	1287.591919	13778.250977	2243.570557	7.653548
431.233093	1290.935547	13907.090820	2232.945313	7.466694
431.591827	1296.582520	14081.405273	2221.948730	7.238006
431.950562	1304.012695	14250.741211	2211.694824	7.010900
432.309204	1305.796021	14386.937500	2211.323486	6.922389
432.667877	1303.418213	14534.207031	2206.716553	6.827245
433.026459	1301.189087	14599.666992	2198.989014	6.751148
433.385010	1298.960083	14655.096680	2196.834229	6.722559
433.743561	1301.709351	14622.403320	2186.506104	6.642272
434.102051	1298.514282	14653.089844	2175.955322	6.570340
434.460510	1300.297607	14713.203125	2153.812988	6.363389
434.818939	1299.034546	14730.440430	2133.602539	6.213556
435.177338	1302.080933	14718.848633	2117.627441	6.078562
435.535675	1305.201660	14670.625977	2096.599854	5.921235
435.894012	1304.681519	14646.106445	2086.271973	5.858373
436.252289	1302.749634	14806.601563	2084.042969	5.785707
436.610535	1297.325562	14895.913086	2078.469971	5.744305
436.968719	1294.130493	15168.083008	2082.705078	5.683850
437.326935	1296.731079	15418.631836	2080.624756	5.550908
437.685028	1298.960083	15733.526367	2090.358154	5.482659
438.043152	1300.669067	15986.898438	2091.844482	5.387192
438.401215	1302.972534	16245.843750	2091.621582	5.277761
438.759277	1306.316162	16580.279297	2096.525635	5.173572
439.117249	1310.922852	17076.027344	2103.435791	5.027007
439.475250	1309.436768	17483.429688	2108.488525	4.940349
439.833130	1306.761963	17900.044922	2111.089111	4.847306
440.191071	1299.777466	18022.867188	2104.698975	4.813234
440.548889	1298.737183	18116.267578	2096.228271	4.742023
440.906708	1298.737183	18020.789063	2087.980713	4.719777
441.264496	1299.628906	17846.251953	2080.253174	4.717726
441.622223	1295.170654	17550.005859	2071.336914	4.774987
441.979950	1289.449341	17254.800781	2054.470215	4.791757
442.337616	1284.396851	17044.300781	2026.829468	4.710896
442.695251	1288.929321	16889.677734	2002.606812	4.574636
443.052887	1290.489624	16810.617188	1987.820679	4.493075
443.410461	1299.034546	16924.968750	1980.093140	4.358514
443.768005	1296.359619	17115.705078	1985.442993	4.355954
444.125458	1304.830200	17400.658203	1983.511230	4.216503
444.482941	1300.000366	17722.312500	1999.560547	4.259815
444.840393	1299.406006	18217.392578	2000.080688	4.141596
445.197754	1289.078003	18656.150391	2016.947388	4.191089
445.555084	1290.712524	19001.658203	2026.458374	4.154187
445.912415	1292.049927	19237.048828	2038.718140	4.160871
446.269714	1293.015991	19362.546875	2041.095825	4.140007
446.626953	1298.737305	19373.244141	2035.374390	4.075558
446.984161	1290.340942	19192.169922	2026.829590	4.114041
447.341309	1301.114990	18986.945313	2013.083618	4.025644
447.698456	1298.068481	18693.300781	2003.795776	4.057015
448.055542	1306.539185	18478.568359	1990.644043	3.983832
448.412598	1300.520630	18126.964844	1972.068481	3.991027
448.769653	1303.789917	17744.900391	1946.805542	3.911023
449.126617	1304.830200	17308.595703	1924.588989	3.872581
449.483582	1304.161499	17031.669922	1911.362915	3.860760
449.840515	1300.669067	16817.900391	1903.338257	3.883871
450.197388	1304.830078	16626.349609	1904.898804	3.916509
450.554230	1308.545166	16485.025391	1892.267212	3.846228
450.911041	1307.133423	16419.341797	1888.032104	3.843904
451.267822	1303.121216	16493.271484	1876.515137	3.774775
451.624573	1301.189331	16564.751953	1879.784546	3.790696
451.981262	1297.102539	16534.882813	1869.828003	3.758589
452.337921	1297.176880	16387.984375	1858.311035	3.718384
452.694580	1291.975708	16051.096680	1838.175171	3.700759
453.051147	1293.684692	15859.471680	1830.150391	3.683053
453.407715	1293.833374	15529.195313	1828.218384	3.753926
453.764221	1296.210938	15444.563477	1831.264771	3.781739
454.120728	1296.731079	15109.234375	1820.490845	3.791925
454.477142	1295.467896	15028.839844	1812.168945	3.762376
454.833557	1296.879639	14900.148438	1807.487915	3.753571
455.189911	1298.142822	14926.377930	1808.453979	3.744514
455.546265	1300.000366	14986.338867	1814.769653	3.761191
455.902557	1297.771362	15038.945313	1816.478638	3.774840
456.258820	1296.953979	15269.653320	1829.258789	3.809606
456.615051	1295.839478	15565.602539	1832.676758	3.762062
456.971252	1293.536133	15915.198242	1844.119507	3.765532
457.327393	1297.845581	16440.443359	1858.682617	3.703704
457.683502	1298.142822	17044.970703	1884.540039	3.723907
458.039612	1303.566895	17978.287109	1916.044312	3.673090
458.395630	1293.015991	18833.138672	1941.158569	3.695200
458.751648	1295.393677	19601.873047	1970.656738	3.688656
459.107605	1294.056274	20207.812500	1992.798828	3.694362
459.463562	1301.783569	20406.275391	2010.854492	3.711540
459.819458	1300.149048	20271.193359	2014.123901	3.763498
460.175323	1301.932251	19698.466797	2002.978516	3.810752
460.531158	1301.114868	19034.869141	1986.260376	3.863511
460.886932	1301.337769	18316.808594	1959.734253	3.869399
461.242676	1297.325562	17619.626953	1939.895508	3.936761
461.598419	1303.567017	17086.876953	1917.678833	3.890894
461.954102	1300.074707	16582.955078	1900.737915	3.930301
462.309723	1296.731079	16224.592773	1878.818726	3.899337
462.665344	1291.529907	15956.954102	1863.512329	3.900211
463.020905	1291.529907	15822.541992	1855.338989	3.880040
463.376373	1291.232788	15761.390625	1861.877563	3.943597
463.731873	1294.799194	15723.199219	1863.289429	3.940078
464.087341	1293.090332	15751.731445	1861.729004	3.932864
464.442749	1298.291382	15886.665039	1867.598999	3.902475
464.798126	1290.489746	15990.093750	1876.663940	3.987687
465.153503	1290.563843	16136.098633	1893.456421	4.061104
465.508820	1294.056152	16277.719727	1904.527466	4.074246
465.864105	1300.594727	16398.982422	1913.889648	4.061989
466.219330	1304.458618	16594.917969	1923.325806	4.047408
466.574524	1300.371948	16643.140625	1923.548706	4.061697
466.929657	1296.805420	16534.437500	1916.118286	4.064364
467.284790	1295.467896	16326.983398	1919.536499	4.151734
467.639893	1297.028320	16088.546875	1918.942017	4.204529
467.994934	1300.371948	15914.454102	1927.709595	4.292693
468.349945	1301.412109	15716.585938	1909.876953	4.221003
468.704926	1304.532837	15587.448242	1906.013306	4.211188
469.059875	1296.433960	15477.108398	1898.880371	4.248362
469.414764	1297.028320	15435.276367	1906.310547	4.309461
469.769653	1296.211060	15418.187500	1904.527344	4.307586
470.124451	1299.629028	15518.718750	1907.499390	4.275030
470.479248	1295.022217	15575.930664	1913.295044	4.329366
470.834015	1292.124390	15623.335938	1930.235962	4.452600
471.188721	1292.347290	15817.637695	1948.068726	4.514343
471.543365	1294.873535	16086.984375	1966.272949	4.538902
471.898010	1300.669189	16310.859375	1969.765259	4.457612
472.252625	1306.316162	16526.115234	1984.477051	4.455781
472.607178	1308.396606	16696.044922	1993.096191	4.449670
472.961700	1300.817749	16793.232422	2001.640991	4.523654
473.316193	1299.257446	16802.742188	2003.201294	4.540553
473.670654	1300.520508	16750.359375	2013.455078	4.614511
474.025055	1304.087036	16867.757813	2029.281616	4.659534
474.379456	1303.789795	16966.431641	2045.776855	4.737305
474.733795	1304.309937	17108.423828	2057.888184	4.768241
475.088104	1302.006592	17350.947266	2066.210205	4.761708
475.442383	1298.588623	17685.162109	2069.776611	4.706219
475.796570	1293.907593	18008.007813	2077.355469	4.687347
476.150787	1296.062500	18396.166016	2099.720459	4.699726
476.504944	1296.582520	18684.533203	2139.175537	4.845844
476.859070	1296.359497	18981.521484	2165.255615	4.913136
477.213135	1296.730957	19186.521484	2191.558838	5.001891
477.567200	1294.353394	19450.669922	2200.029541	4.988215
477.921173	1301.040527	19764.302734	2223.732178	4.997447
478.275146	1298.885864	20039.966797	2238.295166	5.012568
478.629089	1306.316284	20320.083984	2259.174072	5.011410
478.983002	1297.251099	20719.164063	2278.195557	5.050710
479.336823	1295.765137	21259.791016	2302.790039	5.044198
479.690643	1294.353394	21907.931641	2343.284912	5.088547
480.044403	1303.344116	22753.498047	2384.820313	5.041811
480.398163	1310.031372	23886.244141	2444.708008	5.025983
480.751862	1310.551392	25531.828125	2511.654785	4.958877
481.105499	1311.963135	27669.814453	2627.715820	4.991881
481.459137	1306.241821	30815.791016	2783.008545	5.004369
481.812744	1306.539063	34931.792969	2997.966064	5.030228
482.166290	1303.344116	39897.363281	3246.508789	5.034885
482.519806	1300.669067	44787.750000	3518.902344	5.100902
482.873291	1298.291382	48945.207031	3768.931396	5.185310
483.226715	1292.570190	51703.769531	3962.489990	5.296283
483.580139	1300.594849	52695.125000	4060.866455	5.370749
483.933502	1306.613403	51953.578125	4040.953125	5.398823
484.286804	1313.597778	49816.332031	3938.935547	5.412763
484.640106	1307.356445	46908.863281	3781.488281	5.425548
484.993347	1302.229614	43996.941406	3636.375000	5.467060
485.346558	1300.148926	41926.570313	3524.623779	5.475439
485.699738	1303.418335	41045.566406	3487.472656	5.495562
486.052887	1296.582397	41389.515625	3502.927490	5.503078
486.405975	1299.926147	42308.117188	3542.679443	5.469038
486.759064	1297.102661	43244.480469	3588.003906	5.461370
487.112061	1310.699951	43626.324219	3624.709717	5.468452
487.464996	1305.052979	43235.046875	3629.316406	5.543200
487.817963	1304.607178	42071.535156	3583.174561	5.589254
488.170868	1297.325562	40258.031250	3494.010986	5.638207
488.523743	1299.405884	38223.769531	3387.832764	5.655959
488.876587	1301.040527	36395.328125	3291.090576	5.670581
489.229401	1307.950684	35259.390625	3248.143311	5.714611
489.582153	1307.579224	35020.136719	3242.125000	5.738353
489.934845	1301.263550	35588.550781	3298.594971	5.825283
490.287537	1292.347290	36748.714844	3349.269531	5.801278
490.640198	1291.604248	37937.929688	3426.841553	5.826607
490.992798	1297.399780	38531.605469	3460.946533	5.810643
491.345337	1293.833374	38232.246094	3462.283936	5.870449
491.697876	1299.257324	36966.644531	3406.779541	5.908822
492.050354	1288.632080	35090.871094	3306.025391	5.968224
492.402832	1288.186279	32666.896484	3177.778564	6.021893
492.755219	1281.424683	30129.531250	3032.516846	6.070042
493.107605	1292.049927	27807.943359	2904.196045	6.079924
493.459930	1297.399780	26052.763672	2803.218750	6.082799
493.812225	1307.282104	24816.884766	2737.014893	6.081484
494.164490	1311.740356	24123.791016	2698.229004	6.077878
494.516724	1309.585449	23778.357422	2674.749268	6.075828
494.868896	1304.532959	23764.537109	2678.761475	6.118559
495.221039	1298.068481	23942.419922	2700.755127	6.194422
495.573120	1294.873535	24145.412109	2725.869873	6.262418
495.925201	1293.387329	24340.162109	2745.634033	6.301301
496.277222	1296.433838	24487.650391	2747.789063	6.258211
496.629211	1302.600952	24556.900391	2752.544189	6.235162
496.981140	1301.486450	24481.632813	2757.745850	6.282356
497.333069	1305.572998	24227.294922	2756.259766	6.328873
497.684967	1300.743286	23833.937500	2737.089600	6.374358
498.036804	1298.514282	23381.431641	2708.556885	6.385219
498.388580	1288.631958	22929.671875	2677.052734	6.415684
498.740326	1297.548340	22530.515625	2655.727783	6.396560
499.092072	1297.399780	22086.560547	2612.483643	6.325815
499.443756	1306.316040	21672.320313	2593.982422	6.322627
499.795410	1297.919922	21341.376953	2583.505615	6.413992
500.147003	1304.384277	21104.423828	2581.202148	6.448563
500.498566	1302.080933	20857.146484	2570.725342	6.487548
500.850098	1302.526733	20638.248047	2573.251953	6.571905
501.201599	1299.777466	20472.107422	2564.707031	6.597683
501.553009	1295.096436	20387.849609	2571.840088	6.687058
501.904449	1295.987915	20373.138672	2560.026123	6.625928
502.255859	1286.105835	20416.232422	2575.778320	6.741578
502.607178	1289.077881	20517.431641	2576.075195	6.693227
502.958405	1291.232666	20571.970703	2586.997803	6.720516
503.309692	1301.709473	20638.324219	2599.109131	6.709549
503.660919	1301.560913	20715.300781	2606.687988	6.722698
504.012115	1308.693848	20688.998047	2612.706787	6.728547
504.363251	1304.978638	20651.996094	2610.923584	6.750110
504.714294	1306.687622	20541.359375	2608.471436	6.767902
505.065369	1298.811523	20549.830078	2605.350586	6.786857
505.416443	1304.458618	20448.482422	2590.415771	6.717278
505.767395	1300.743530	20434.437500	2587.072021	6.722845
506.118317	1301.932373	20356.865234	2584.025635	6.728406
506.469238	1301.114990	20504.802734	2607.208008	6.801261
506.820160	1302.303833	20642.927734	2623.183350	6.829560
507.170929	1304.681519	20899.718750	2651.046631	6.870950
507.521729	1298.365723	21170.775391	2671.702881	6.910773
507.872498	1300.743530	21424.519531	2687.603760	6.891650
508.223236	1299.777466	21643.044922	2700.978027	6.887785
508.573883	1302.675293	21776.123047	2704.990479	6.849433
508.924500	1301.709351	21939.958984	2716.507324	6.855223
509.275116	1297.251221	22103.500000	2724.086426	6.857725
509.625702	1299.257446	22311.470703	2748.160400	6.895528
509.976196	1303.715576	22494.626953	2756.556641	6.855963
510.326660	1309.362549	22707.802734	2786.277588	6.901976
510.677124	1310.625732	22846.453125	2796.679932	6.900381
511.027557	1301.189331	23031.687500	2819.416748	6.986620
511.377869	1302.378052	23151.390625	2820.903076	6.950086
511.728180	1299.257324	23168.775391	2831.231201	7.005065
512.078430	1303.864136	23074.634766	2831.082275	7.014993
512.428650	1302.675293	22947.281250	2834.500000	7.077166
512.778931	1305.052979	22827.802734	2824.543701	7.059928
513.129028	1305.127319	22663.072266	2833.311523	7.155109
513.479126	1306.910522	22550.132813	2816.370361	7.105607
513.829285	1306.910522	22443.134766	2796.085938	7.045608
514.179382	1304.235718	22381.984375	2780.556396	7.004167
514.529297	1300.149048	22353.750000	2783.900146	7.047493
514.879272	1297.251221	22483.929688	2804.333252	7.113348
515.229187	1302.006714	22700.447266	2812.358154	7.058231
515.579163	1297.176880	23095.291016	2838.735352	7.071981
515.928955	1301.189331	23562.210938	2869.868164	7.046751
516.278748	1305.275879	24191.033203	2916.530273	7.040424
516.628540	1307.876465	24941.267578	2959.700195	6.989364
516.978333	1306.018921	25831.861328	3016.244873	6.973159
517.327942	1301.709351	26734.119141	3085.420654	7.013536
517.677612	1298.811523	27384.937500	3132.379883	7.028903
518.027222	1288.260620	27780.226563	3174.435303	7.119799
518.376831	1292.793091	27773.687500	3176.589844	7.113796
518.726379	1292.495728	27529.603516	3168.194092	7.149029
519.075867	1299.257324	26945.882813	3118.410889	7.093150
519.425293	1297.548462	26346.111328	3080.516602	7.118046
519.774658	1308.991089	25710.302734	3039.129883	7.090352
520.124084	1311.665894	25168.708984	3006.362549	7.103549
520.473389	1307.133423	24682.250000	2965.124268	7.092973
520.822693	1304.012817	24324.037109	2952.121094	7.159455
521.171997	1296.285278	24142.291016	2936.814697	7.180815
521.521240	1297.474121	24113.240234	2937.409424	7.187728
521.870361	1287.591797	24227.666016	2930.647705	7.162383
522.219482	1293.758911	24428.431641	2951.452881	7.165410
522.568604	1298.588623	24691.833984	2977.830078	7.178318
522.917664	1306.910645	25091.212891	3007.774170	7.151202
523.266724	1302.229492	25742.103516	3046.337158	7.136320
523.615662	1295.393677	26656.474609	3109.419922	7.152796
523.964600	1287.889038	27725.615234	3187.066406	7.183588
524.313538	1292.792969	28940.166016	3269.839844	7.150939
524.662354	1290.638184	30190.607422	3343.548096	7.103502
525.011169	1297.176880	31469.876953	3433.231445	7.079429
525.359985	1295.468018	32678.263672	3524.029297	7.101220
525.708740	1301.263550	33952.628906	3620.623047	7.103407
526.057434	1303.492554	35522.269531	3728.733643	7.087457
526.406067	1305.127197	37582.093750	3865.079102	7.056687
526.754700	1303.566895	40353.808594	4055.219971	7.046443
527.103333	1307.059082	43569.480469	4277.682129	7.028994
527.451782	1306.910522	46917.562500	4539.004883	7.086271
527.800293	1303.566772	49573.363281	4747.572266	7.134908
528.148743	1300.000366	51118.191406	4886.369629	7.198915
528.497131	1303.195313	51113.062500	4898.406738	7.217870
528.845642	1304.235718	49604.644531	4802.853516	7.243454
529.193909	1297.919922	46928.707031	4619.028809	7.278219
529.542175	1293.536011	43509.515625	4371.972168	7.292111
529.890503	1293.610352	40068.484375	4116.891113	7.281212
530.238770	1295.393677	37094.218750	3898.366455	7.271112
530.586914	1297.845581	35050.078125	3742.850830	7.243981
530.934998	1297.399780	34026.484375	3657.477295	7.210949
531.283142	1299.406006	33945.199219	3640.982178	7.172674
531.631226	1304.755737	34600.996094	3683.408936	7.143909
531.979248	1307.653564	35762.417969	3759.048828	7.114822
532.327148	1307.059204	36972.957031	3832.831299	7.081756
532.675110	1301.858032	37806.414063	3890.416016	7.091055
533.023071	1299.183105	37905.089844	3910.403564	7.133331
533.370850	1300.074707	37146.976563	3868.199951	7.164148
533.718689	1301.635132	35838.582031	3784.460938	7.188898
534.066467	1308.322388	34203.699219	3669.662842	7.178335
534.414246	1308.396606	32800.191406	3563.335693	7.160401
534.761963	1306.464844	31772.585938	3474.395264	7.115873
535.109619	1303.269653	31257.076172	3424.983643	7.083286
535.457153	1299.703125	31045.384766	3404.625000	7.076395
535.804749	1295.616577	30925.685547	3401.950195	7.108770
536.152344	1297.251221	30806.056641	3389.541748	7.090394
536.499817	1301.040649	30442.271484	3365.096436	7.082939
536.847229	1298.514282	29878.015625	3326.087158	7.094501
537.194641	1293.238770	29090.330078	3280.464844	7.149043
537.542114	1289.226440	28337.646484	3231.722656	7.181551
537.889404	1295.839478	27749.468750	3178.224609	7.115792
538.236694	1295.096558	27381.369141	3152.441406	7.120008
538.583984	1296.433960	27539.041016	3153.704346	7.077309
538.931213	1298.068481	28300.716797	3216.490479	7.104570
539.278381	1299.331665	29757.273438	3299.412354	7.028199
539.625488	1302.080933	31637.726563	3425.429688	6.999516
539.972595	1303.121216	33984.355469	3574.406982	6.949816
540.319641	1300.892090	36299.183594	3732.745850	6.948493
540.666687	1305.721802	38072.121094	3848.137939	6.915053
541.013611	1303.121216	39001.718750	3918.279541	6.937017
541.360596	1302.972534	38985.597656	3927.121826	6.963818
541.707458	1299.554565	38306.621094	3896.955078	7.018661
542.054260	1298.960205	36991.312500	3789.736084	6.978458
542.401062	1300.891968	35382.957031	3683.408936	6.990530
542.747864	1294.873535	33564.917969	3558.357422	7.014195
543.094666	1290.861206	31741.898438	3459.237549	7.120862
543.441284	1290.340942	30006.632813	3333.294189	7.114266
543.787903	1291.307007	28575.041016	3228.156250	7.098916
544.134460	1299.108765	27417.109375	3136.912354	7.036541
544.481079	1297.771240	26645.994141	3075.315430	7.012500
544.827637	1300.743408	26137.244141	3041.210205	7.007698
545.174072	1299.108765	25863.884766	3016.021729	6.989329
545.520508	1305.498901	25778.509766	3013.272705	6.978192
545.866943	1305.647461	25726.203125	3004.207764	6.955453
546.213318	1306.390503	25600.185547	2998.114990	6.963607
546.559631	1299.257446	25304.609375	2970.622803	6.962470
546.905823	1299.183105	24775.054688	2936.443359	6.974226
547.252136	1300.223267	24013.228516	2872.989014	6.924516
547.598389	1310.551392	23105.693359	2807.899658	6.870101
547.944458	1311.442993	22203.732422	2739.615479	6.835883
548.290588	1305.796021	21328.818359	2692.136475	6.923733
548.636658	1300.594849	20583.117188	2644.879639	6.971520
548.982727	1294.279175	19908.150391	2605.201904	7.042719
549.328735	1299.628906	19466.345703	2574.738037	7.018930
549.674622	1303.418335	19067.416016	2555.790771	7.050059
550.020569	1305.127319	18861.673828	2536.323486	7.012747
550.366455	1294.130615	18676.806641	2518.490479	7.043564
550.712280	1291.678589	18658.304688	2516.781738	7.054353
551.058044	1295.319458	18762.701172	2509.426025	6.950707
551.403748	1301.560791	18916.953125	2523.989014	6.939546
551.749512	1300.966309	19085.917969	2528.373047	6.901378
552.095154	1301.932251	19197.296875	2542.639160	6.933119
552.440735	1294.130493	19280.367188	2531.493896	6.879501
552.786316	1295.542358	19250.943359	2524.806396	6.846208
553.131897	1296.136719	19101.445313	2512.175049	6.829639
553.477417	1308.545288	18798.142578	2500.732422	6.816550
553.822815	1306.316162	18407.830078	2476.063721	6.840024
554.168213	1301.337891	18012.316406	2457.636719	6.919396
554.513672	1296.582397	17686.275391	2434.454346	6.942607
554.859009	1295.467896	17421.312500	2418.330811	6.963126
555.204285	1302.229492	17238.082031	2394.033691	6.851244
555.549500	1301.486450	17108.052734	2383.036621	6.842411
555.894714	1298.588623	17032.783203	2364.832520	6.776603
556.239990	1301.783691	16914.271484	2359.482666	6.774698
556.585022	1308.396606	16798.730469	2341.130127	6.666955
556.930115	1308.248047	16658.076172	2327.607178	6.640851
557.275146	1300.669067	16515.042969	2318.988037	6.693138
557.620178	1294.279053	16407.304688	2323.074463	6.807343
557.965149	1297.474121	16348.159180	2328.572998	6.850843
558.310059	1294.947632	16304.542969	2318.988037	6.822572
558.654968	1294.650513	16252.754883	2314.009521	6.814761
558.999756	1292.272949	16263.973633	2308.065430	6.784750
559.344604	1300.669067	16323.711914	2306.505127	6.695289
559.689331	1297.399780	16411.537109	2295.062500	6.600858
560.033997	1297.399780	16471.574219	2299.297607	6.602651
560.378723	1291.381348	16559.623047	2311.334717	6.680228
560.723389	1300.000488	16583.548828	2319.433838	6.670135
561.067932	1309.808472	16570.025391	2327.607178	6.669621
561.412476	1309.659790	16489.333984	2324.560547	6.685919
561.757019	1306.390381	16443.490234	2329.910400	6.761665
562.101501	1300.669067	16412.058594	2326.269287	6.786935
562.445862	1304.904297	16369.928711	2309.402588	6.667751
562.790222	1310.031250	16331.589844	2297.663086	6.574763
563.134644	1308.470947	16337.088867	2293.501953	6.554368
563.478943	1303.269775	16423.724609	2309.923096	6.657560
563.823181	1293.313110	16563.117188	2310.666260	6.662516
564.167358	1296.433838	16749.839844	2309.179932	6.553546
564.511536	1301.783569	17024.314453	2316.981689	6.456964
564.855774	1310.774292	17379.626953	2345.662354	6.440336
565.199768	1308.693848	17720.158203	2368.102051	6.455293
565.543823	1301.709473	18013.132813	2380.138916	6.453247
565.887817	1297.251099	18203.572266	2381.327881	6.412258
566.231812	1304.087036	18246.074219	2390.392822	6.411915
566.575745	1312.037476	18121.468750	2392.399170	6.427116
566.919617	1313.895020	17891.576172	2386.083252	6.467661
567.263428	1306.984863	17568.880859	2358.516846	6.466232
567.607239	1301.189331	17345.302734	2342.319092	6.489170
567.950989	1298.811646	17129.673828	2324.114990	6.476611
568.294678	1301.560791	17026.841797	2319.582275	6.473789
568.638367	1305.053101	16910.408203	2307.248047	6.422122
568.981995	1305.350220	16894.062500	2300.858154	6.386082
569.325623	1305.573120	16978.839844	2300.932373	6.350682
569.669128	1302.155151	17132.201172	2313.637939	6.389639
570.012573	1303.864136	17334.826172	2325.303467	6.371666
570.356140	1301.783691	17583.740234	2344.176514	6.402135
570.699524	1303.566895	17845.359375	2351.829590	6.337056
571.042908	1304.607300	18163.003906	2369.885254	6.318975
571.386230	1308.322266	18351.806641	2386.751953	6.327519
571.729492	1306.167480	18438.740234	2406.442139	6.422122
572.072815	1305.944702	18377.515625	2407.705322	6.453774
572.416016	1300.149048	18306.482422	2397.451416	6.452316
572.759094	1300.446289	18132.761719	2377.389893	6.398071
573.102234	1297.251343	17909.556641	2359.854248	6.396481
573.445374	1298.811646	17670.748047	2342.170410	6.372849
573.788391	1304.012817	17587.232422	2327.532715	6.285734
574.131409	1299.628906	17559.294922	2317.799072	6.261938
574.474365	1295.244995	17516.572266	2310.071533	6.256125
574.817261	1295.616577	17426.591797	2296.399658	6.204108
575.160156	1305.647339	17230.875000	2293.130371	6.200747
575.502930	1309.362549	16974.158203	2288.597900	6.251185
575.845703	1311.145874	16687.126953	2270.616699	6.240062
576.188477	1310.328491	16416.814453	2244.313477	6.182675
576.531250	1310.179810	16141.671875	2214.815674	6.099426
576.873901	1304.161255	15793.786133	2203.967529	6.210004
577.216431	1296.508179	15442.335938	2186.060303	6.288442
577.559082	1297.251343	15111.019531	2165.627197	6.286307
577.901611	1299.554565	14824.507813	2149.503174	6.284300
578.244080	1300.594849	14568.312500	2131.596436	6.263335
578.586487	1304.830078	14382.257813	2119.633545	6.230609
578.928955	1307.505005	14192.934570	2127.138184	6.360930
579.271301	1314.860962	14008.515625	2129.070068	6.414300
579.613647	1314.786621	13793.484375	2121.565430	6.465249
579.955872	1305.573120	13637.745117	2090.878418	6.367940
580.298157	1301.412231	13515.368164	2069.107666	6.285396
580.640320	1295.245117	13485.424805	2052.909912	6.215370
580.982483	1299.926147	13439.429688	2042.656128	6.118289
581.324524	1301.337891	13430.291992	2041.170044	6.099720
581.666626	1306.390503	13349.226563	2037.826538	6.073619
582.008728	1311.814575	13284.731445	2028.538696	5.986211
582.350647	1314.935181	13207.011719	2019.547974	5.925061
582.692566	1311.220093	13143.409180	2014.421021	5.943118
583.034424	1307.653564	13087.979492	2009.442871	5.957299
583.376343	1299.554688	12992.128906	2005.504883	6.037594
583.718201	1298.885864	12910.395508	2002.384155	6.058629
584.059937	1294.279175	12801.168945	2009.219849	6.213153
584.401611	1294.204834	12772.934570	2002.681274	6.172081
584.743347	1291.455688	12739.200195	2002.606934	6.212152
585.085022	1292.272949	12740.242188	1998.148804	6.165948
585.426514	1294.353516	12722.409180	2004.835938	6.217002
585.768127	1301.858032	12746.186523	1995.176758	6.058187
586.109619	1306.836182	12747.152344	1985.145874	5.929117
586.451172	1312.037476	12759.487305	1982.099487	5.853374
586.792542	1306.093140	12779.250000	1987.077637	5.935459
587.133850	1304.012695	12817.070313	1987.597656	5.937475
587.475220	1299.554565	12897.540039	1986.706055	5.924749
587.816589	1295.913818	12954.085938	1989.306763	5.947699
588.157776	1293.684692	13059.296875	2009.962891	6.087896
588.498962	1289.969604	13121.860352	2015.609863	6.132919
588.840210	1291.975708	13196.609375	2015.906860	6.081087
589.181335	1291.232666	13264.297852	2012.266113	6.022129
589.522400	1298.142700	13256.273438	2011.894897	5.968760
589.863403	1300.371948	13237.028320	2011.746216	5.959578
590.204407	1303.864136	13164.436523	2004.835938	5.910101
590.545410	1304.458618	13124.535156	2002.829712	5.908347
590.886353	1303.938354	13028.536133	1996.588501	5.907667
591.227112	1304.012695	12916.339844	1980.539063	5.825933
591.567932	1301.783691	12819.745117	1977.195313	5.863986
591.908752	1304.087036	12760.823242	1975.263672	5.858358
592.249512	1301.858032	12798.495117	1978.384155	5.884557
592.590149	1298.737183	12816.699219	1974.817749	5.869793
592.930786	1301.040649	12917.007813	1968.279175	5.744150
593.271423	1301.263550	12989.750000	1966.124390	5.688169
593.612000	1304.607178	13127.284180	1967.981812	5.611036
593.952576	1295.542358	13261.995117	1991.610229	5.816827
594.292969	1287.071655	13414.687500	2003.127075	5.904338
594.633484	1280.978882	13592.790039	2002.755493	5.862473
594.973877	1288.855103	13842.745117	2006.767944	5.718648
595.314209	1306.762085	14123.832031	2028.464233	5.630789
595.654480	1310.254150	14447.124023	2052.166748	5.647560
595.994812	1307.950806	14736.235352	2071.485596	5.686019
596.335022	1295.616577	14967.911133	2079.287354	5.731816
596.675171	1297.771362	15037.014648	2082.630859	5.712538
597.015320	1296.359741	14955.428711	2061.009033	5.598107
597.355408	1296.508179	14673.747070	2050.086182	5.633285
597.695496	1302.972534	14286.629883	2030.024536	5.599747
598.035461	1306.539185	13762.125977	2015.164063	5.689213
598.375366	1309.139771	13309.770508	1984.179810	5.625038
598.715271	1299.406128	12900.809570	1963.969604	5.728302
599.055176	1301.560669	12610.434570	1948.737427	5.722734
599.395081	1306.836304	12374.747070	1931.202148	5.641226
599.734802	1310.922852	12205.335938	1918.867798	5.580337
600.074524	1305.424438	12125.832031	1911.734741	5.603396
600.414246	1298.885864	12068.024414	1919.908081	5.766684
600.753906	1298.439941	12099.007813	1920.279663	5.757472
601.093506	1304.087036	12102.278320	1913.443726	5.643137
601.433044	1309.659790	12233.645508	1914.781250	5.539384
601.772583	1309.065430	12439.242188	1921.617065	5.503521
602.112122	1309.659790	12751.981445	1937.963501	5.491051
602.451538	1303.046875	13106.703125	1951.635132	5.494808
602.790894	1299.257446	13443.071289	1968.799194	5.513439
603.130310	1297.994263	13873.358398	1993.616333	5.531626
603.469604	1298.885864	14268.128906	2008.328247	5.470191
603.808838	1301.932251	14642.094727	2027.275757	5.437292
604.148010	1296.210938	14835.578125	2032.105103	5.435218
604.487305	1298.737305	14904.531250	2036.563354	5.422881
604.826416	1299.406006	14800.877930	2030.395996	5.414150
605.165527	1301.560669	14578.416992	2011.969116	5.350728
605.504456	1299.926147	14208.536133	1991.089844	5.354284
605.843445	1298.588623	13789.320313	1963.523560	5.323427
606.182434	1299.554688	13324.409180	1954.013062	5.442547
606.521423	1303.492676	12935.956055	1935.585938	5.433873
606.860229	1312.334595	12608.057617	1927.635376	5.447202
607.199036	1310.848633	12429.285156	1904.007202	5.334910
607.537903	1311.517456	12367.390625	1894.793823	5.275715
607.876648	1303.492676	12465.620117	1889.666870	5.251456
608.215271	1316.272827	12641.418945	1895.982544	5.118783
608.553955	1315.083862	12845.676758	1912.849243	5.184169
608.892578	1313.077637	12989.006836	1927.486938	5.262187
609.231140	1303.343872	13064.945313	1941.232788	5.423487
609.569641	1297.028198	13016.647461	1937.220581	5.462570
609.908081	1300.446167	12892.488281	1919.685181	5.341932
610.246521	1292.421509	12636.367188	1912.626465	5.467278
610.584961	1297.474121	12352.828125	1897.765991	5.429875
610.923340	1292.347290	12010.218750	1892.044556	5.595302
611.261597	1296.953979	11703.050781	1876.515259	5.569440
611.599854	1292.867432	11427.757813	1868.193359	5.676686
611.938110	1301.709351	11215.625000	1856.082031	5.591864
612.276245	1301.115112	11009.656250	1829.704590	5.444582
612.614319	1309.808350	10847.973633	1803.327026	5.174147
612.952393	1304.904297	10679.455078	1789.060913	5.164585
613.290466	1308.545288	10589.772461	1791.438599	5.202903
613.628479	1294.947754	10469.773438	1791.735840	5.414687
613.966370	1293.238892	10401.339844	1780.813477	5.353197
614.304260	1294.353394	10307.569336	1763.872437	5.209229
614.642151	1303.269653	10230.741211	1757.185181	5.084480
614.979980	1304.012817	10158.741211	1753.395630	5.075060
615.317749	1295.839478	10107.622070	1754.212891	5.201824
615.655396	1288.854858	10080.651367	1758.448242	5.341268
615.993164	1294.576294	10076.340820	1763.277954	5.337215
616.330811	1302.823853	10083.102539	1766.918823	5.285652
616.668396	1311.591675	10089.121094	1765.358398	5.169641
617.005859	1305.796021	10106.433594	1760.157227	5.162821
617.343445	1300.297729	10125.901367	1754.435913	5.145690
617.680908	1295.170776	10162.532227	1749.531860	5.123971
618.018311	1297.845581	10166.990234	1760.528687	5.216773
618.355652	1305.870239	10162.234375	1758.671021	5.112716
618.692993	1306.910522	10113.194336	1755.476074	5.093699
619.030273	1317.164429	10098.706055	1742.398804	4.842366
619.367554	1314.563721	10063.783203	1736.900391	4.827135
619.704712	1309.659668	10074.408203	1741.655762	4.928791
620.041870	1297.325562	10025.219727	1745.965332	5.140298
620.379028	1285.957397	9993.270508	1749.383423	5.322262
620.716064	1285.808594	9933.976563	1740.095337	5.252983
621.053040	1284.099731	9897.418945	1730.064575	5.177619
621.389954	1294.873535	9884.267578	1728.058472	5.043253
621.726929	1305.275879	9839.686523	1735.414429	5.040050
622.063843	1308.099487	9830.769531	1741.061401	5.080121
622.400635	1299.554565	9808.106445	1749.457642	5.287658
622.737427	1290.415405	9841.766602	1751.612305	5.393263
623.074219	1293.090210	9815.909180	1747.748657	5.334601
623.410889	1301.635010	9790.050781	1746.113892	5.236300
623.747559	1308.842407	9816.131836	1745.816772	5.136470
624.084167	1307.802246	9886.868164	1753.618530	5.196559
624.420715	1302.155273	10039.040039	1754.733032	5.180081
624.757324	1299.628906	10159.708008	1753.098511	5.118122
625.093750	1297.102539	10338.554688	1756.367798	5.079552
625.430176	1307.133423	10508.188477	1758.448242	4.905034
625.766602	1310.402832	10698.551758	1760.157227	4.790661
626.102905	1310.402710	10856.594727	1775.909302	4.876359
626.439209	1300.297607	10960.543945	1785.420288	5.021846
626.775452	1297.994263	11010.995117	1793.296265	5.099371
627.111694	1298.217163	10993.608398	1785.271484	5.023565
627.447876	1293.907593	10917.373047	1780.664673	5.058022
627.783997	1293.981812	10794.178711	1778.881470	5.104101
628.120056	1289.523804	10656.124023	1768.404663	5.112643
628.456055	1293.833374	10489.760742	1762.386353	5.095222
628.792053	1293.981812	10337.589844	1757.333618	5.123528
629.128052	1295.096313	10194.481445	1757.185059	5.192367
629.463928	1294.278931	10110.520508	1749.011719	5.157899
629.799744	1289.226440	10036.068359	1734.002563	5.084991
630.135559	1294.799194	9967.635742	1728.801392	5.004155
630.471375	1299.554565	9834.114258	1716.912964	4.890216
630.807068	1309.139648	9717.161133	1709.333984	4.759673
631.142700	1306.984863	9619.303711	1696.999878	4.692012
631.478333	1305.796021	9529.249023	1704.207153	4.844816
631.813965	1298.068481	9478.054688	1711.563110	5.054955
632.149475	1299.182983	9418.463867	1710.745728	5.068956
632.484924	1303.715576	9430.426758	1710.522827	5.005805
632.820435	1305.870361	9426.042969	1720.256470	5.103168
633.155884	1301.560791	9440.680664	1723.154297	5.179842
633.491150	1293.164551	9503.393555	1719.885132	5.197426
633.826477	1291.455566	9523.157227	1710.077148	5.085481
634.161804	1295.690918	9536.458008	1708.293945	5.006852
634.497009	1302.749634	9451.157227	1704.430176	4.929559
634.832153	1305.127319	9355.084961	1699.080444	4.893854
635.167297	1308.842407	9238.948242	1696.776978	4.891922
635.502380	1302.006592	9141.612305	1692.096069	4.975882
635.837463	1294.650757	9064.188477	1683.179565	5.000669
636.172424	1292.718750	9029.118164	1672.628418	4.910678
636.507324	1295.096313	8953.329102	1667.798828	4.866691
636.842224	1302.600952	8855.398438	1669.582153	4.858878
637.177124	1297.622681	8725.888672	1666.535767	4.966342
637.511963	1296.879761	8640.291992	1659.922852	4.943793
637.846741	1295.765137	8556.477539	1650.411987	4.884463
638.181396	1297.994263	8475.265625	1651.972290	4.931931
638.516113	1303.492676	8430.460938	1663.043457	5.044933
638.850769	1303.567017	8383.278320	1662.671875	5.072309
639.185303	1308.396606	8344.493164	1658.956909	4.982312
639.519836	1301.337891	8273.235352	1641.792969	4.883248
639.854370	1300.743408	8230.214844	1640.232544	4.899207
640.188843	1291.307007	8179.392090	1636.740356	5.014940
640.523254	1295.839478	8130.574707	1639.043579	5.021469
640.857605	1297.399780	8097.287109	1640.604126	5.047206
641.191895	1302.526733	8074.031250	1645.730957	5.068360
641.526184	1292.198608	8041.709473	1643.056030	5.198265
641.860413	1293.536011	7996.682129	1639.935425	5.167714
642.194580	1290.638184	7945.338379	1639.712402	5.245529
642.528748	1300.669067	7905.585938	1641.569946	5.161320
642.862793	1301.932251	7850.156250	1641.124146	5.179907
643.196838	1301.263550	7806.243652	1637.409058	5.167510
643.530823	1306.241821	7799.036621	1642.907593	5.185221
643.864746	1297.325562	7827.717285	1642.387329	5.283937
644.198669	1304.309937	7848.076660	1642.758789	5.172080
644.532532	1299.703125	7847.259277	1642.090210	5.229235
644.866333	1306.984741	7846.070313	1637.854858	5.059884
645.200073	1300.148926	7843.099121	1637.186157	5.151151
645.533813	1298.662842	7835.296875	1631.613403	5.093609
645.867554	1297.697144	7811.890625	1633.471069	5.154497
646.201172	1306.464722	7800.373535	1631.316284	5.002404
646.534729	1301.040649	7809.958984	1629.755859	5.050228
646.868225	1301.263550	7808.175781	1631.984863	5.082615
647.201782	1291.678467	7806.541504	1628.121094	5.164232
647.535217	1293.461792	7799.482422	1626.263672	5.115291
647.868591	1289.226440	7797.029785	1630.647583	5.246335
648.201965	1292.644409	7777.859863	1633.471069	5.255441
648.535278	1297.845581	7757.798340	1637.929199	5.264491
648.868591	1294.427734	7760.474121	1633.099609	5.237696
649.201782	1291.678467	7766.714844	1629.681641	5.220097
649.534912	1287.443237	7750.071777	1630.127441	5.302552
649.868103	1292.867310	7723.470703	1631.687866	5.268877
650.201172	1296.953979	7725.773926	1632.876587	5.225261
650.534180	1298.588623	7735.878906	1633.916992	5.209154
650.867188	1297.845581	7761.439453	1640.901367	5.307508
651.200134	1293.090210	7765.080566	1645.805298	5.449871
651.533020	1288.780640	7774.962891	1643.576172	5.470021
651.865845	1290.266724	7733.576660	1632.207886	5.306918
652.198608	1295.913696	7680.300781	1630.201660	5.236022
652.531433	1297.845581	7614.617188	1623.885864	5.161502
652.864136	1300.817749	7602.134277	1632.282227	5.260242
653.196777	1426.835083	7731.792480	1757.779419	5.248954
653.529358	1437.237671	7701.773438	1772.416992	5.350426
653.861938	1435.157104	7646.566895	1765.358398	5.316044
654.194519	1308.173706	7457.689453	1638.449219	5.370757
654.526978	1303.344116	7453.603027	1629.309937	5.300034
654.859375	1299.851685	7439.188965	1631.093262	5.395396
655.191833	1297.994263	7434.433105	1628.121216	5.379781
655.524170	1301.560791	7412.959473	1618.461792	5.185409
655.856445	1305.796021	7394.458496	1613.483521	5.053450
656.188660	1311.963135	7379.375000	1625.000488	5.159322
656.520874	1307.505005	7368.451660	1636.517578	5.428402
656.853088	1299.628906	7421.578613	1644.542358	5.634046
657.185181	1289.820923	7511.708496	1639.860962	5.625946
657.517212	1289.077759	7674.505371	1647.662720	5.615676
657.849243	1298.365723	7830.169434	1649.668945	5.378349
658.181274	1301.114868	8021.572754	1667.576050	5.452920
658.513123	1301.783569	8209.632813	1681.173340	5.492155
658.844971	1305.424561	8387.438477	1700.194946	5.574267
659.176819	1298.068604	8519.921875	1704.504517	5.627861
659.508667	1295.170776	8580.775391	1707.105103	5.654086
659.840393	1290.489624	8567.475586	1715.129883	5.835387
660.172058	1298.365723	8485.444336	1717.730469	5.834982
660.503662	1304.904419	8306.969727	1714.386719	5.848022
660.835266	1308.842407	8102.414551	1700.640625	5.767190
661.166931	1309.436768	7873.710938	1693.581909	5.852058
661.498413	1305.870239	7696.275879	1683.996704	5.917096
661.829773	1303.715454	7528.426270	1675.303345	5.969561
662.161194	1308.470825	7373.133301	1657.396484	5.753422
662.492615	1310.625732	7232.181152	1650.263550	5.735618
662.823975	1305.944580	7137.964844	1644.096191	5.798190
663.155212	1304.830078	7052.962891	1641.198364	5.851783
663.486450	1298.662964	6964.244629	1633.842407	5.916064
663.817627	1295.022095	6876.790527	1631.613403	6.030191
664.148743	1289.969604	6802.636719	1633.693848	6.235171
664.479858	1295.542236	6751.517090	1640.752808	6.327203
664.810913	1302.823853	6743.640625	1642.981812	6.251965
665.141907	1302.080933	6715.107910	1639.192383	6.227781
665.472778	1304.532837	6695.640625	1634.065430	6.112521
665.803711	1302.080933	6682.563965	1635.997437	6.206069
666.134583	1306.464844	6697.052246	1634.362671	6.082785
666.465454	1303.938477	6713.548340	1629.087280	6.010578
666.796143	1308.470825	6678.552246	1625.446289	5.902619
667.126831	1310.848633	6657.226563	1623.737305	5.852348
667.457458	1306.093140	6644.148926	1631.241821	6.091145
667.788147	1302.452271	6663.616699	1637.111816	6.242292
668.118774	1304.458496	6682.489746	1648.108521	6.389885
668.449219	1307.282104	6710.798828	1648.703125	6.318497
668.779663	1302.972534	6734.650391	1647.662964	6.345929
669.110107	1300.669189	6744.532715	1653.012695	6.472306
669.440552	1301.783691	6729.894531	1659.031250	6.581434
669.770874	1300.223267	6687.541504	1650.709351	6.505762
670.101135	1296.879761	6669.263672	1645.359497	6.486501
670.431396	1294.056274	6610.341309	1645.656616	6.613647
670.761597	1296.879761	6563.604980	1648.480103	6.675882
671.091797	1297.696899	6505.128906	1652.269531	6.808973
671.421875	1300.074707	6473.328125	1641.569946	6.601170
671.751892	1302.452271	6444.052246	1638.300781	6.531984
672.081909	1301.486450	6403.408691	1633.693970	6.511418
672.411865	1300.520508	6397.389160	1639.935181	6.659278
672.741821	1298.885864	6360.015625	1637.557617	6.691623
673.071716	1300.000366	6349.464844	1636.963257	6.673240
673.401550	1299.183105	6306.889160	1638.077637	6.767460
673.731262	1300.966431	6289.725098	1648.257202	6.961466
674.060974	1299.257324	6233.701172	1642.313110	6.952269
674.390625	1299.554565	6207.472168	1642.684570	6.991356
674.720276	1302.600952	6195.732422	1642.238770	6.941114
675.049927	1304.755859	6206.431641	1653.235474	7.109397
675.379395	1304.755859	6200.338379	1649.743164	7.046910
675.708923	1304.830078	6165.639160	1654.052856	7.184458
676.038330	1302.303833	6146.692871	1654.647339	7.273229
676.367737	1301.040527	6128.042969	1666.461304	7.570346
676.697083	1300.891968	6143.943359	1664.752441	7.513042
677.026428	1307.133423	6161.850098	1662.746460	7.325104
677.355652	1312.111816	6198.480957	1656.059082	7.038913
677.684875	1312.483398	6225.602051	1665.718384	7.189629
678.013977	1310.477051	6264.536621	1671.588379	7.289200
678.343079	1306.910645	6313.873535	1686.300171	7.577239
678.672180	1301.709473	6392.634277	1681.916382	7.468327
679.001221	1291.455688	6464.484863	1685.705933	7.621264
679.330139	1298.440063	6551.642090	1687.340454	7.403111
679.659058	1293.090210	6605.065918	1699.600464	7.652713
679.987976	1294.650635	6683.009277	1710.894531	7.724874
680.316772	1284.099609	6731.306152	1713.420776	7.881492
680.645630	1290.340942	6760.283691	1715.278320	7.768589
680.974304	1298.217163	6729.894531	1714.089355	7.656423
681.302979	1306.613281	6669.783691	1712.454712	7.567193
681.631653	1311.145874	6606.626465	1714.981079	7.626035
681.960266	1306.316040	6548.521973	1713.866577	7.774409
682.288757	1297.399780	6495.470215	1713.940796	8.013378
682.617249	1294.056152	6427.185059	1710.225708	8.107522
682.945679	1295.839478	6358.381348	1706.882202	8.119295
683.274109	1303.566895	6248.933105	1698.857422	7.993150
683.602478	1302.526733	6152.042480	1691.575684	8.022429
683.930725	1300.297485	6031.820313	1683.922485	8.107855
684.259033	1295.839478	5969.851563	1687.934937	8.388841
684.587280	1295.467896	5901.493652	1685.780151	8.473948
684.915344	1290.563843	5870.583496	1688.306519	8.684300
685.243469	1292.867310	5831.128906	1687.414673	8.693799
685.571533	1292.124268	5808.689941	1689.197876	8.791494
685.899536	1296.879761	5779.042969	1688.009277	8.726357
686.227539	1296.062378	5762.398438	1685.780151	8.725671
686.555420	1295.913696	5738.324707	1684.739868	8.752593
686.883301	1300.817627	5744.714844	1690.906860	8.778088
687.211121	1296.062134	5768.714355	1698.857422	9.005736
687.538940	1299.034424	5812.553223	1704.801758	8.990045
687.866638	1298.588745	5836.998535	1711.340332	9.094630
688.194336	1302.303711	5807.128906	1708.665405	9.020587
688.521973	1301.635132	5763.661621	1713.866577	9.238660
688.849609	1297.399780	5715.067871	1706.361938	9.257421
689.177063	1295.765137	5669.743652	1702.572632	9.300629
689.504578	1288.037598	5607.478027	1693.656250	9.390537
689.832031	1287.220337	5541.125488	1684.591309	9.341322
690.159485	1295.393677	5482.351563	1674.040405	9.043481
690.486816	1305.350220	5434.129395	1666.312866	8.742599
690.814087	1307.802124	5398.166992	1675.303589	8.984565
691.141296	1305.350220	5364.879395	1682.510864	9.290749
691.468506	1299.331665	5329.214355	1688.455078	9.655949
691.795715	1301.635132	5270.960938	1679.538696	9.520598
692.122803	1298.811523	5214.639160	1676.640991	9.648777
692.449829	1307.207764	5199.035645	1669.730835	9.314982
692.776855	1305.424561	5162.255859	1674.263184	9.563255
693.103821	1307.579224	5129.637207	1685.631470	9.891327
693.430664	1298.142822	5068.560547	1687.489136	10.326344
693.757568	1291.827026	5057.117676	1680.504517	10.322642
694.084351	1292.050049	5049.910156	1670.696655	10.076123
694.411133	1300.371948	5047.458008	1669.953735	9.863179
694.737854	1303.641235	5035.197754	1680.727539	10.105335
695.064575	1293.090210	5049.241699	1683.848267	10.403150
695.391174	1287.443237	5073.389648	1692.467407	10.698096
695.717773	1291.158325	5109.798340	1690.461304	10.456680
696.044250	1299.628906	5140.113770	1699.303223	10.406871
696.370789	1302.006470	5206.391602	1709.779907	10.443986
696.697205	1312.928955	5291.914063	1718.027344	10.180947
697.023621	1311.442993	5418.080566	1726.795288	10.114169
697.349915	1300.743286	5559.626953	1738.386353	10.276004
697.676208	1289.078003	5744.789063	1764.169556	10.662531
698.002380	1291.381226	5938.050781	1794.633667	10.830390
698.328674	1301.114868	6130.346191	1816.478638	10.671756
698.654724	1301.263550	6263.125000	1837.506348	10.807291
698.980896	1299.108765	6362.244629	1846.348267	10.808311
699.306946	1300.446167	6374.652832	1848.948853	10.809625
699.632935	1309.213867	6307.781250	1836.094360	10.540630
699.958862	1308.470825	6165.862793	1817.221558	10.473742
700.284729	1309.659790	5985.010254	1810.682983	10.716270
700.610596	1305.201538	5796.207031	1801.172241	11.043645
700.936340	1307.282104	5604.431152	1790.918579	11.254823
701.262146	1304.532715	5444.011719	1770.782593	11.263492
701.587830	1300.669067	5306.625977	1762.014771	11.516492
701.913513	1301.040649	5179.865723	1756.516479	11.742623
702.239075	1300.074707	5057.489746	1745.965454	11.866955
702.564697	1293.238892	4951.905273	1731.550781	11.980100
702.890137	1284.693970	4858.283691	1716.764282	12.090652
703.215698	1285.585693	4771.275391	1712.380493	12.244200
703.541016	1291.529907	4710.420898	1702.795532	12.029211
703.866455	1299.257324	4677.950684	1695.811035	11.736896
704.191711	1301.932129	4653.059570	1695.588257	11.746976
704.517029	1304.532837	4603.796875	1694.027832	11.805511
704.842163	1309.956909	4551.413574	1696.256958	11.917483
705.167419	1306.836182	4518.125488	1700.640747	12.263129
705.492493	1299.777466	4509.283691	1707.105103	12.691286
705.817566	1296.805298	4501.778809	1702.052368	12.644319
706.142578	1305.573120	4493.159668	1689.049438	12.030303
706.467590	1310.402710	4501.778809	1690.535522	11.911251
706.792480	1307.282104	4499.475098	1700.789429	12.327179
707.117371	1297.102661	4499.178711	1705.544556	12.755533
707.442200	1296.953979	4493.383301	1712.529175	13.001232
707.766907	1290.712524	4496.132324	1709.111206	13.052851
708.091675	1286.625977	4486.472656	1720.702515	13.565542
708.416321	1284.916870	4498.212402	1713.940796	13.351524
708.741028	1291.009766	4504.379395	1717.210327	13.263353
709.065552	1297.176758	4551.041504	1708.070923	12.627881
709.390137	1299.406006	4567.388184	1713.420776	12.668819
709.714600	1290.118164	4598.224121	1719.216309	12.971112
710.039063	1294.056274	4623.486816	1726.943726	13.001846
710.363403	1301.263550	4657.888672	1734.002563	12.892087
710.687744	1310.922852	4718.520020	1744.776489	12.731952
711.012085	1308.396606	4753.813965	1752.058105	12.876858
711.336304	1301.412231	4791.336426	1762.460571	13.210840
711.660461	1309.288208	4793.862793	1773.234375	13.314283
711.984619	1307.356323	4786.655762	1780.664673	13.603554
712.308716	1309.213989	4760.055176	1782.893921	13.726506
712.632751	1306.316040	4728.030762	1768.033325	13.493739
712.956726	1311.145874	4689.690918	1758.596680	13.243891
713.280701	1305.275757	4635.152344	1748.268555	13.303580
713.604553	1298.588501	4583.660645	1751.315063	13.781327
713.928467	1296.433716	4532.391602	1753.618530	14.128268
714.252258	1303.269653	4502.744629	1753.841309	14.082674
714.575989	1299.182983	4486.249512	1745.296509	13.997622
714.899719	1290.638184	4483.872070	1750.943726	14.415028
715.223267	1283.208008	4506.683105	1753.767090	14.597881
715.546936	1286.031616	4529.939941	1764.169556	14.739565
715.870422	1294.947876	4550.298340	1765.655640	14.459511
716.193970	1297.845581	4524.664063	1763.277954	14.423879
716.517395	1302.378052	4483.426270	1762.386353	14.460902
716.840820	1306.761841	4442.560059	1752.355469	14.209894
717.164124	1304.978638	4392.925781	1744.776489	14.242402
717.487488	1302.600952	4356.145996	1740.095337	14.327426
717.810730	1289.895142	4301.310059	1728.132813	14.552549
718.133972	1293.164429	4263.118652	1732.293579	14.785722
718.457092	1297.474121	4200.704590	1726.126465	14.764668
718.780212	1301.486450	4138.215332	1721.891235	14.820054
719.103210	1305.127319	4083.157471	1703.761353	14.349521
719.426208	1299.703247	4021.337646	1692.393066	14.428456
719.749207	1304.012695	3973.115234	1695.513794	14.667892
720.072083	1298.960083	3922.589111	1695.736694	15.123199
720.394958	1298.514282	3888.632813	1690.461304	15.132397
720.717773	1297.473999	3855.047852	1682.287964	15.046056
721.040527	1299.926147	3825.475586	1676.194946	14.898494
721.363281	1301.412231	3821.537842	1686.151733	15.266681
721.685913	1310.551392	3812.695557	1690.015625	15.165563
722.008545	1308.693848	3795.382813	1699.451782	15.713985
722.331055	1311.517334	3765.141846	1693.507690	15.568411
722.653503	1298.217163	3754.293701	1693.879028	16.109509
722.976013	1293.684692	3765.661865	1685.482910	15.849589
723.298401	1293.387451	3768.708252	1688.752319	15.972268
723.620789	1297.697021	3757.488525	1687.340454	15.840507
723.943115	1304.012817	3746.491943	1693.656250	15.952785
724.265381	1302.080933	3740.993408	1692.838867	16.021811
724.587585	1287.443237	3750.132813	1694.845093	16.542965
724.909790	1287.963379	3760.014893	1690.907104	16.299973
725.231873	1284.025269	3772.423584	1693.433228	16.452669
725.553894	1293.981934	3774.132080	1703.018433	16.492409
725.875916	1319.319214	3797.686279	1742.547485	17.076899
726.197937	1320.879517	3794.268555	1748.045898	17.270489
726.519775	1320.062256	3801.253174	1746.336914	17.180244
726.841675	1295.988159	3798.355225	1714.460938	16.723076
727.163513	1295.319458	3836.323975	1718.993286	16.673479
727.485291	1299.183228	3878.230469	1729.841431	16.698343
727.806946	1301.783691	3913.078369	1742.175781	16.864895
728.128662	1303.938354	3927.344727	1745.668091	16.838022
728.450256	1305.944458	3940.496338	1745.148071	16.670904
728.771790	1301.114868	3929.128174	1747.674438	16.992289
729.093323	1302.749634	3913.598877	1736.603149	16.617334
729.414795	1301.858032	3891.382080	1741.655884	16.983734
729.736145	1303.046997	3885.586670	1730.287476	16.543425
730.057495	1306.241821	3898.440674	1735.340210	16.553453
730.378845	1302.229614	3899.183838	1730.807617	16.503103
730.700134	1303.121216	3911.072510	1734.819824	16.553171
731.021301	1295.765259	3925.412842	1745.370972	17.097567
731.342468	1298.588745	3958.328857	1741.284302	16.644316
731.663574	1293.684692	3978.985107	1751.761108	17.058666
731.984680	1300.669189	3982.922852	1752.949707	16.861959
732.305664	1304.532837	3995.628906	1759.934204	16.922523
732.626648	1309.882690	3994.440186	1760.157227	16.772764
732.947571	1305.201538	3982.848877	1767.810181	17.276682
733.268433	1301.040649	3949.858398	1770.411011	17.719994
733.589233	1295.393677	3925.487061	1765.506958	17.874395
733.909973	1300.074707	3903.790771	1762.980835	17.778671
734.230713	1302.229492	3866.639404	1760.157227	17.857040
734.551331	1307.059204	3805.264893	1755.179077	17.937670
734.871948	1301.263550	3752.436279	1736.974609	17.775616
735.192505	1301.263672	3713.501221	1721.148071	17.406427
735.513062	1295.393677	3683.557373	1716.467163	17.631685
735.833435	1294.650513	3649.080811	1716.318481	17.909555
736.153931	1290.638306	3606.654053	1713.049316	18.238695
736.474304	1290.341064	3581.019531	1717.358765	18.641539
736.794617	1292.867310	3561.477783	1713.197876	18.528107
737.114807	1297.028320	3564.301514	1710.299927	18.227694
737.434998	1301.634888	3574.778076	1699.080200	17.484394
737.755188	1305.944580	3581.688232	1695.216675	17.105270
738.075256	1302.972534	3594.839844	1710.671509	17.788944
738.395325	1309.659668	3619.879639	1718.250488	17.686230
738.715271	1308.693848	3657.031250	1739.946899	18.364185
739.035278	1309.956909	3666.690674	1740.318359	18.260927
739.355164	1308.693848	3662.529541	1743.290405	18.463335
739.675049	1312.409058	3639.867432	1725.977905	17.769117
739.994873	1313.077759	3630.059570	1718.770508	17.509535
740.314636	1302.452393	3601.156006	1716.392944	18.007565
740.634277	1292.644409	3571.211914	1719.216431	18.721062
740.953979	1292.570190	3533.614502	1717.061646	18.941679
741.273499	1289.672363	3497.577881	1711.340332	19.098099
741.593140	1292.421509	3462.803955	1702.498413	18.894224
741.912598	1289.895142	3435.534912	1693.730591	18.821215
742.232117	1297.771362	3403.213135	1685.111694	18.397104
742.551453	1297.474121	3387.014893	1684.442749	18.519314
742.870850	1303.641235	3365.615967	1685.185669	18.503838
743.190063	1303.641235	3349.492188	1687.191895	18.747732
743.509338	1307.059082	3325.046875	1690.906860	19.021313
743.828552	1306.241821	3306.173828	1692.021606	19.289644
744.147705	1305.498779	3298.891846	1693.210449	19.449835
744.466797	1301.189209	3277.344482	1686.969116	19.521740
744.785828	1301.783569	3253.270264	1684.145508	19.593367
745.104858	1303.641235	3225.778320	1681.693481	19.668329
745.423706	1304.012695	3214.707031	1681.024780	19.731680
745.742615	1302.229614	3213.147217	1672.851563	19.394972
746.061401	1306.910645	3208.465820	1673.668823	19.287275
746.380249	1304.904419	3211.957764	1674.040405	19.356354
746.698975	1308.471069	3205.270508	1673.000000	19.218105
747.017639	1301.858032	3213.964111	1672.479858	19.382912
747.336304	1300.223267	3203.858643	1675.897827	19.734587
747.654907	1293.610352	3196.577393	1683.699707	20.499008
747.973389	1292.570068	3173.915039	1681.396362	20.667463
748.291931	1301.560669	3181.940186	1676.863892	19.958908
748.610352	1300.000366	3190.187500	1673.891602	19.780647
748.928711	1303.195557	3205.047852	1667.798828	19.170956
749.247070	1297.325562	3202.595703	1673.148804	19.725456
749.565308	1299.926147	3199.326416	1675.229126	19.759026
749.883545	1300.966431	3183.648682	1685.334351	20.415974
750.201782	1298.737305	3168.342529	1672.925781	20.014305
750.519836	1297.994263	3154.150391	1662.300415	19.626913
750.837952	1293.610352	3146.348877	1664.306641	20.008020
751.155884	1304.384155	3139.141357	1671.811157	20.025919
751.473877	1304.830078	3130.670654	1677.383911	20.404510
751.791809	1309.808472	3133.122803	1674.411987	19.996744
752.109619	1302.229492	3115.736328	1678.944336	20.772728
752.427490	1300.149048	3111.575195	1692.764648	21.674393
752.745300	1297.994263	3119.822510	1687.340454	21.371180
753.062988	1292.718750	3135.054688	1684.516968	21.266382
753.380615	1295.170776	3137.580811	1668.616333	20.269405
753.698303	1299.034546	3119.748047	1671.514038	20.457886
754.015808	1305.350220	3120.119873	1672.628540	20.238289
754.333374	1302.080933	3129.630615	1689.941040	21.222958
754.650757	1295.467896	3134.014648	1691.575684	21.544613
754.968262	1294.204712	3131.042236	1690.758423	21.588938
755.285583	1299.777466	3116.776123	1683.328125	21.109022
755.602905	1305.052856	3100.578369	1679.166992	20.835913
755.920105	1309.139526	3086.386475	1676.120728	20.648859
756.237305	1306.018921	3087.055420	1667.204468	20.279514
756.554443	1298.960083	3094.188232	1672.628540	20.814539
756.871582	1289.449341	3099.612305	1673.966187	21.242111
757.188599	1293.238892	3104.962158	1685.408569	21.646225
757.505615	1295.765015	3107.562500	1682.733765	21.358278
757.822510	1300.149048	3124.949463	1682.436523	20.949551
758.139465	1292.941650	3150.435547	1683.253906	21.012842
758.456238	1294.130493	3182.459961	1692.170288	21.078938
758.773010	1295.170654	3209.283203	1701.012207	21.202597
759.089783	1297.325439	3211.809326	1700.863647	21.078173
759.406433	1298.811523	3235.214844	1696.776855	20.551779
759.723145	1303.418335	3237.740967	1700.937988	20.550846
760.039673	1304.087036	3250.892578	1703.984375	20.541206
760.356201	1298.662964	3251.635498	1721.296875	21.640545
760.672668	1296.953979	3257.505859	1725.606445	21.863867
760.989136	1305.275757	3254.087646	1721.519897	21.358868
761.305481	1306.464722	3237.889893	1712.454712	21.020229
761.621826	1305.573120	3239.821533	1712.454712	21.035643
761.938049	1304.607178	3259.735107	1724.491821	21.476070
762.254333	1305.127319	3301.492920	1736.008789	21.583294
762.570496	1303.343994	3361.529297	1748.640259	21.635382
762.886597	1298.440063	3472.760498	1776.875366	22.003902
763.202637	1297.399780	3645.588867	1806.744995	21.690981
763.518677	1299.331787	3874.292236	1853.704224	21.529358
763.834656	1303.121216	4080.111328	1910.174316	21.860109
764.150574	1306.093262	4218.313965	1944.427734	21.919165
764.466370	1306.687622	4241.050781	1948.291626	21.865187
764.782288	1301.932129	4169.868652	1923.400269	21.669521
765.097961	1305.647461	4025.795898	1898.360352	21.789726
765.413696	1306.464722	3853.710693	1864.181030	21.894873
765.729309	1308.173706	3679.619385	1829.481812	21.982712
766.044861	1306.613403	3526.778564	1797.977417	22.131868
766.360474	1302.155273	3415.993164	1777.469727	22.485851
766.675903	1297.176880	3327.647217	1755.624634	22.578402
766.991394	1300.297607	3279.870361	1742.101563	22.318148
767.306763	1304.532837	3223.772217	1731.401978	22.241579
767.622131	1304.681519	3190.707275	1723.451660	22.203840
767.937378	1296.656738	3140.033203	1713.866699	22.632923
768.252625	1289.523804	3112.318359	1709.482788	23.039293
768.567810	1288.557739	3065.135986	1703.909790	23.379328
768.882996	1294.204712	3038.461182	1691.055664	22.751869
769.197998	1299.554565	3002.572998	1674.411743	22.011339
769.513062	1311.294434	2986.523682	1670.102173	21.418427
769.828064	1314.118042	2971.217529	1668.467651	21.383726
770.142944	1310.848511	2955.019287	1670.993774	21.904371
770.457825	1304.087036	2946.028564	1658.288086	21.572086
770.772705	1299.034424	2925.892578	1664.529419	22.466311
771.087402	1303.269653	2905.682373	1656.430664	22.039330
771.402100	1301.486450	2869.422607	1654.275757	22.500235
771.716736	1298.885864	2836.431885	1644.616577	22.485878
772.031372	1296.211060	2814.290039	1649.966187	23.302814
772.345947	1298.514282	2811.689453	1653.607056	23.466732
772.660461	1296.731079	2807.156982	1656.727661	23.834110
772.974854	1296.210938	2792.816406	1649.966187	23.637175
773.289246	1293.164551	2776.395264	1651.972290	24.190960
773.603638	1295.393677	2765.398438	1641.347046	23.534166
773.917908	1305.647461	2758.191406	1646.028198	23.433420
774.232178	1308.470825	2748.234619	1644.170532	23.316305
774.546265	1313.597900	2737.312256	1639.043579	22.858917
774.860474	1303.567017	2733.745361	1624.554688	22.443892
775.174561	1297.771362	2726.984131	1613.483521	22.089933
775.488586	1289.672363	2718.810791	1617.570313	22.943750
775.802551	1293.907593	2712.718262	1624.777710	23.320244
776.116516	1296.211060	2706.328369	1629.830200	23.658964
776.430359	1298.068481	2691.690430	1631.093262	23.896351
776.744202	1295.839478	2674.303711	1630.276001	24.261530
777.057922	1295.319214	2670.588135	1628.269897	24.209860
777.371704	1296.433838	2674.972168	1614.375366	23.063669
777.685303	1293.684692	2679.950439	1611.328735	22.913647
777.998962	1298.737305	2666.055908	1604.344360	22.350830
778.312500	1300.371948	2658.105469	1612.220337	22.968306
778.626038	1310.254272	2646.811523	1613.260742	22.670670
778.939453	1307.207764	2647.628906	1619.873657	23.325945
779.252869	1310.997070	2645.771240	1624.703491	23.502584
779.566223	1303.046875	2643.839600	1624.406128	23.967855
779.879578	1306.836304	2654.613525	1622.919922	23.452215
780.192749	1308.396606	2663.678223	1622.771484	23.196278
780.505920	1311.740234	2669.325195	1618.759155	22.615080
780.819031	1304.012817	2646.513916	1616.232788	23.256590
781.132141	1296.731079	2621.920166	1611.774780	23.773491
781.445190	1294.799194	2600.298096	1611.477417	24.257257
781.758118	1298.662964	2597.400146	1618.090332	24.595228
782.071045	1298.365845	2588.335205	1615.415405	24.578070
782.383911	1294.576294	2574.663574	1614.152222	24.965166
782.696838	1301.560913	2550.960938	1601.817993	24.032101
783.009583	1298.068481	2536.917725	1596.022461	24.050867
783.322266	1303.343994	2530.824951	1594.239258	23.698557
783.634888	1293.313110	2525.401123	1599.960571	24.888437
783.947510	1292.718628	2527.184326	1609.099731	25.628990
784.260132	1291.901367	2521.314209	1608.505371	25.752457
784.572571	1293.461670	2521.016846	1604.790161	25.361670
784.885010	1297.251221	2501.624023	1597.359863	24.918251
785.197449	1301.263550	2487.506348	1596.616821	24.898214
785.509766	1301.040649	2482.008057	1589.929688	24.462067
785.822083	1300.371948	2490.627197	1591.861450	24.489664
786.134277	1299.703247	2492.781982	1587.031860	24.082954
786.446533	1301.783691	2497.314697	1586.883301	23.847111
786.758606	1308.768188	2504.150391	1585.545898	23.153910
787.070740	1301.189331	2513.586914	1588.146484	23.668568
787.382690	1297.325562	2515.147217	1587.403320	23.819395
787.694641	1293.313232	2525.549561	1587.180298	23.848272
788.006653	1295.839478	2550.738037	1594.759155	23.820227
788.318481	1304.384277	2595.542725	1609.173828	23.605898
788.630310	1308.916870	2633.362549	1622.994263	23.713875
788.942017	1304.681519	2660.706299	1632.356445	24.164375
789.253784	1305.721802	2659.368896	1638.375000	24.574589
789.565430	1297.697021	2652.532715	1635.774414	24.953386
789.877014	1299.926147	2632.025146	1620.765259	24.085230
790.188538	1297.919922	2607.431152	1607.762329	23.660921
790.500061	1293.981812	2564.855713	1599.663208	24.052851
790.811462	1299.405884	2526.515381	1602.338257	24.686663
791.122925	1289.003418	2499.543457	1595.502441	25.319197
791.434204	1296.359497	2481.190674	1585.991577	24.445009
791.745483	1292.347168	2466.627441	1572.542603	23.861036
792.056702	1301.783569	2453.698730	1573.359985	23.576078
792.367920	1302.378052	2450.355225	1580.567505	24.233013
792.678955	1302.303833	2439.729736	1584.431274	24.804028
792.990112	1299.926147	2427.767090	1581.607788	24.975298
793.301086	1298.960083	2410.603271	1567.267212	24.136084
793.612122	1299.703247	2410.454346	1573.880249	24.683928
793.922974	1295.319336	2401.984131	1570.685181	24.882498
794.233826	1297.474243	2405.327881	1583.093750	25.781340
794.544556	1298.440063	2406.665283	1577.966919	25.222929
794.855286	1300.966431	2411.271973	1577.818359	24.934752
795.166016	1296.731079	2403.024414	1570.982422	24.790112
795.476624	1297.771362	2410.528809	1577.372437	25.126865
795.787292	1302.155151	2434.899902	1576.257935	24.198107
796.097778	1305.721802	2477.104004	1581.830688	23.571203
796.408264	1305.796021	2510.837646	1584.134155	23.097803
796.718689	1301.040649	2516.856201	1594.462036	24.133709
797.029053	1296.656738	2505.785156	1597.434204	24.875561
797.339355	1291.827148	2490.627441	1591.415649	24.990692
797.649658	1295.765137	2481.562256	1593.421875	25.101828
797.959839	1299.257446	2466.701904	1593.347534	25.190928
798.270020	1299.926147	2449.389404	1588.963745	25.145441
798.580078	1296.656860	2433.339844	1579.453003	24.879068
798.890137	1303.195435	2424.349121	1570.982422	23.884949
799.200195	1303.938477	2398.566162	1574.548950	24.721691
799.510071	1310.551392	2389.129639	1573.211548	24.352444
799.820007	1305.498779	2380.361816	1572.171265	24.809904
800.129883	1299.554565	2386.529053	1566.970093	24.601822
800.439575	1298.960083	2375.680908	1563.477905	24.566982
800.749329	1295.244995	2364.312500	1563.254883	25.069500
801.058960	1304.161255	2352.647217	1553.224121	23.754526
801.368591	1298.960083	2337.043701	1553.447144	24.515083
801.678162	1300.074585	2329.984863	1552.852539	24.543688
801.987671	1300.743286	2309.997314	1550.846313	24.780979
802.297119	1294.353394	2305.464600	1551.143555	25.396826
802.606506	1291.455444	2296.697021	1546.462524	25.367741
802.915894	1284.471069	2295.953857	1554.933105	26.739164
803.225159	1289.523682	2289.043701	1544.456421	25.505516
803.534424	1294.576294	2276.932373	1544.604858	25.451929
803.843628	1301.263428	2277.452637	1537.546265	24.204615
804.152771	1306.613281	2283.916992	1548.988770	24.800426
804.461792	1309.659668	2285.997559	1552.109741	24.832600
804.770874	1307.356323	2291.421631	1552.629517	24.924484
805.079773	1307.876465	2288.375244	1553.149780	25.015158
805.388733	1302.155273	2296.474121	1552.109497	25.138237
805.697571	1298.885864	2297.811523	1553.892944	25.528133
806.006470	1294.502075	2307.099365	1557.533569	25.975924
806.315125	1296.656860	2322.182861	1552.183716	24.916662
806.623901	1304.681396	2334.442871	1555.824585	24.388481
806.932495	1307.504883	2334.368408	1549.508911	23.567303
807.241150	1307.430542	2324.040771	1548.988892	23.761156
807.549622	1307.950806	2303.012939	1545.199341	23.842585
807.858154	1313.969360	2296.102783	1544.382202	23.460442
808.166565	1312.631958	2289.712646	1551.366577	24.433460
808.474915	1309.659790	2281.167969	1547.948608	24.527721
808.783264	1304.830078	2264.672607	1539.998169	24.500694
809.091492	1307.430664	2249.440430	1534.202515	24.073195
809.399719	1310.477051	2237.923584	1530.338867	23.706144
809.707825	1305.127319	2233.242432	1534.871460	24.753841
810.015930	1298.662964	2214.295166	1532.419434	25.529516
810.323975	1290.118164	2208.722900	1530.041626	26.118248
810.632080	1291.901367	2193.565186	1528.555542	26.246387
810.939880	1291.455566	2193.044922	1528.629883	26.306246
811.247864	1295.096313	2179.224365	1535.465698	27.187168
811.555664	1295.467896	2176.177979	1530.041626	26.634613
811.863464	1298.811523	2169.862305	1520.233765	25.420130
812.171143	1301.189331	2163.769531	1510.500000	24.265648
812.478882	1302.155151	2164.809814	1507.527832	23.807056
812.786438	1303.938477	2165.924561	1506.561890	23.506577
813.094055	1301.783691	2172.685791	1516.444336	24.648079
813.401489	1296.359619	2172.983154	1512.654907	24.673679
813.708984	1295.542358	2164.884277	1523.577271	26.230751
814.016357	1295.319336	2155.076416	1519.564819	26.082424
814.323730	1296.731079	2138.135498	1524.468750	27.066374
814.630981	1297.994263	2137.986572	1515.775391	25.926561
814.938232	1301.783691	2136.946289	1514.586548	25.480410
815.245361	1302.006470	2129.887451	1515.032593	25.731491
815.552490	1293.684692	2124.092041	1515.106812	26.664278
815.859619	1293.610474	2132.933838	1514.586548	26.327883
816.166565	1299.851929	2139.472412	1515.701172	25.707954
816.473572	1309.288208	2139.695557	1513.397827	24.579456
816.780457	1310.476929	2131.893799	1514.735352	24.866596
817.087341	1314.192139	2140.438477	1518.153198	24.685261
817.394043	1311.071411	2149.652100	1522.239868	25.181650
817.700806	1304.161255	2150.989258	1521.719727	25.690987
818.007507	1294.873535	2151.955322	1518.673340	26.111837
818.314209	1296.359497	2152.178467	1530.413086	27.348494
818.620667	1298.514282	2166.295898	1541.187012	27.964724
818.927246	1296.879639	2183.088135	1549.137329	28.464825
819.233704	1298.514282	2220.611084	1550.995117	27.381165
819.540161	1301.114868	2263.186523	1553.669922	26.251169
819.846497	1302.526733	2330.504883	1565.632690	25.594509
820.152832	1299.405884	2405.327881	1577.892578	25.181404
820.458984	1297.474121	2488.769775	1600.852051	25.466217
820.765259	1300.520508	2584.917236	1631.984985	25.807016
821.071350	1306.390503	2691.318848	1660.220093	25.548584
821.377502	1307.727783	2864.369873	1695.885254	24.935564
821.683472	1307.281982	3196.948975	1771.005371	24.539953
821.989441	1308.842407	3840.335938	1937.963501	24.851774
822.295349	1308.693848	4899.446777	2197.502930	24.752722
822.601196	1309.065430	6195.286621	2508.831543	24.554070
822.907043	1299.703247	7383.609863	2806.116943	24.760632
823.212769	1301.560913	8059.318848	2990.981689	24.999723
823.518494	1304.532837	8059.689941	3010.449219	25.253540
823.824097	1308.099487	7471.287109	2863.849609	25.242622
824.129700	1303.418335	6526.082031	2625.932617	25.322601
824.435242	1291.604248	5549.075684	2371.965820	25.375660
824.740723	1288.632080	4726.693359	2162.135010	25.406845
825.046082	1294.650513	4120.977539	2021.479858	25.716391
825.351501	1305.795898	3688.832764	1923.623169	25.926048
825.656799	1303.418335	3396.749023	1861.431763	26.656727
825.962036	1299.257324	3225.481201	1809.345581	26.481255
826.267212	1291.752808	3147.612061	1796.416870	27.193014
826.572449	1297.028198	3159.871826	1793.370483	26.644335
826.877502	1298.291382	3299.337891	1836.168945	26.879812
827.182495	1309.734131	3570.617188	1903.338501	26.255421
827.487488	1306.984985	3913.969971	1985.888794	26.041725
827.792419	1302.823853	4204.791016	2047.857422	25.673397
828.097290	1296.136719	4306.214355	2071.411377	25.755968
828.402100	1297.771362	4182.648438	2041.913208	25.794579
828.706848	1305.275879	3897.697998	1960.848999	25.288055
829.011597	1301.932251	3524.846924	1864.552734	25.310036
829.316223	1304.607300	3176.367188	1773.457397	25.048624
829.620789	1302.080933	2860.803467	1708.516724	26.074928
829.925354	1307.653564	2643.616455	1650.857788	25.689653
830.229797	1305.053101	2488.249268	1619.130493	26.544828
830.534302	1302.155151	2384.820313	1583.168091	25.955666
830.838562	1295.839478	2308.214111	1562.140259	26.304569
831.142944	1299.628906	2245.577148	1537.992065	25.198330
831.447144	1299.777466	2216.747559	1524.988892	24.560389
831.751404	1305.498901	2191.335938	1522.462769	24.492527
832.055542	1302.972534	2184.351318	1520.456543	24.675430
832.359619	1297.920044	2190.072754	1524.840454	25.435154
832.663635	1295.988159	2217.713379	1524.394531	24.780310
832.967651	1295.096558	2268.239258	1541.558594	25.326403
833.271545	1297.994263	2358.442627	1574.474609	26.072023
833.575439	1305.201660	2516.855957	1618.759155	25.878462
833.879211	1303.343994	2742.439453	1677.235229	25.980989
834.183044	1310.477051	2987.638428	1735.785767	25.358843
834.486694	1304.978638	3179.561768	1789.506714	25.847244
834.790344	1314.118042	3242.719482	1799.463379	25.165663
835.093933	1306.984985	3161.580811	1781.779297	25.600958
835.397522	1311.220215	2991.798828	1729.172974	24.869576
835.700928	1309.659790	2796.977295	1684.962769	25.233547
836.004395	1311.220093	2613.301025	1637.037598	25.022831
836.307739	1304.309937	2455.259033	1596.691040	25.403479
836.611023	1302.303711	2330.727783	1560.728516	25.128233
836.914307	1304.681519	2233.242432	1543.193237	25.686169
837.217529	1304.309937	2160.500000	1528.332642	26.165068
837.520691	1299.406128	2098.828857	1524.766235	28.190355
837.823730	1293.907593	2056.550781	1503.366821	27.464905
838.126831	1296.062378	2018.284790	1495.193726	27.572025
838.429749	1300.817749	1991.238647	1476.766602	25.484289
838.732727	1302.972534	1968.576294	1476.692261	26.099571
839.035522	1303.789917	1949.852051	1473.497192	26.267950
839.338379	1301.263550	1932.688110	1471.713867	26.994566
839.641113	1299.554565	1933.059570	1470.302368	26.952873
839.943848	1301.635132	1967.610352	1477.732544	26.442038
840.246460	1300.297485	2026.161011	1486.351685	25.632118
840.549072	1305.573120	2085.231689	1502.549683	25.264465
840.851563	1303.269653	2117.032959	1510.054199	25.410896
841.154053	1305.052979	2116.587158	1514.958130	25.865227
841.456482	1302.452393	2082.556641	1498.240112	25.097635
841.758850	1301.040649	2028.612915	1489.695313	25.929337
842.061157	1299.405884	1975.114868	1474.909058	25.973188
842.363403	1304.309937	1924.068848	1459.899780	25.104898
842.665588	1295.690796	1883.499634	1449.348999	26.140846
842.967712	1294.130493	1843.673462	1443.850464	27.244452
843.269775	1292.867310	1815.735718	1441.249878	28.378569
843.571777	1297.325562	1802.063965	1426.314941	25.555689
843.873840	1301.040649	1792.553101	1418.661743	23.930441
844.175659	1302.006470	1782.002075	1414.649414	23.467495
844.477600	1303.121094	1762.832031	1422.971558	26.070831
844.779297	1307.505005	1752.726929	1424.754761	26.335127
845.081116	1308.693726	1741.804565	1424.011719	26.625515
845.382751	1310.922852	1737.197754	1415.466797	24.525005
845.684387	1305.201538	1726.721069	1409.374023	24.713560
845.985962	1301.932251	1722.634399	1404.544312	24.390667
846.287537	1299.926147	1712.826294	1406.921997	25.913250
846.588989	1300.149048	1700.640625	1413.088989	28.200329
846.890381	1291.529907	1691.873047	1412.791992	30.289537
847.191711	1296.433960	1685.780151	1404.098511	27.652653
847.493042	1295.468018	1681.693359	1398.674438	26.721815
847.794250	1300.000366	1677.978394	1402.166626	27.029682
848.095459	1300.074707	1677.012329	1400.606079	26.670559
848.396606	1303.789795	1673.891602	1398.377075	25.557098
848.697693	1316.792725	1668.541870	1397.336914	22.898191
848.998657	1314.860962	1663.712280	1399.417480	24.238556
849.299622	1319.021851	1668.690430	1400.829224	23.395689
849.600464	1313.523560	1672.479980	1394.067749	22.438431
849.901367	1310.848633	1675.229126	1393.919312	22.797785
850.202087	1300.297607	1663.340698	1387.083374	23.905087
850.502808	1289.746582	1652.715454	1390.575562	27.778961
850.803467	1295.244995	1643.799194	1387.306030	26.412258
851.104065	1303.789795	1644.690796	1387.751953	24.629484
851.404663	1307.207642	1640.901245	1386.340210	23.714140
851.705139	1298.439941	1640.901367	1378.687012	23.432440
852.005615	1296.285278	1631.910645	1378.984253	24.640263
852.306030	1293.758911	1635.625610	1383.219360	26.168226
852.606384	1295.913696	1629.681519	1388.420532	27.715923
852.906616	1290.563965	1634.511230	1394.662109	30.265728
853.206909	1298.811523	1637.929199	1393.993286	28.067472
853.506958	1305.052979	1636.517456	1386.711548	24.635693
853.807129	1308.025024	1638.077759	1378.687012	21.409302
854.107178	1304.978638	1631.390503	1369.250488	19.690414
854.407166	1299.703125	1634.882813	1372.222656	21.636017
854.707092	1295.765015	1622.919922	1369.027710	22.393885
855.007019	1297.919800	1618.759155	1376.160767	24.386337
855.306763	1299.480225	1610.660034	1386.786011	28.056379
855.606567	1307.282104	1613.483398	1387.603149	26.231451
855.906250	1305.424438	1612.591919	1380.098633	24.310579
856.205933	1302.749634	1610.065552	1369.844849	21.832651
856.505493	1300.371948	1614.300903	1372.371216	22.934893
856.805054	1304.087036	1613.260742	1374.600220	22.806980
857.104492	1301.486450	1613.557983	1380.247437	25.238119
857.403931	1297.548462	1609.619995	1379.355835	26.214302
857.703308	1289.969604	1602.338257	1375.269043	27.307299
858.002563	1289.077881	1605.013062	1369.696289	25.517389
858.301819	1289.449463	1601.297852	1371.182251	26.209143
858.601013	1288.186401	1606.499023	1376.458008	27.731104
858.900208	1297.399902	1601.743774	1377.943970	26.464823
859.199219	1297.102661	1605.458984	1379.430054	26.698786
859.498291	1301.932251	1602.041016	1379.504395	25.848009
859.797302	1302.229492	1600.257690	1377.201050	25.155861
860.096191	1307.579224	1603.378418	1378.018188	23.813103
860.395020	1300.966309	1605.310181	1379.207031	25.708000
860.693787	1293.610352	1603.601196	1383.442383	28.978930
860.992554	1288.334839	1593.124634	1383.516602	31.228659
861.291260	1296.656860	1594.313477	1378.761353	27.583628
861.589844	1303.269653	1598.325806	1365.981079	21.254065
861.888428	1304.309937	1593.867676	1361.002930	19.579166
862.186890	1306.464722	1593.867676	1369.176147	21.820036
862.485413	1304.532837	1594.239258	1381.064575	26.416998
862.783813	1306.241821	1599.737671	1373.262817	22.835415
863.082153	1300.817749	1592.530151	1367.318726	22.796761
863.380371	1297.771362	1597.359863	1363.603516	21.974192
863.678589	1293.090210	1601.372192	1370.885132	25.234987
863.976746	1302.675293	1599.663208	1370.736694	22.917229
864.274902	1309.734009	1589.038086	1367.987305	20.856586
864.572937	1308.693726	1579.675781	1364.941040	20.756842
864.870911	1303.864136	1585.620117	1364.346558	21.466242
865.168884	1297.325439	1592.158691	1371.108032	25.025194
865.466736	1300.743286	1598.325806	1377.126587	25.667940
865.764587	1291.901367	1594.016235	1380.841797	29.439276
866.062317	1297.474121	1585.174194	1382.104980	29.416349
866.360107	1300.446289	1574.697632	1376.532227	27.743141
866.657715	1306.018921	1573.954468	1375.343384	25.873560
866.955322	1307.059204	1578.115601	1372.668579	24.205065
867.252808	1298.960205	1586.883301	1371.331055	25.135479
867.550293	1300.149048	1590.152466	1370.216431	24.160881
867.847717	1288.260620	1583.688110	1368.358887	27.112665
868.145081	1294.650757	1578.115601	1370.365112	26.710316
868.442383	1288.260620	1575.291992	1368.581665	27.983368
868.739624	1294.353394	1578.635620	1366.352661	25.326687
869.036804	1297.251221	1576.480835	1364.792358	24.188387
869.333984	1297.325562	1573.508789	1366.352661	24.993227
869.631042	1307.356445	1578.041138	1364.940918	21.273634
869.928101	1303.938477	1583.762573	1366.204102	22.251703
870.224976	1312.854858	1583.316772	1358.699463	16.950485
870.521851	1303.492676	1584.208374	1370.439331	23.848560
870.818726	1303.344116	1585.322876	1365.535278	22.055265
871.115479	1293.758911	1585.322876	1367.764526	25.382292
871.412231	1296.359497	1573.508789	1362.117554	23.726583
871.708862	1304.235596	1570.165161	1372.817017	25.789318
872.005493	1314.489380	1575.440796	1381.436157	25.654882
872.302063	1315.529663	1579.378784	1381.807617	25.119642
872.598572	1312.037598	1579.824585	1380.024414	25.388395
872.895020	1299.926147	1581.607788	1374.228882	26.378267
873.191406	1297.176880	1585.991577	1371.999634	25.906837
873.487671	1292.792969	1587.180298	1371.628296	26.779457
873.783997	1293.907593	1578.561401	1375.194702	28.556480
874.080200	1296.805298	1579.452759	1378.612671	28.943254
874.376343	1292.718750	1572.839844	1376.532227	29.920444
874.672424	1300.594727	1573.285767	1374.823242	27.220739
874.968445	1295.988037	1567.044312	1378.464233	30.427702
875.264465	1298.885864	1567.415894	1380.841797	30.520212
875.560364	1300.892090	1564.666626	1379.207031	29.690107
875.856201	1303.195313	1566.895874	1373.040039	26.486378
876.152039	1311.591553	1568.530396	1365.758301	21.081572
876.447754	1308.099243	1571.056641	1369.324829	23.283463
876.743469	1311.071411	1572.691406	1368.433228	21.925625
877.039063	1308.247925	1573.434448	1367.170044	22.219122
877.334595	1303.641235	1569.199219	1364.272339	22.831587
877.630127	1301.858032	1566.152832	1360.482788	22.181578
877.925537	1302.601074	1561.917603	1363.752075	23.581606
878.221008	1306.241821	1567.861694	1359.665405	20.420307
878.516296	1300.892090	1577.521118	1364.495117	22.992174
878.811646	1292.867310	1599.588867	1367.467285	24.321726
879.106812	1290.638306	1622.102539	1370.662231	24.142551
879.401978	1293.907593	1641.941528	1372.371216	22.544819
879.697083	1294.650635	1672.256958	1378.612671	22.235336
879.992126	1293.387573	1695.216797	1390.203979	24.093918
880.287109	1291.604370	1741.358521	1401.052124	24.335018
880.582031	1291.009766	1802.807007	1419.553589	25.116161
880.876892	1293.981934	1951.709595	1457.076538	24.796677
881.171753	1298.514282	2200.846680	1526.623657	25.279972
881.466492	1304.012817	2617.164795	1633.173828	25.066483
881.761230	1311.443115	3129.110596	1765.432617	24.976488
882.055786	1311.517456	3643.953857	1901.406738	25.290689
882.350403	1306.539063	3943.542725	1987.746460	25.832630
882.644958	1293.164551	3970.440186	1995.250977	26.223913
882.939453	1284.248169	3723.531982	1926.743774	26.339520
883.233826	1293.015869	3361.306641	1831.265015	26.023863
883.528137	1297.845581	2988.455811	1736.900391	25.970198
883.822449	1307.356323	2664.421387	1661.929077	26.127911
884.116577	1300.149048	2406.219482	1591.935913	26.380495
884.410828	1303.418335	2205.230225	1535.540039	25.739481
884.704956	1304.755737	2059.745605	1488.432007	24.328310
884.999023	1306.241821	1952.749878	1463.094849	24.261574
885.292969	1303.789917	1869.530762	1450.537598	25.939030
885.586914	1301.040649	1819.079224	1438.946411	26.620752
885.880798	1304.087036	1781.259155	1430.253052	26.440357
886.174622	1304.012817	1753.841431	1411.528931	23.901573
886.468384	1305.647461	1726.200806	1405.064453	23.639568
886.762085	1299.257446	1709.779907	1398.451538	24.162889
887.055664	1301.709351	1697.074219	1401.646484	25.277191
887.349304	1301.560791	1683.625366	1396.965454	24.970821
887.642822	1301.858032	1661.854614	1387.083374	23.673931
887.936340	1301.635010	1638.151978	1377.052368	22.411161
888.229736	1299.703125	1624.108887	1371.554077	22.148481
888.523071	1302.006470	1605.904663	1370.216431	22.445004
888.816284	1299.480347	1597.656860	1365.981079	22.302471
889.109619	1301.040649	1578.635620	1361.523071	21.788012
889.402710	1298.662964	1570.833862	1356.098999	21.102930
889.695862	1301.709351	1561.620239	1358.922485	22.012596
889.988892	1301.635132	1558.202515	1363.603516	24.152868
890.281921	1307.133423	1556.344971	1367.541626	24.239729
>>>>>End Processed Spectral Data<<<<<
