Jaz Data File
++++++++++++++++++++++++++++++++++++
Date: Fri Jun 04 13:46:22 2021
User: jaz
Dark Spectrum Present: Yes
Reference Spectrum Present: Yes
Processed Spectrum Present: Yes
Spectrometers: JAZA3586
Integration Time (usec): 386000 (JAZA3586)
Spectra Averaged: 10 (JAZA3586)
Boxcar Smoothing: 1 (JAZA3586)
Correct for Electrical Dark: No (JAZA3586)
Strobe/Lamp Enabled: Yes (JAZA3586)
Correct for Detector Non-linearity: No (JAZA3586)
Correct for Stray Light: No (JAZA3586)
Number of Pixels in Processed Spectrum: 2048
>>>>>Begin Processed Spectral Data<<<<<
W	D	R	S	P
191.335022	0.000000	0.000000	0.000000	0.000000
191.713211	286.065460	285.248138	277.892181	1000.007446
192.091385	572.502502	577.257874	567.152649	-112.501282
192.469528	854.406982	861.837219	857.676270	43.999771
192.847641	859.682556	865.923828	873.874268	227.384918
193.225739	885.911377	882.047607	891.112488	-134.612350
193.603790	921.205139	908.276550	907.682068	104.598198
193.981842	931.979004	931.904785	919.496094	16819.078125
194.359863	932.573425	939.037842	928.635315	-60.919811
194.737854	946.170898	946.913879	948.548523	320.011505
195.115829	950.108887	942.530029	952.412292	-30.392521
195.493774	946.170837	931.384583	947.879883	-11.558338
195.871704	932.499207	924.103027	931.310364	14.159330
196.249603	954.121277	933.465088	941.935608	58.992825
196.627457	952.337952	942.604309	937.031555	157.252502
197.005310	948.399902	940.300964	928.189636	249.542175
197.383133	928.486816	932.424988	921.428040	-179.239960
197.760910	946.839539	940.375305	939.112122	119.541122
198.138687	946.839600	944.536194	953.972656	-309.674347
198.516449	949.663086	944.164612	944.313293	97.295944
198.894180	927.966614	930.715820	918.827454	-332.429016
199.271866	925.291748	933.687988	906.716125	-221.237381
199.649536	922.765442	935.174011	904.487061	-147.304504
200.027191	932.870667	943.793030	910.134094	-208.165314
200.404816	924.325867	940.300842	905.230042	-119.535866
200.782410	923.880066	954.046875	920.833679	-10.098472
201.159988	922.616882	964.077820	932.053284	22.759739
201.537537	931.756165	977.377991	953.155273	46.905418
201.915070	928.561218	968.610352	949.440125	52.133228
202.292557	920.685059	963.780579	949.068665	65.862083
202.670029	919.719177	959.396729	949.068665	73.970009
203.047485	921.502441	963.483398	946.765320	60.176994
203.424911	920.016357	963.929199	941.638367	49.238464
203.802292	913.997803	969.353333	937.848877	43.087067
204.179688	909.465332	967.867249	940.746765	53.562340
204.557037	912.363098	964.597961	945.799316	64.011307
204.934357	925.737610	956.350342	942.678650	55.339851
205.311661	936.288574	955.161438	937.031555	3.936769
205.688934	933.242188	959.396729	932.647766	-2.272727
206.066177	919.570496	957.019043	919.719055	0.396703
206.443390	908.796631	960.436951	918.901672	19.568123
206.820587	908.870911	949.365906	919.867676	27.155863
207.197769	923.508545	966.678406	937.254456	31.841452
207.574921	926.332031	963.706299	944.759094	49.304146
207.952042	931.533203	973.514221	944.536194	30.973499
208.329147	931.236023	965.489563	945.056335	40.347107
208.706223	1056.881958	1091.878540	1054.429932	-7.006474
209.083267	1059.556763	1097.971313	1062.900513	8.704384
209.460297	1049.600220	1098.119995	1064.163574	30.015297
209.837280	920.759277	970.393555	948.994324	56.886185
210.214264	906.344543	961.179993	938.666199	58.942993
210.591217	898.617126	952.189392	925.811829	50.762650
210.968124	907.384827	968.387390	941.266907	55.542061
211.345016	922.245422	974.183044	950.034607	53.504921
211.721893	922.839844	977.526611	951.000549	51.494553
212.098724	917.638672	957.390625	939.557922	55.140060
212.475555	922.542664	960.214111	943.644531	56.015549
212.852356	933.390686	959.248230	949.885925	63.792755
213.229126	940.003723	970.170593	953.378113	44.334694
213.605865	923.880066	955.904480	935.099670	35.034534
213.982590	911.768738	956.053040	933.242188	48.489983
214.359283	899.805969	953.155273	921.056580	39.832966
214.735931	895.942200	960.511230	926.109192	46.720528
215.112579	900.400391	967.644287	927.743713	40.662907
215.489197	901.440613	968.610352	934.430969	49.114910
215.865799	909.168152	980.275879	932.499023	32.810600
216.242355	903.818298	971.359558	927.595215	35.203545
216.618896	918.307312	983.768066	929.750000	17.480227
216.995407	915.409424	969.873352	937.031677	39.700134
217.371902	914.889343	968.387390	932.647766	33.194527
217.748367	902.183594	955.978821	932.573425	56.491688
218.124802	902.852356	961.551514	930.938782	47.848091
218.501236	903.595398	957.539124	929.750000	48.484974
218.877609	908.499329	960.288391	931.013123	43.472103
219.253983	904.858582	960.065430	926.257751	38.761803
219.630295	903.669617	983.247864	931.979004	35.574280
220.006592	900.846191	991.644043	926.852112	28.641560
220.382889	907.533386	998.554199	928.412415	22.938742
220.759140	914.146301	988.746277	931.533203	23.306847
221.135391	910.877014	994.244690	932.276306	25.668571
221.511581	903.669739	994.913391	934.059570	33.306240
221.887772	899.508789	1005.092957	937.254578	35.749477
222.263931	911.248535	1011.780212	949.588867	38.137562
222.640060	924.994568	1017.947266	955.235840	32.534046
223.016159	926.852112	1022.999817	953.898254	28.129786
223.392212	914.220703	1022.033875	949.885986	33.080635
223.768265	899.434387	1027.532349	944.907654	35.498821
224.144302	892.672913	1027.532349	940.152344	35.206608
224.520294	893.787415	1023.668640	933.390808	30.492008
224.896286	909.242432	1033.179321	940.672424	25.359674
225.272217	919.124695	1041.947144	960.882751	33.998718
225.648148	927.595215	1066.392578	966.306824	27.890738
226.024048	909.019470	1065.798218	959.693909	32.322262
226.399902	903.743958	1077.612305	942.232727	22.136732
226.775772	894.307556	1072.708374	941.043945	26.197407
227.151581	910.431152	1098.194214	952.560852	22.437693
227.527374	903.669617	1127.469360	966.158264	27.921680
227.903137	910.579773	1175.394897	977.972412	25.448938
228.278870	908.127869	1238.329224	987.260254	23.964888
228.654572	914.369324	1308.396729	993.427307	20.064083
229.030273	909.688171	1396.891235	996.325195	17.782528
229.405930	901.589172	1473.497192	997.588318	16.785767
229.781555	906.121765	1537.992065	1007.544922	16.051262
230.157181	908.276550	1551.960938	1007.693542	15.444990
230.532761	904.338379	1529.001343	1002.789551	15.760687
230.908325	895.570618	1470.748047	980.647278	14.791377
231.283859	892.598572	1427.578125	976.412048	15.666669
231.659332	899.434387	1381.139038	978.789734	16.473860
232.034821	902.778015	1356.321899	988.300537	18.856504
232.410263	903.298157	1334.996948	990.158020	20.120480
232.785690	899.508728	1312.037476	989.266418	21.757923
233.161087	903.075195	1299.851685	985.551270	20.786533
233.536469	904.264099	1280.235840	987.706055	22.193678
233.911804	907.161865	1289.449463	981.315979	19.397469
234.287140	909.688171	1298.291382	983.768066	19.063120
234.662430	912.363098	1324.446045	981.316101	16.732798
235.037704	912.734619	1341.981445	990.901062	18.210138
235.412933	901.514954	1348.000000	990.232361	19.870186
235.788162	893.044434	1346.365356	990.380920	21.471872
236.163345	900.549011	1348.371460	991.644043	20.341774
236.538513	908.053650	1364.792358	1001.451965	20.448959
236.913635	908.722351	1371.108032	1004.869934	20.793806
237.288742	901.217773	1377.423828	1008.585144	22.546410
237.663834	898.171326	1372.668457	1009.105286	23.379269
238.038879	899.880188	1375.937866	1012.820374	23.724054
238.413910	898.394226	1389.683716	1010.591309	22.837265
238.788910	899.285828	1402.538208	1016.164063	23.224577
239.163879	903.595398	1417.770142	1026.343384	23.872814
239.538834	908.573669	1425.051880	1039.272095	25.305700
239.913757	914.294983	1469.336304	1047.965576	24.082998
240.288651	916.375488	1509.756836	1057.327759	23.754078
240.663528	908.127869	1562.214478	1069.513428	24.673424
241.038361	897.725403	1609.619751	1086.677246	26.542118
241.413177	897.948425	1708.219604	1110.379761	26.217314
241.787979	899.508789	1819.970825	1128.286743	24.854687
242.162735	903.818359	1958.619629	1144.336304	22.802204
242.537476	896.833801	2076.760986	1162.020264	22.474815
242.912170	919.050293	2205.007568	1190.775513	21.130190
243.286865	924.920227	2262.815186	1200.286133	20.582026
243.661514	924.697327	2259.768799	1188.397705	19.751780
244.036148	912.883118	2186.951904	1167.072876	19.951023
244.410751	914.740784	2082.259521	1153.401123	20.441669
244.785339	916.747009	1999.040405	1147.234009	21.296165
245.159882	913.626221	1949.777710	1157.190552	23.506634
245.534378	916.003906	1986.854858	1178.664063	24.528172
245.908890	913.477600	2072.005859	1211.877441	25.756802
246.283356	907.236145	2235.694580	1251.109253	25.885122
246.657791	888.214661	2451.172607	1299.628784	26.322788
247.032196	896.833801	2719.405029	1356.544800	25.223211
247.406586	900.994690	2953.755859	1381.287598	23.397408
247.780960	911.694336	3110.163086	1390.055298	21.758825
248.155289	900.325989	3134.237305	1374.674805	21.234003
248.529602	897.725403	3042.547852	1344.730591	20.841127
248.903870	901.143372	2861.620850	1305.127319	20.606405
249.278122	904.784180	2650.155273	1260.322754	20.370371
249.652344	897.725525	2462.020752	1227.703857	21.094378
250.026550	896.908203	2311.557861	1210.391357	22.159773
250.400711	916.226868	2211.323242	1213.437866	22.948948
250.774857	924.103027	2137.243408	1219.084717	24.315544
251.148987	927.298035	2105.442139	1214.552246	24.381926
251.523071	907.904968	2105.293701	1213.289185	25.504185
251.897125	926.629211	2160.351807	1241.152710	25.493858
252.271164	916.003906	2223.211914	1258.836670	26.226336
252.645187	912.808899	2283.694092	1261.288574	25.420048
253.019165	892.524231	2297.291748	1234.316772	24.330896
253.393112	920.610657	2290.455566	1234.465332	22.911694
253.767044	925.663269	2211.546143	1217.524292	22.697327
254.140930	928.858337	2130.110352	1218.416016	24.104658
254.514801	910.356934	2040.947266	1206.750488	26.215822
254.888657	911.099915	1997.777344	1202.218140	26.789753
255.262466	914.815125	1962.334961	1199.468872	27.174068
255.636276	923.285645	1973.926147	1216.261353	27.885439
256.010010	924.845947	1996.365601	1247.394165	30.101942
256.383759	921.948181	2038.272339	1261.140259	30.384727
256.757446	910.059753	2080.996338	1266.935791	30.477829
257.131134	906.493225	2157.973877	1283.951050	30.160898
257.504791	902.629456	2259.025391	1322.959961	30.988775
257.878418	903.521057	2365.352783	1361.077271	31.300196
258.252014	911.471436	2515.964600	1419.404785	31.656935
258.625580	915.558105	2692.581787	1483.899536	31.982773
258.999115	906.195984	2939.787109	1561.323120	32.215282
259.372650	900.103210	3214.038330	1629.607422	31.526564
259.746124	892.004150	3535.992188	1687.414673	30.083742
260.119598	899.211426	3831.642578	1744.182129	28.814682
260.493042	898.096924	4030.105225	1759.339844	27.498104
260.866425	903.669617	4079.516602	1750.200684	26.655285
261.239838	902.926575	3933.289063	1685.557251	25.826305
261.613159	903.669678	3662.158203	1614.375366	25.764315
261.986511	904.264160	3344.142578	1544.828003	26.253925
262.359802	912.734619	3084.677490	1503.664185	27.207418
262.733063	908.425049	2920.096924	1477.509644	28.289137
263.106293	913.626221	2820.679688	1464.729492	28.898155
263.479523	911.174255	2762.203857	1467.181641	30.037737
263.852692	923.508545	2723.714600	1478.549805	30.832096
264.225861	917.712952	2684.185791	1467.998901	31.151678
264.598969	921.205139	2666.427490	1459.231079	30.828503
264.972076	919.198975	2672.297607	1455.293091	30.579803
265.345154	926.777832	2719.108154	1483.453735	31.058779
265.718201	915.112305	2767.107422	1511.763062	32.216648
266.091217	927.075012	2861.174561	1558.871094	32.666161
266.464203	927.223633	2945.731201	1605.310181	33.593460
266.837158	928.858215	3059.340088	1632.059204	33.006664
267.210114	906.716125	3136.391846	1640.232544	32.897896
267.583038	899.583069	3201.406982	1637.334839	32.050747
267.955902	908.350769	3235.289063	1643.204712	31.580294
268.328766	910.356934	3226.372803	1642.981812	31.632982
268.701569	906.790344	3227.635986	1643.427612	31.740036
269.074371	891.855652	3230.310791	1647.959961	32.333496
269.447144	898.171326	3265.084229	1665.049683	32.399940
269.819885	903.223877	3318.359375	1702.275391	33.085163
270.192596	916.003906	3419.634033	1769.667847	34.097046
270.565277	926.109070	3577.081299	1858.608032	35.175735
270.937927	917.787170	3756.819580	1928.750000	35.609413
271.310577	914.146301	3973.041016	1979.424438	34.825588
271.683136	899.657410	4175.367188	2011.448853	33.940475
272.055725	901.440674	4344.777344	2024.823608	32.624836
272.428284	899.211609	4382.151855	2014.198242	32.012798
272.800812	897.874023	4332.071777	1982.916870	31.595236
273.173279	907.087585	4185.843750	1950.595093	31.826324
273.545776	906.493164	4063.467529	1927.264038	32.333836
273.918152	916.152527	3939.678955	1911.734497	32.927841
274.290558	911.620117	3880.682861	1904.601563	33.444271
274.662964	917.861511	3820.794678	1892.936157	33.589291
275.035278	904.264099	3775.395752	1889.815430	34.326233
275.407593	909.391052	3769.525391	1912.403442	35.068718
275.779907	911.843018	3831.568359	1946.062500	35.421806
276.152161	917.341370	3925.932861	1971.176880	35.027534
276.524384	915.632385	4015.319092	1981.876587	34.398449
276.896606	914.889404	4067.628174	1996.736938	34.314533
277.268799	916.672668	4114.661621	2006.767944	34.086895
277.640930	909.465271	4123.949219	2015.981445	34.422825
278.013031	907.533447	4136.432617	2011.820435	34.200108
278.385162	907.310547	4116.073730	2009.963013	34.363785
278.757233	907.904968	4103.516602	2012.117798	34.554039
279.129272	901.737793	4085.535156	2027.275391	35.352047
279.501282	893.416016	4097.200684	2059.225830	36.388519
279.873230	895.199219	4162.141113	2108.860107	37.149754
280.245178	897.948425	4276.790039	2154.927490	37.201477
280.617126	901.589172	4452.070313	2225.515137	37.288635
280.988983	896.388000	4626.607422	2286.443359	37.264709
281.360870	908.647949	4806.791504	2376.275146	37.649387
281.732697	906.567444	4952.499512	2412.311768	37.216255
282.104492	914.889465	5077.179199	2433.636963	36.488274
282.476288	904.487122	5152.967773	2419.816650	35.667568
282.848053	912.363098	5184.026855	2408.745361	35.030434
283.219757	905.898743	5212.261230	2399.829102	34.691238
283.591461	912.288757	5168.868652	2388.015381	34.669300
283.963135	910.951355	5133.129395	2403.247070	35.344212
284.334747	920.239258	5094.343262	2436.980469	36.336929
284.706360	913.849121	5159.729492	2494.193604	37.220654
285.077942	921.799561	5298.007324	2558.465576	37.399181
285.449524	926.406311	5453.820313	2600.297852	36.972355
285.821014	924.846008	5558.214844	2613.077881	36.436382
286.192535	913.180420	5681.260254	2633.957275	36.089512
286.563995	900.325989	5760.169922	2641.461914	35.826996
286.935425	893.936035	5813.890625	2631.208008	35.310730
287.306824	898.171326	5744.343750	2571.914551	34.537426
287.678223	898.691406	5625.458984	2520.496826	34.311089
288.049561	913.106140	5498.550293	2496.719971	34.535667
288.420898	906.716125	5361.535645	2494.490967	35.641735
288.792145	913.106140	5330.551758	2519.159668	36.357059
289.163452	907.533447	5360.940918	2561.735107	37.144630
289.534668	914.666504	5490.302246	2625.486572	37.389778
289.905914	908.499329	5628.951172	2677.349854	37.472061
290.277039	915.186584	5819.240234	2749.572266	37.405499
290.648193	923.434265	6011.089844	2794.822510	36.782917
291.019318	919.198914	6128.860840	2800.469482	36.111179
291.390381	909.911133	6132.649902	2752.469971	35.279552
291.761475	900.177490	6028.031250	2694.439697	34.990513
292.132507	903.075195	5926.533203	2669.399414	35.161522
292.503510	901.217712	5821.395020	2653.126953	35.606628
292.874481	930.492981	5818.274902	2702.538574	36.254601
293.245422	937.551758	5825.036621	2732.854248	36.732647
293.616364	944.833313	5943.846191	2821.497314	37.540695
293.987213	922.245300	6109.838379	2880.865234	37.755848
294.358093	922.393982	6327.248535	2968.764893	37.861721
294.728943	906.864746	6551.939453	3019.737061	37.428596
295.099731	897.799805	6726.550781	3077.692627	37.398972
295.470490	896.908203	6901.607910	3132.973877	37.238594
295.841248	914.963684	7013.359375	3193.531006	37.363392
296.211975	909.688171	7130.980957	3247.772217	37.581963
296.582642	902.852356	7278.992188	3312.192383	37.786816
296.953308	896.685242	7435.175781	3346.148682	37.462215
297.323883	903.149597	7541.280762	3345.331299	36.790199
297.694519	910.579895	7536.673340	3289.975830	35.909485
298.065063	921.576660	7448.327637	3211.586670	35.086525
298.435608	922.468323	7245.555176	3119.970947	34.753635
298.806122	921.353821	6955.626465	3004.653564	34.524456
299.176575	913.700623	6618.812500	2910.437500	34.999084
299.547028	918.158691	6387.433594	2835.020264	35.047817
299.917450	912.883240	6240.314453	2814.289795	35.690868
300.287872	902.629456	6169.206543	2809.163086	36.200623
300.658234	894.158936	6097.058594	2806.562500	36.756496
301.028564	902.109375	6028.848145	2806.636719	37.148907
301.398865	910.431335	5983.671875	2780.927979	36.869858
301.769135	913.997864	5929.134277	2757.299805	36.754776
302.139374	909.539551	5905.580078	2730.253418	36.443138
302.509583	899.731628	5867.686035	2717.399170	36.587845
302.879791	899.657410	5801.259277	2686.860596	36.461613
303.249939	898.319885	5683.415527	2640.570068	36.409935
303.620087	902.257874	5572.778809	2603.864502	36.432911
303.990173	894.976257	5505.236816	2597.028809	36.918789
304.360260	899.657410	5487.181641	2606.688232	37.210281
304.730286	901.812195	5474.772949	2617.536377	37.518890
305.100281	906.493164	5451.813477	2611.220459	37.505108
305.470276	903.595398	5439.182129	2610.626221	37.636379
305.840179	902.257996	5457.758301	2610.403076	37.496319
306.210144	900.846191	5479.751465	2624.743408	37.648678
306.579987	906.641785	5514.971191	2652.904541	37.893616
306.949890	906.641846	5544.915527	2674.303711	38.110340
307.319702	919.124695	5629.471191	2726.909912	38.379025
307.689484	918.307373	5705.854980	2771.417236	38.706867
308.059265	923.582825	5815.153809	2833.534424	39.045773
308.429016	915.335266	5939.759277	2867.267578	38.848881
308.798737	906.270325	6100.921875	2918.016357	38.727261
309.168396	897.725525	6236.003906	2943.725342	38.326958
309.538055	894.902039	6307.854980	2964.158447	38.227863
309.907684	891.335449	6332.226563	2956.208252	37.951004
310.277313	894.084656	6350.207520	2969.731201	38.042515
310.646851	899.285828	6375.990723	2960.294678	37.632275
311.016388	916.747009	6373.018066	2951.378174	37.289772
311.385895	940.003723	6321.006348	2928.047119	36.945595
311.755371	935.099792	6255.025879	2899.292236	36.921421
312.124817	923.657043	6190.605469	2864.518311	36.849827
312.494232	912.288757	6134.655762	2821.422852	36.556870
312.863617	912.660339	6056.043457	2806.859375	36.827877
313.232971	918.084412	6013.765137	2816.816406	37.261597
313.602295	909.836731	5988.725098	2846.611572	38.133835
313.971619	916.226807	6035.164063	2890.375977	38.565605
314.340820	909.465332	6053.368652	2912.072266	38.931660
314.710083	917.787292	6120.761230	2934.957764	38.769566
315.079285	925.217468	6143.571777	2904.939209	37.937660
315.448486	932.424805	6164.153809	2870.091064	37.036823
315.817596	930.418640	6057.678223	2788.432373	36.237946
316.186707	919.421875	5878.831543	2728.916016	36.486080
316.555786	913.626221	5678.957031	2669.250977	36.841610
316.924866	906.270264	5527.825684	2642.279053	37.563301
317.293884	904.487000	5444.680176	2626.898193	37.936954
317.662872	910.208313	5422.463867	2627.864258	38.066463
318.031830	905.750183	5412.953125	2644.656494	38.580605
318.400757	910.059753	5470.240723	2666.799072	38.523453
318.769684	905.378662	5513.707520	2686.415039	38.648201
319.138550	902.555176	5573.075684	2688.272461	38.233795
319.507416	904.635559	5574.041504	2675.120850	37.916718
319.876190	900.920471	5539.862793	2650.006592	37.704418
320.244995	926.926453	5502.859375	2633.511230	37.294792
320.613770	923.954407	5431.603027	2600.223633	37.187222
320.982483	927.446594	5394.525879	2594.205078	37.312046
321.351166	909.316711	5323.938477	2591.530273	38.105499
321.719818	904.115540	5313.387207	2632.099609	39.189789
322.088440	898.914307	5345.188965	2701.944092	40.551472
322.457062	897.205383	5483.169434	2792.816406	41.335064
322.825623	907.681946	5640.690918	2889.038330	41.862514
323.194183	900.846191	5805.791504	2951.452393	41.806911
323.562653	902.629456	5951.201660	2987.043701	41.287205
323.931183	897.799805	6072.390137	3000.269531	40.630650
324.299591	901.069153	6156.277344	2991.576172	39.779720
324.668060	894.530518	6184.586426	2959.106201	39.027485
325.036407	887.100281	6180.945801	2921.805908	38.435303
325.404755	893.564514	6122.023438	2867.342041	37.750656
325.773102	898.542786	6038.285156	2823.875000	37.459705
326.141388	912.288879	5954.248535	2773.423096	36.912918
326.509674	913.997803	5867.537598	2727.950195	36.619316
326.877899	916.598389	5798.287109	2697.708740	36.485538
327.246124	912.660339	5736.541504	2668.507813	36.399059
327.614288	919.570374	5696.715332	2662.489258	36.484531
327.982422	921.799500	5648.121094	2648.074463	36.524700
328.350525	926.629211	5593.360840	2653.052734	36.994278
328.718628	919.273254	5554.128418	2665.015625	37.665524
329.086700	925.960510	5576.642090	2698.377686	38.110912
329.454712	913.626282	5621.520996	2735.751953	38.703621
329.822693	919.867676	5664.765137	2769.262451	38.976498
330.190674	916.672668	5688.021973	2792.667969	39.317924
330.558563	921.205078	5712.542480	2800.172119	39.215919
330.926483	919.421875	5753.705566	2827.887451	39.477734
331.294312	902.778015	5820.652344	2867.490967	39.950447
331.662231	901.143372	5932.106934	2933.843018	40.403786
332.029999	898.171204	6068.600098	2978.350342	40.232239
332.397766	907.830566	6171.509766	3008.294189	39.904858
332.765503	908.945129	6266.319824	3037.420898	39.729832
333.133240	897.948425	6337.427734	3051.909912	39.598667
333.500916	888.883484	6410.170410	3048.937500	39.122292
333.868561	885.911316	6418.121094	3023.971924	38.647495
334.236176	890.220886	6403.631348	2999.006592	38.248295
334.603790	894.679016	6371.830078	2987.935303	38.217979
334.971344	890.815247	6325.019531	2969.879883	38.258862
335.338867	886.431458	6280.883301	2966.164795	38.553192
335.706360	882.047607	6240.611816	2959.031982	38.760090
336.073853	885.093933	6235.187500	2968.988281	38.950611
336.441284	892.301331	6254.506348	2975.601318	38.851555
336.808655	905.304382	6271.149902	3001.607178	39.067516
337.176086	903.298157	6282.740234	3027.167236	39.481216
337.543396	912.660339	6262.307129	3049.977783	39.952496
337.910706	903.223938	6227.310547	3046.560303	40.257355
338.277954	912.585999	6200.413574	3042.101807	40.272038
338.645264	899.285828	6163.484863	3017.953369	40.246719
339.012421	904.189880	6154.643066	2992.393311	39.771870
339.379669	900.697571	6143.794922	2938.969727	38.875347
339.746796	917.638672	6156.872559	2910.660156	38.040321
340.113953	922.096741	6155.014160	2879.156250	37.399014
340.481018	922.245361	6161.998535	2867.416260	37.123333
340.848114	913.923523	6187.484863	2856.494141	36.836029
341.215118	905.378723	6235.113281	2878.561768	37.022167
341.582153	904.041260	6336.610840	2960.963623	37.862789
341.949066	907.756348	6446.355469	3051.910156	38.712925
342.316010	905.675964	6579.431152	3180.379639	40.091675
342.682922	908.202148	6680.408691	3285.294922	41.181702
343.049835	899.360168	6832.432129	3447.794922	42.953041
343.416656	920.462097	7059.576172	3621.143311	43.991383
343.783478	918.827454	7329.814941	3749.835205	44.158688
344.150269	929.527039	7623.458984	3833.351563	43.379951
344.516998	915.781006	7835.593262	3819.308594	41.959629
344.883728	918.455872	7989.771484	3797.389404	40.712845
345.250427	911.099915	8009.907715	3713.129883	39.471840
345.617065	904.041199	7931.518066	3638.975586	38.917728
345.983704	898.765686	7788.337402	3553.973389	38.539516
346.350281	893.936035	7631.335938	3488.586914	38.511162
346.716827	894.158936	7477.008301	3422.011719	38.400585
347.083405	893.713074	7321.269531	3364.723877	38.444012
347.449860	943.570129	7217.171875	3369.925537	38.675640
347.816376	955.087097	7105.197266	3367.102295	39.219055
348.182770	957.613342	7019.080566	3375.498291	39.889435
348.549194	915.929626	6950.871094	3353.356201	40.388569
348.915558	909.316711	6985.718750	3379.064697	40.644909
349.281921	901.663574	7014.994629	3411.832275	41.060574
349.648193	900.623291	7067.823730	3435.980713	41.110348
350.014526	897.056702	7104.900391	3448.463623	41.099728
350.380737	904.338440	7205.803223	3466.370361	40.657722
350.746948	911.025696	7281.443848	3496.166016	40.580387
351.113159	908.945251	7347.796875	3519.571045	40.544895
351.479309	903.743958	7375.511230	3558.580078	41.021812
351.845428	894.233215	7443.795410	3626.938721	41.723484
352.211517	896.833801	7541.503418	3693.439697	42.087963
352.577576	893.415955	7650.728516	3749.463867	42.266033
352.943604	897.948425	7763.891113	3794.937256	42.193604
353.309601	911.174255	7892.583984	3892.050781	42.697342
353.675537	916.746887	8095.875488	3971.554688	42.551235
354.041473	911.099915	8287.130859	4060.792236	42.701725
354.407379	894.233215	8473.705078	4101.138672	42.310410
354.773254	901.143372	8631.969727	4195.503418	42.613300
355.139038	908.276367	8808.736328	4283.997559	42.728161
355.504913	924.994446	9056.907227	4436.392578	43.180470
355.870636	914.072083	9305.003906	4566.199707	43.524700
356.236389	902.332214	9583.267578	4716.365234	43.935738
356.602081	889.552185	9840.429688	4853.825195	44.289207
356.967804	886.580078	10105.615234	4943.583008	44.006805
357.333405	891.706970	10356.981445	4994.926270	43.350239
357.699036	889.626465	10550.912109	4965.056641	42.183105
358.064606	896.982422	10705.981445	4936.375488	41.180481
358.430176	899.360168	10762.600586	4890.233887	40.462097
358.795654	894.901917	10783.851563	4915.422363	40.656700
359.161163	902.926697	10790.686523	5018.183105	41.619705
359.526581	905.304382	10874.723633	5203.791504	43.116730
359.892029	927.298035	11124.973633	5478.488281	44.629684
360.257416	916.375488	11525.762695	5768.863281	45.737682
360.622772	912.140198	12030.129883	6016.217285	45.908276
360.988098	891.632629	12542.893555	6179.311035	45.382885
361.353394	895.199219	12967.756836	6232.511719	44.210289
361.718658	900.697571	13274.625977	6172.029785	42.600311
362.083893	897.651184	13320.026367	5952.687988	40.692997
362.449097	903.446777	13148.460938	5629.693848	38.597321
362.814209	900.251770	12707.918945	5279.060059	37.084446
363.179382	912.214539	12084.222656	4947.818359	36.122456
363.544434	910.208313	11382.285156	4724.241211	36.420979
363.909546	907.161926	10700.186523	4573.109863	37.434277
364.274536	903.966858	10209.268555	4516.936523	38.827003
364.639587	897.725525	9859.079102	4437.729980	39.503010
365.004517	896.610901	9645.606445	4396.789551	40.006638
365.369507	894.604797	9484.221680	4344.480469	40.163322
365.734344	901.291992	9389.486328	4359.266113	40.738632
366.099274	903.149597	9327.889648	4363.501465	41.073692
366.464081	910.579834	9267.109375	4354.882324	41.216904
366.828918	910.208313	9208.633789	4327.390137	41.178677
367.193665	908.350769	9142.057617	4274.412598	40.881485
367.558411	913.700500	9066.121094	4241.273438	40.816994
367.923126	909.019531	8962.393555	4192.382324	40.770027
368.287781	919.124695	8876.500977	4162.810059	40.763252
368.652435	911.694336	8802.717773	4139.107910	40.899811
369.017059	919.198975	8770.098633	4155.082520	41.216724
369.381653	929.452698	8744.613281	4197.658203	41.818790
369.746185	927.000732	8746.916016	4233.769043	42.286499
370.110687	921.279358	8757.318359	4266.536621	42.690666
370.475220	900.474670	8813.714844	4280.505371	42.713612
370.839661	902.852356	8892.773438	4306.214355	42.595692
371.204041	902.480896	8983.347656	4325.012695	42.353523
371.568451	904.932861	9020.127930	4331.774414	42.227470
371.932770	900.251770	9051.855469	4322.783691	41.985996
372.297150	906.716064	9039.669922	4293.582520	41.643742
372.661377	906.418884	9034.542969	4283.328613	41.545990
373.025696	905.601563	9033.798828	4304.802246	41.819859
373.389862	897.131104	9046.282227	4354.288086	42.423523
373.754059	906.270325	9084.845703	4411.873047	42.863247
374.118225	911.322937	9139.235352	4461.061035	43.142635
374.482361	911.322815	9262.651367	4557.505859	43.659920
374.846436	895.942200	9437.411133	4656.923340	44.032021
375.210510	891.781250	9663.440430	4805.974121	44.623177
375.574524	904.561340	9939.698242	4953.688477	44.815338
375.938538	919.273254	10226.877930	5111.284180	45.038555
376.302460	925.663269	10520.967773	5241.685547	44.980568
376.666412	922.022461	10798.414063	5311.009766	44.439178
377.030304	916.449768	10997.397461	5326.316406	43.744568
377.394196	907.830750	11117.618164	5260.483887	42.632164
377.757996	909.762512	11102.238281	5166.342773	41.761986
378.121796	902.778076	11007.426758	5020.412109	40.749897
378.485565	907.161926	10803.837891	4881.168457	40.154964
378.849304	893.936096	10527.877930	4730.705078	39.825539
379.212982	896.090820	10239.731445	4665.245117	40.339249
379.576630	901.069092	9967.487305	4638.719238	41.225212
379.940277	911.322754	9808.999023	4663.090332	42.165703
380.303864	915.112305	9687.069336	4662.049805	42.714954
380.667450	905.675842	9664.851563	4657.591797	42.834122
381.030945	900.549011	9615.664063	4616.205078	42.634617
381.394501	903.223877	9632.159180	4621.108887	42.592651
381.757935	920.684998	9651.253906	4651.201660	42.729362
382.121399	917.341370	9678.300781	4718.891113	43.391937
382.484741	918.232971	9814.943359	4806.123047	43.700314
382.848145	907.013367	9911.686523	4885.626953	44.183876
383.211487	910.059753	10057.169922	4962.678711	44.304909
383.574768	901.514954	10163.645508	4996.783691	44.215191
383.938019	893.490234	10257.415039	5003.322266	43.890057
384.301270	900.549011	10363.668945	5007.037598	43.394661
384.664459	903.223816	10404.387695	5001.984863	43.139568
385.027649	908.573730	10450.602539	5023.086426	43.119892
385.390778	905.081482	10534.491211	5072.423828	43.277233
385.753876	913.997803	10579.815430	5133.946289	43.658474
386.116943	912.065918	10660.731445	5208.694824	44.074020
386.479980	913.403320	10702.934570	5224.521484	44.038044
386.842987	915.706726	10786.600586	5252.087891	43.930992
387.205994	926.257629	10848.866211	5226.082031	43.333607
387.568909	920.759277	10897.832031	5223.852539	43.129818
387.931793	911.322937	10903.924805	5174.812988	42.666470
388.294678	897.502625	10875.540039	5161.364258	42.732471
388.657471	904.858459	10818.475586	5149.029785	42.811531
389.020294	913.180481	10790.389648	5200.076172	43.401890
389.383057	925.514709	10870.338867	5299.047363	43.977978
389.745819	924.251648	10971.465820	5413.399414	44.680527
390.108521	924.697327	11129.061523	5543.875000	45.266689
390.471191	915.706726	11325.963867	5670.337891	45.672565
390.833801	913.031799	11560.760742	5787.661621	45.780937
391.196442	909.093750	11813.612305	5877.939941	45.566856
391.558960	914.666504	11999.071289	5890.794434	44.893059
391.921509	914.517883	12152.878906	5874.596191	44.135242
392.284027	914.815125	12240.407227	5830.905762	43.406921
392.646484	908.796570	12233.348633	5823.697754	43.400406
393.008911	900.846191	12128.210938	5818.720215	43.802567
393.371307	900.623291	12053.164063	5832.317871	44.220364
393.733673	904.561279	11995.133789	5834.546875	44.452038
394.096008	902.778015	11972.174805	5798.584473	44.228306
394.458344	903.521057	11916.745117	5737.210449	43.889870
394.820587	899.211487	11816.510742	5629.471191	43.328114
395.182831	907.161926	11694.950195	5516.308594	42.725594
395.545013	894.976257	11463.645508	5384.569824	42.480221
395.907196	902.629395	11216.070313	5293.994141	42.579044
396.269287	901.589172	10985.136719	5271.555176	43.337582
396.631409	903.669739	10841.732422	5263.233398	43.867336
396.993469	902.109375	10705.461914	5256.620605	44.418594
397.355530	906.047363	10617.933594	5260.855469	44.839981
397.717499	916.152588	10563.469727	5296.372559	45.403500
398.079468	914.294983	10576.769531	5315.170898	45.546055
398.441376	915.483887	10591.333008	5345.634766	45.785652
398.803284	901.217773	10591.926758	5324.087402	45.640308
399.165131	899.954590	10618.602539	5372.161621	46.016758
399.526978	894.307556	10591.778320	5378.848633	46.244438
399.888763	900.920471	10574.614258	5409.609375	46.607731
400.250519	903.000977	10546.900391	5406.711426	46.700096
400.612244	926.109131	10580.485352	5452.407715	46.883392
400.973938	931.236084	10573.425781	5536.667480	47.763340
401.335602	930.864502	10628.484375	5603.687988	48.185257
401.697205	920.907959	10748.408203	5712.839355	48.760433
402.058807	909.019531	10938.698242	5817.902832	48.943573
402.420349	905.601563	11183.377930	5982.854980	49.400311
402.781860	892.970032	11431.770508	6109.466797	49.498009
403.143341	897.279602	11783.296875	6260.821777	49.270012
403.504822	904.189880	12102.948242	6395.830078	49.037937
403.866241	910.951355	12466.065430	6529.945801	48.627773
404.227631	915.929688	12724.489258	6604.694824	48.174927
404.588959	916.301086	12957.502930	6629.140625	47.444096
404.950287	909.911133	13037.898438	6617.029297	47.057423
405.311554	898.988586	12990.790039	6588.720215	47.054455
405.672821	902.109314	12796.192383	6560.187500	47.570530
406.034027	902.034973	12520.901367	6502.824707	48.204269
406.395203	912.214539	12162.464844	6429.117188	49.038048
406.756348	906.047363	11898.614258	6377.402344	49.773228
407.117493	899.880310	11731.507813	6380.597168	50.599197
407.478516	894.976318	11712.411133	6435.655762	51.219906
407.839600	896.239502	11718.132813	6510.032715	51.874405
408.200592	914.072083	11769.104492	6607.295410	52.447777
408.561554	927.000793	11837.612305	6703.665527	52.945381
408.922485	925.737610	11906.120117	6825.893066	53.733604
409.283417	918.455994	11904.113281	6882.958496	54.293541
409.644257	911.174316	12015.269531	6968.852051	54.553543
410.005096	917.712891	12136.382813	6995.154785	54.172569
410.365906	917.564270	12239.589844	7027.402344	53.964176
410.726715	911.843018	12299.776367	7023.910156	53.671436
411.087433	908.796570	12285.211914	7007.267090	53.606262
411.448120	911.025635	12303.266602	6985.718750	53.323074
411.808807	918.158691	12223.762695	6985.644531	53.667953
412.169434	913.180420	12124.495117	6972.642090	54.047737
412.530029	919.124695	12070.031250	7043.972168	54.926907
412.890564	918.678772	12074.118164	7092.937988	55.347523
413.251099	930.864563	12149.981445	7216.057129	56.022167
413.611572	925.589050	12250.809570	7285.381348	56.156013
413.972076	928.561218	12352.828125	7387.548340	56.537434
414.332489	918.307312	12456.851563	7466.457520	56.750233
414.692871	919.124695	12644.762695	7616.697754	57.119053
415.053223	913.403320	12816.327148	7750.591309	57.441250
415.413574	918.753113	13098.159180	7919.480957	57.480045
415.773834	910.877136	13317.203125	8082.278809	57.804394
416.134094	914.815125	13573.250000	8286.684570	58.236820
416.494263	912.437439	13785.606445	8502.906250	58.963482
416.854462	913.329102	14104.809570	8729.826172	59.254131
417.214630	912.734619	14507.382813	9007.570313	59.544285
417.574738	911.991638	14923.924805	9279.666992	59.718208
417.934784	920.759277	15379.325195	9620.494141	60.170105
418.294861	925.737610	15869.128906	9983.090820	60.611095
418.654846	926.034851	16473.359375	10388.487305	60.862255
419.014832	921.650940	17082.789063	10787.269531	61.045319
419.374756	911.471497	17770.089844	11187.538086	60.954376
419.734680	925.663330	18478.269531	11643.235352	61.059723
420.094543	922.616882	19158.361328	12007.617188	60.787209
420.454376	932.499207	19696.091797	12242.117188	60.274269
420.814148	918.901794	20134.328125	12364.121094	59.562664
421.173920	916.375488	20535.265625	12462.721680	58.853203
421.533691	912.734558	20895.486328	12567.265625	58.322952
421.893341	906.641785	21112.525391	12575.289063	57.748764
422.253021	906.493164	21196.041016	12572.020508	57.495258
422.612640	903.669739	21102.566406	12534.645508	57.582233
422.972260	914.072083	21003.595703	12549.432617	57.917553
423.331757	916.969910	20997.281250	12590.819336	58.135803
423.691315	935.174011	21132.212891	12709.479492	58.297188
424.050781	936.362976	21289.662109	12740.463867	57.996006
424.410248	935.619873	21259.197266	12649.887695	57.638805
424.769653	925.663330	21172.783203	12434.262695	56.840675
425.128998	923.062683	21007.757813	12159.492188	55.945232
425.488373	918.753174	20691.599609	11830.405273	55.185040
425.847656	911.991638	20280.035156	11557.565430	54.964634
426.206940	912.585999	19863.568359	11307.760742	54.852959
426.566193	918.455872	19422.580078	11087.823242	54.957298
426.925385	917.044128	18952.617188	10785.188477	54.714897
427.284576	916.672668	18363.396484	10509.153320	54.981556
427.643677	915.558105	17918.099609	10261.280273	54.966621
428.002777	918.455994	17568.876953	10109.034180	55.197269
428.361847	928.561096	17198.330078	9980.862305	55.638779
428.720856	927.892395	16834.619141	9870.448242	56.218704
429.079865	926.406311	16554.423828	9789.085938	56.710197
429.438812	915.558105	16395.861328	9771.252930	57.206215
429.797760	925.960510	16313.161133	9746.734375	57.325397
430.156616	933.390808	16142.637695	9666.709961	57.421116
430.515503	933.613770	16039.729492	9590.104492	57.304543
430.874268	920.833679	15964.385742	9571.899414	57.506802
431.233093	906.939148	15989.425781	9653.631836	57.992378
431.591827	897.354004	16063.726563	9741.754883	58.315857
431.950562	907.013367	16177.932617	9861.308594	58.636253
432.309204	908.722229	16261.225586	9942.745117	58.843971
432.667877	917.044128	16456.789063	10083.325195	58.986046
433.026459	920.833679	16724.724609	10146.110352	58.373451
433.385010	920.982239	17052.029297	10181.850586	57.410213
433.743561	923.434265	17491.306641	10167.361328	55.794289
434.102051	920.313477	17951.759766	10173.899414	54.332359
434.460510	926.852112	18523.593750	10198.717773	52.690807
434.818939	921.428040	18933.375000	10175.460938	51.377193
435.177338	922.468262	19300.652344	10147.596680	50.196087
435.535675	926.109131	19484.476563	10140.909180	49.653072
435.894012	937.477539	19509.144531	10150.940430	49.610313
436.252289	932.424805	19423.697266	10263.733398	50.463310
436.610535	932.424805	19115.712891	10311.508789	51.580788
436.968719	937.700256	18830.388672	10522.157227	53.566334
437.326935	940.969666	18443.197266	10694.464844	55.727161
437.685028	936.214294	18181.576172	10915.514648	57.866581
438.043152	918.010193	17999.906250	11053.718750	59.335972
438.401215	914.666504	18058.607422	11241.183594	60.234211
438.759277	912.808899	18277.207031	11476.500977	60.835350
439.117249	928.932617	18728.076172	11811.977539	61.143639
439.475250	934.208069	19119.205078	12088.680664	61.338879
439.833130	940.672424	19600.091797	12379.799805	61.304836
440.191071	939.855042	19848.410156	12476.170898	61.011089
440.548889	944.164551	20131.429688	12515.996094	60.309959
440.906708	935.694092	20268.740234	12419.179688	59.398216
441.264496	923.508484	20354.785156	12301.558594	58.555336
441.622223	919.421875	20278.029297	12157.633789	58.052792
441.979950	921.279480	20108.619141	11977.895508	57.624538
442.337616	931.384583	19917.958984	11821.414063	57.356472
442.695251	931.756165	19658.419922	11646.727539	57.217728
443.052887	933.316467	19421.542969	11589.737305	57.638958
443.410461	920.313477	19274.201172	11646.281250	58.439762
443.768005	907.830627	19273.458984	11842.144531	59.536831
444.125458	916.375427	19360.169922	12020.471680	60.205055
444.482941	920.982239	19600.539063	12237.510742	60.582424
444.840393	928.412537	19919.443359	12530.632813	61.093159
445.197754	924.771667	20307.302734	12853.331055	61.542835
445.555084	928.189514	20631.634766	13155.000000	62.054176
445.912415	926.926453	21012.955078	13308.359375	61.642014
446.269714	921.205139	21316.931641	13371.073242	61.041553
446.626953	913.774902	21479.283203	13339.790039	60.421635
446.984161	906.864746	21586.501953	13262.886719	59.749702
447.341309	920.536438	21584.865234	13110.864258	58.992134
447.698456	931.384583	21607.751953	12938.036133	58.069443
448.055542	937.700378	21475.119141	12785.343750	57.688087
448.412598	935.619934	21205.328125	12578.114258	57.437897
448.769653	926.109192	20851.126953	12308.840820	57.127838
449.126617	931.979065	20390.451172	11982.131836	56.788383
449.483582	952.263733	20076.224609	11815.024414	56.801834
449.840515	962.888977	19642.445313	11628.003906	57.095119
450.197388	955.533020	19372.576172	11496.265625	57.233578
450.554230	937.254578	19133.023438	11387.485352	57.432198
450.911041	922.245422	19010.796875	11355.683594	57.679790
451.267822	923.582825	18944.220703	11430.284180	58.303711
451.624573	910.802795	18865.015625	11455.472656	58.730896
451.981262	914.889465	18808.619141	11457.627930	58.918617
452.337921	916.672668	18630.070313	11336.885742	58.826729
452.694580	916.078308	18387.841797	11099.117188	58.282833
453.051147	912.437500	18271.634766	10934.463867	57.733234
453.407715	918.901794	18037.654297	10697.139648	57.120041
453.764221	939.037781	17989.876953	10656.422852	56.990650
454.120728	948.474182	17609.000000	10447.557617	57.015507
454.477142	939.260681	17453.931641	10403.199219	57.306248
454.833557	928.932617	17202.195313	10313.663086	57.669632
455.189911	930.864502	17128.562500	10323.249023	57.985924
455.546265	937.105957	17054.853516	10358.393555	58.452873
455.902557	932.127625	17027.210938	10407.954102	58.874043
456.258820	923.731384	17120.166016	10579.518555	59.616745
456.615051	916.969910	17267.505859	10763.864258	60.223679
456.971252	931.236023	17363.951172	10984.096680	61.175896
457.327393	933.613708	17668.443359	11318.608398	62.056171
457.683502	943.718811	18111.882813	11758.257813	62.991821
458.039612	940.598145	18802.972656	12349.187500	63.869389
458.395630	957.019043	19571.412109	12980.016602	64.589798
458.751648	944.610413	20230.400391	13472.124023	64.957230
459.107605	936.585693	21055.904297	13949.370117	64.678055
459.463562	923.805664	21612.580078	14056.291992	63.476391
459.819458	927.075012	22010.544922	13988.972656	61.953259
460.175323	925.068848	22079.648438	13615.304688	59.988129
460.531158	931.533264	22060.404297	13174.541992	57.944454
460.886932	940.077942	21800.791016	12684.366211	56.298595
461.242676	944.684753	21358.392578	12195.379883	55.113438
461.598419	934.653870	20749.259766	11835.903320	55.016232
461.954102	927.669495	20090.341797	11483.559570	55.085690
462.309723	936.511536	19421.318359	11200.838867	55.528454
462.665344	938.666260	18817.164063	10963.886719	56.074177
463.020905	942.827148	18419.349609	10849.385742	56.684952
463.376373	936.660095	18171.771484	10823.677734	57.365559
463.731873	946.393799	17965.134766	10835.121094	58.104931
464.087341	948.251404	17821.654297	10865.807617	58.776272
464.442749	952.263672	17798.103516	10968.047852	59.455536
464.798126	943.718933	17787.849609	11022.809570	59.837406
465.153503	933.093567	17908.814453	11166.139648	60.280479
465.508820	914.146301	17917.283203	11226.992188	60.652607
465.864105	905.601563	18077.035156	11303.153320	60.551449
466.219330	909.985352	18322.826172	11428.204102	60.404961
466.574524	915.112305	18462.666016	11463.274414	60.111862
466.929657	920.907898	18509.328125	11406.062500	59.613964
467.284790	931.458923	18480.720703	11286.062500	59.003071
467.639893	938.071838	18459.023438	11135.377930	58.200638
467.994934	944.981995	18381.082031	11032.987305	57.857006
468.349945	941.192566	18193.617188	10874.797852	57.578030
468.704926	933.762268	18012.093750	10781.101563	57.659840
469.059875	939.632141	17796.542969	10709.698242	57.958820
469.414764	928.635437	17622.375000	10662.812500	58.310341
469.769653	939.706482	17494.279297	10659.170898	58.711662
470.124451	932.424805	17454.154297	10677.598633	58.983978
470.479248	938.591858	17398.947266	10707.319336	59.347004
470.834015	930.641541	17405.337891	10734.142578	59.506409
471.188721	930.344299	17521.025391	10873.088867	59.929691
471.543365	930.790222	17689.322266	11061.965820	60.453842
471.898010	919.496155	17851.080078	11225.135742	60.866364
472.252625	916.449768	18062.396484	11352.786133	60.867653
472.607178	917.787170	18304.474609	11481.776367	60.759068
472.961700	932.424866	18495.656250	11558.828125	60.503696
473.316193	937.774597	18664.695313	11640.784180	60.377155
473.670654	945.204895	18717.671875	11621.167969	60.070236
474.025055	952.932373	18822.439453	11683.954102	60.052139
474.379456	945.947937	18893.177734	11695.916992	59.897648
474.733795	943.644531	19005.595703	11790.429688	60.053230
475.088104	937.477356	19165.494141	11937.176758	60.345013
475.442383	953.080994	19306.001953	12147.454102	60.995045
475.796570	954.492859	19553.431641	12336.554688	61.197369
476.150787	962.814697	19910.529297	12620.243164	61.524193
476.504944	956.276062	20288.134766	12879.411133	61.676090
476.859070	962.071716	20602.880859	13124.981445	61.926727
477.213135	956.276062	20867.917969	13283.915039	61.911713
477.567200	943.347351	21241.365234	13427.020508	61.501930
477.921173	929.155518	21594.599609	13602.747070	61.327461
478.275146	924.251465	21942.859375	13747.416992	61.008636
478.629089	936.437195	22164.056641	13940.752930	61.261299
478.983002	942.307068	22569.599609	14196.500977	61.284573
479.336823	945.130615	23020.468750	14566.305664	61.703133
479.690643	942.158508	23555.521484	14996.815430	62.152000
480.044403	942.158508	24193.781250	15572.214844	62.920582
480.398163	940.672424	25081.404297	16314.722656	63.685101
480.751862	934.430969	26292.240234	17392.705078	64.904160
481.105499	938.889221	27875.408203	18840.271484	66.457672
481.459137	934.802551	30041.259766	20958.716797	68.795433
481.812744	936.660095	32919.519531	23756.437500	71.350021
482.166290	934.728210	36527.144531	27222.509766	73.857811
482.519806	941.118225	40667.738281	30845.884766	75.276390
482.873291	944.907715	45000.406250	34155.253906	75.382980
483.226715	934.802551	48905.531250	36493.707031	74.126259
483.580139	930.864441	51453.144531	37233.238281	71.854187
483.933502	934.282410	53310.496094	36705.917969	68.297485
484.286804	952.858093	54024.324219	34981.718750	64.118935
484.640106	956.201660	54379.937500	32827.761719	59.658054
484.993347	958.133545	53589.050781	30534.478516	56.195763
485.346558	943.644531	52336.312500	28893.060547	54.384052
485.699738	944.981934	50766.964844	28200.781250	54.706371
486.052887	939.334961	49286.707031	28346.490234	56.687996
486.405975	942.901550	48492.636719	29038.990234	59.087791
486.759064	944.907654	48174.917969	29822.884766	61.143276
487.112061	948.622803	48216.750000	30195.958984	61.875381
487.464996	950.257507	48168.000000	29915.021484	61.342968
487.817963	944.387634	48047.558594	29051.697266	59.671799
488.170868	938.443359	47545.343750	27787.287109	57.607018
488.523743	931.681824	46623.027344	26400.648438	55.741341
488.876587	931.458923	45321.609375	25091.953125	54.427601
489.229401	952.932312	43990.261719	24269.421875	54.177364
489.582153	959.099426	42744.347656	24068.806641	55.305897
489.934845	972.994141	41888.234375	24485.943359	57.467457
490.287537	954.195557	41594.363281	25331.876953	59.984203
490.640198	962.443176	41851.378906	26228.931641	61.792969
490.992798	949.291565	42161.812500	26713.908203	62.516483
491.345337	952.337952	42380.785156	26567.234375	61.829250
491.697876	954.641357	42166.574219	25704.431641	60.054913
492.050354	972.474060	41733.238281	24377.384766	57.420193
492.402832	967.792969	40638.910156	22641.154297	54.632595
492.755219	967.718689	39173.285156	20869.851563	52.092232
493.107605	950.108887	37126.542969	19235.564453	50.545212
493.459930	955.161438	35041.906250	18000.056641	50.004463
493.812225	946.468018	32845.218750	17114.742188	50.686234
494.164490	952.635193	31081.349609	16627.240234	52.025471
494.516724	948.474304	29680.742188	16375.280273	53.691570
494.868896	953.824036	28785.244141	16325.497070	55.231365
495.221039	951.446350	28234.068359	16437.248047	56.760681
495.573120	967.272766	27804.968750	16576.193359	58.160439
495.925201	999.668762	27686.679688	16819.162109	59.277874
496.277222	1006.876221	27663.421875	16944.734375	59.789661
496.629211	988.151855	27767.150391	16985.380859	59.737965
496.981140	949.365906	27679.250000	16820.798828	59.377110
497.333069	951.520569	27582.656250	16622.111328	58.843121
497.684967	955.235657	27456.562500	16404.777344	58.297241
498.036804	952.783752	27271.552734	16131.343750	57.671997
498.388580	944.016052	26968.767578	15829.301758	57.196648
498.740326	944.238953	26498.876953	15521.317383	57.042786
499.092072	946.393738	25990.203125	15235.178711	57.055161
499.443756	947.879700	25484.197266	14947.106445	57.055122
499.795410	957.093323	25080.734375	14716.323242	57.036289
500.147003	957.316223	24755.587891	14567.122070	57.188210
500.498566	957.018982	24384.445313	14431.371094	57.515293
500.850098	946.170898	23998.367188	14308.104492	57.963821
501.201599	945.947998	23667.794922	14150.731445	58.114918
501.553009	945.130615	23399.337891	14061.417969	58.413494
501.904449	947.062500	23249.767578	14035.338867	58.684704
502.255859	958.728027	23166.916016	14103.027344	59.186726
502.607178	960.882813	23161.640625	14212.178711	59.688484
502.958405	961.031433	23139.427734	14256.833008	59.949337
503.309692	951.520691	23141.656250	14256.090820	59.957142
503.660919	942.009827	23137.498047	14238.778320	59.907528
504.012115	951.743591	23196.716797	14274.666992	59.891842
504.363251	955.161438	23194.263672	14277.416992	59.904648
504.714294	960.585632	23204.740234	14220.796875	59.612114
505.065369	962.443115	23154.062500	14188.031250	59.597218
505.416443	963.854797	23085.111328	14121.456055	59.479450
505.767395	968.535950	23030.052734	14112.984375	59.580887
506.118317	966.083984	22954.935547	14028.354492	59.404060
506.469238	956.201721	22934.500000	14104.143555	59.822380
506.820160	947.879822	22911.541016	14192.265625	60.301353
507.170929	956.053040	23005.087891	14364.871094	60.813629
507.521729	960.511230	23168.333984	14518.007813	61.048290
507.872498	967.867249	23380.912109	14714.614258	61.333687
508.223236	970.022156	23626.630859	14894.799805	61.460110
508.573883	973.068542	23815.509766	15029.659180	61.537167
508.924500	968.313049	24066.875000	15142.895508	61.365646
509.275116	958.653748	24209.388672	15234.956055	61.401512
509.625702	963.186218	24443.218750	15368.776367	61.352512
509.976196	974.257324	24619.093750	15493.231445	61.404423
510.326660	974.628723	24876.328125	15663.237305	61.454243
510.677124	969.130371	25103.916016	15771.941406	61.333923
511.027557	975.074707	25269.759766	15895.730469	61.415310
511.377869	970.170715	25407.962891	15964.682617	61.357880
511.728180	972.845520	25446.304688	15999.010742	61.397797
512.078430	962.368835	25527.814453	15970.477539	61.094387
512.428650	956.573242	25577.744141	15889.489258	60.650711
512.778931	954.418457	25599.367188	15807.309570	60.267483
513.129028	954.344177	25545.500000	15689.762695	59.921619
513.479126	951.520691	25422.228516	15586.036133	59.804222
513.829285	945.576416	25286.775391	15476.811523	59.698109
514.179382	936.660095	25112.388672	15399.164063	59.822411
514.529297	944.684875	25025.677734	15390.321289	59.987713
514.879272	945.353516	25049.974609	15499.622070	60.379578
515.229187	957.093323	25076.351563	15647.261719	60.906384
515.579163	948.102722	25239.669922	15904.051758	61.568485
515.928955	953.155273	25460.646484	16222.067383	62.303040
516.278748	942.827209	25904.009766	16703.697266	63.141521
516.628540	966.158264	26458.009766	17251.607422	63.884922
516.978333	975.297607	27112.912109	17834.732422	64.502579
517.327942	978.492615	27846.802734	18388.658203	64.798141
517.677612	965.712463	28534.843750	18847.480469	64.861557
518.027222	951.446289	29116.562500	19130.945313	64.546158
518.376831	943.793152	29659.044922	19186.523438	63.529758
518.726379	941.192566	29974.013672	19025.955078	62.290752
519.075867	936.660095	30041.259766	18643.371094	60.838188
519.425293	962.071594	29887.007813	18253.654297	59.780884
519.774658	961.551514	29546.474609	17796.095703	58.893089
520.124084	968.907471	29154.380859	17447.095703	58.463406
520.473389	944.238953	28607.212891	17064.583984	58.274082
520.822693	948.102722	28086.947266	16831.126953	58.525059
521.171997	959.991211	27696.859375	16647.375000	58.673229
521.521240	978.418213	27387.759766	16627.091797	59.254311
521.870361	984.659668	27232.914063	16652.281250	59.690147
522.219482	974.108582	27102.068359	16816.638672	60.634396
522.568604	958.356445	27168.343750	17003.064453	61.216007
522.917664	955.087158	27291.091797	17319.517578	62.137108
523.266724	959.991150	27653.390625	17725.210938	62.806614
523.615662	972.845520	28185.029297	18324.908203	63.765785
523.964600	976.412048	28963.943359	19088.294922	64.714111
524.313538	979.161316	29852.677734	19949.908203	65.702934
524.662354	972.102478	30878.130859	20821.923828	66.373978
525.011169	991.941345	31984.570313	21673.361328	66.730125
525.359985	979.458435	33157.957031	22507.333984	66.901428
525.708740	972.919739	34438.199219	23395.474609	67.002441
526.057434	946.616638	35792.218750	24420.330078	67.364922
526.406067	963.483398	37453.179688	25808.083984	68.086624
526.754700	972.845520	39428.371094	27701.095703	69.504311
527.103333	974.703125	41966.175781	30087.771484	71.022255
527.451782	953.675476	44739.750000	32624.466797	72.330742
527.800293	960.362610	47476.167969	34760.593750	72.663971
528.148743	955.235657	49683.781250	35925.738281	71.765945
528.497131	959.991150	51176.519531	35898.839844	69.576393
528.845642	948.622864	51759.644531	34753.316406	66.530235
529.193909	955.310120	51615.941406	32772.179688	62.803932
529.542175	955.830261	50655.656250	30317.888672	59.078796
529.890503	967.124207	49058.371094	27802.888672	55.801765
530.238770	960.585510	46798.011719	25662.375000	53.889999
530.586914	962.591797	44515.281250	24239.849609	53.446201
530.934998	968.238770	42309.675781	23456.107422	54.395470
531.283142	971.805359	40789.746094	23419.474609	56.375767
531.631226	978.566895	39625.937500	23843.890625	59.163982
531.979248	971.285156	39238.449219	24660.552734	61.904945
532.327148	974.851746	39268.839844	25493.560547	64.027565
532.675110	976.040527	39597.925781	26035.154297	64.883194
533.023071	957.984924	39875.222656	26123.130859	64.663239
533.370850	959.471008	39943.136719	25694.251953	63.449093
533.718689	954.418457	39863.035156	24892.673828	61.524303
534.066467	973.588562	39399.460938	23840.177734	59.508320
534.414246	964.077820	38582.578125	22738.937500	57.883381
534.761963	960.288391	37667.316406	21945.458984	57.169353
535.109619	957.762146	36813.730469	21558.117188	57.453072
535.457153	962.517517	36083.781250	21449.412109	58.331879
535.804749	965.118103	35461.863281	21389.523438	59.206760
536.152344	961.328613	35003.863281	21264.326172	59.640087
536.499817	961.031433	34493.183594	21023.507813	59.830566
536.847229	965.043701	34023.808594	20611.351563	59.428440
537.194641	963.186096	33563.433594	20059.503906	58.577217
537.542114	971.953857	33276.843750	19499.486328	57.352100
537.889404	965.712463	32902.359375	19073.880859	56.700279
538.236694	978.641113	32583.228516	18844.880859	56.530529
538.583984	975.223145	32425.853516	18952.765625	57.161152
538.931213	980.127136	32736.884766	19480.464844	58.256382
539.278381	970.616394	33644.714844	20473.447266	59.688965
539.625488	975.594727	35052.378906	21824.123047	61.181026
539.972595	982.207703	37010.707031	23445.185547	62.347805
540.319641	982.579285	39254.050781	25027.757813	62.827938
540.666687	982.579285	41694.972656	26335.337891	62.272823
541.013611	973.885742	43913.425781	27081.484375	60.800835
541.360596	974.257324	45408.324219	27109.349609	58.817692
541.707458	968.090149	46430.503906	26535.210938	56.237930
542.054260	968.610291	46668.644531	25517.859375	53.718231
542.401062	971.433777	46618.121094	24367.802734	51.255348
542.747864	971.136536	45844.855469	23041.201172	49.182606
543.094666	978.418152	44739.824219	21792.095703	47.561722
543.441284	980.795898	43209.636719	20596.119141	46.450066
543.787903	985.179749	41876.941406	19719.273438	45.813858
544.134460	976.412109	40771.316406	18950.982422	45.168018
544.481079	969.724854	40174.515625	18427.224609	44.528999
544.827637	967.792969	39738.285156	18019.375000	43.980824
545.174072	969.204773	39432.828125	17791.341797	43.735184
545.520508	981.390381	39183.316406	17727.441406	43.835621
545.866943	977.823792	38866.488281	17685.609375	44.097054
546.213318	985.031189	38499.136719	17623.712891	44.353134
546.559631	982.950684	37876.253906	17441.447266	44.611065
546.905823	981.464661	36955.496094	17100.546875	44.807549
547.252136	980.052917	35696.289063	16591.796875	44.969578
547.598389	974.777405	34135.636719	15985.562500	45.266575
547.944458	972.028137	32553.359375	15384.081055	45.634720
548.290588	974.851746	30931.851563	14806.452148	46.171513
548.636658	976.412048	29446.835938	14258.395508	46.651863
548.982727	984.659668	27990.205078	13799.426758	47.452358
549.328735	984.511047	26702.468750	13450.129883	48.470486
549.674622	986.294434	25564.298828	13185.909180	49.636314
550.020569	977.749512	24678.164063	13032.770508	50.864182
550.366455	971.656677	23909.353516	12910.395508	52.048553
550.712280	966.529846	23300.294922	12893.825195	53.404766
551.058044	973.142761	22864.728516	12939.002930	54.659634
551.403748	975.891907	22560.609375	13058.109375	55.975800
551.749512	976.114807	22372.328125	13182.343750	57.048546
552.095154	973.142761	22168.587891	13261.549805	57.976643
552.440735	978.418213	22095.328125	13326.415039	58.474449
552.786316	970.244934	21977.037109	13288.372070	58.638779
553.131897	967.644348	21824.121094	13165.105469	58.482845
553.477417	955.458679	21590.437500	12951.262695	58.133347
553.822815	957.687805	21311.283203	12741.281250	57.894409
554.168213	957.910645	21010.357422	12515.625000	57.637428
554.513672	963.186096	20655.859375	12276.295898	57.448315
554.859009	958.430847	20289.619141	12063.417969	57.445965
555.204285	966.975586	19919.000000	11896.237305	57.668045
555.549500	962.294617	19583.820313	11807.372070	58.239468
555.894714	966.529785	19295.154297	11715.903320	58.648006
556.239990	965.712402	19065.335938	11673.625977	59.160976
556.585022	985.774170	18843.095703	11617.601563	59.537632
556.930115	988.523438	18612.681641	11566.184570	60.017963
557.275146	983.842468	18407.904297	11465.875000	60.158371
557.620178	964.820984	18257.960938	11383.250977	60.246025
557.965149	963.483398	18166.794922	11294.682617	60.053547
558.310059	962.740417	18053.111328	11265.555664	60.284328
558.654968	966.752747	17898.634766	11209.532227	60.494038
558.999756	962.963318	17784.431641	11218.151367	60.964882
559.344604	958.876648	17743.490234	11244.230469	61.278465
559.689331	954.195557	17766.525391	11325.516602	61.688782
560.033997	957.613464	17781.906250	11373.071289	61.907257
560.378723	957.910645	17793.125000	11429.020508	62.197659
560.723389	965.043762	17817.125000	11438.606445	62.149963
561.067932	960.139832	17837.705078	11426.049805	62.010784
561.412476	958.356506	17798.398438	11383.918945	61.909367
561.757019	962.071594	17798.400391	11341.270508	61.647640
562.101501	965.563782	17782.796875	11345.653320	61.722939
562.445862	971.359436	17754.560547	11269.940430	61.362434
562.790222	956.647522	17688.283203	11232.788086	61.417435
563.134644	964.672180	17643.552734	11214.436523	61.453552
563.478943	964.969421	17657.224609	11279.078125	61.789780
563.823181	968.015869	17694.525391	11387.411133	62.292706
564.167358	963.186218	17778.113281	11534.160156	62.866600
564.511536	961.477234	17952.427734	11778.467773	63.663242
564.855774	958.133606	18145.244141	11998.848633	64.238342
565.199768	957.390625	18369.787109	12260.618164	64.914833
565.543823	951.743591	18576.794922	12431.440430	65.132843
565.887817	955.087158	18831.060547	12585.468750	65.061531
566.231812	959.545227	18995.863281	12581.679688	64.437401
566.575745	960.957092	19105.533203	12504.850586	63.621731
566.919617	961.179993	19092.380859	12341.756836	62.767918
567.263428	943.644592	18990.068359	12146.488281	62.077915
567.607239	938.591980	18865.982422	11985.547852	61.620548
567.950989	941.415527	18701.771484	11836.870117	61.347054
568.294678	948.697083	18602.353516	11759.817383	61.240120
568.638367	951.817871	18446.095703	11730.765625	61.614132
568.981995	944.833435	18302.839844	11721.179688	62.082863
569.325623	954.269836	18217.837891	11759.148438	62.587749
569.669128	970.244934	18208.548828	11794.218750	62.790245
570.012573	974.851746	18245.701172	11920.459961	63.376202
570.356140	978.269714	18381.228516	12085.262695	63.822441
570.699524	960.734192	18492.312500	12258.090820	64.440041
571.042908	955.532959	18726.142578	12445.036133	64.654526
571.386230	937.254578	18875.564453	12561.915039	64.803543
571.729492	961.031433	19082.720703	12656.502930	64.538528
572.072815	964.969421	19185.482422	12634.731445	64.047379
572.416016	978.641113	19228.798828	12587.475586	63.609497
572.759094	961.848694	19203.017578	12465.469727	63.064060
573.102234	959.693909	19113.779297	12344.059570	62.709660
573.445374	953.452454	19030.708984	12196.791992	62.196053
573.788391	948.548523	18910.710938	12105.176758	62.111832
574.131409	945.056335	18843.466797	12062.304688	62.113049
574.474365	938.146179	18780.162109	12017.276367	62.095730
574.817261	946.170715	18742.935547	11985.995117	62.032757
575.160156	954.715576	18672.423828	11879.519531	61.660362
575.502930	953.675354	18604.806641	11715.906250	60.971905
575.845703	945.427795	18544.175781	11509.046875	60.024834
576.188477	960.957031	18482.429688	11337.183594	59.220058
576.531250	967.570007	18309.455078	11153.135742	58.733902
576.873901	973.365723	18117.751953	10928.370117	58.065674
577.216431	946.170898	17918.771484	10681.833984	57.361053
577.559082	935.248352	17736.355469	10447.557617	56.617157
577.901611	925.811829	17516.642578	10218.854492	56.013130
578.244080	932.350586	17267.580078	9993.270508	55.468582
578.586487	947.656921	17082.716797	9878.770508	55.352219
578.928955	1058.962402	16975.275391	9906.781250	55.589626
579.271301	1067.432983	16760.763672	9814.944336	55.740311
579.613647	1060.448364	16448.617188	9672.952148	55.968349
579.955872	958.133606	16115.370117	9452.272461	56.040154
580.298157	954.344177	15878.194336	9370.984375	56.397243
580.640320	964.152100	15726.914063	9320.086914	56.601433
580.982483	962.740295	15528.301758	9252.545898	56.913738
581.324524	967.049988	15403.176758	9225.574219	57.207340
581.666626	962.888977	15302.644531	9163.754883	57.189720
582.008728	958.133606	15216.157227	9127.196289	57.294495
582.350647	944.016113	15121.198242	9080.981445	57.394802
582.692566	961.179993	15029.210938	9067.532227	57.622505
583.034424	963.334778	14948.816406	9034.170898	57.708675
583.376343	963.186096	14885.213867	8998.430664	57.716053
583.718201	944.016052	14855.120117	8985.280273	57.804642
584.059937	935.322571	14815.368164	8939.508789	57.666855
584.401611	935.842773	14793.300781	8886.605469	57.375332
584.743347	941.043945	14723.456055	8847.670898	57.367512
585.085022	939.112061	14684.594727	8834.593750	57.440556
585.426514	949.291504	14649.152344	8829.689453	57.521736
585.768127	938.220459	14686.824219	8800.786133	57.188103
586.109619	949.737366	14760.309570	8803.089844	56.864788
586.451172	945.427795	14795.825195	8815.200195	56.819832
586.792542	947.211121	14856.307617	8838.679688	56.736027
587.133850	945.056335	14891.898438	8877.540039	56.876560
587.475220	942.381348	14947.551758	8930.146484	57.034405
587.816589	946.319397	14925.856445	9000.065430	57.610966
588.157776	952.783752	14924.371094	9071.842773	58.111217
588.498962	951.520691	14897.398438	9144.659180	58.749538
588.840210	944.239014	14843.975586	9173.785156	59.206490
589.181335	951.520691	14829.114258	9217.698242	59.564922
589.522400	953.452576	14765.511719	9210.788086	59.783524
589.863403	966.083984	14727.320313	9196.299805	59.807240
590.204407	968.907471	14626.862305	9131.433594	59.763897
590.545410	965.712402	14626.268555	9073.922852	59.354904
590.886353	967.644348	14605.612305	8993.898438	58.852272
591.227112	949.811707	14583.543945	8903.026367	58.334831
591.567932	946.690918	14548.250000	8849.230469	58.100250
591.908752	941.638428	14528.635742	8823.521484	58.010483
592.249512	945.204895	14581.538086	8838.977539	57.887794
592.590149	948.102722	14600.187500	8855.100586	57.917877
592.930786	953.749756	14633.028320	8908.004883	58.148205
593.271423	954.567078	14622.774414	8974.356445	58.674774
593.612000	957.762024	14596.101563	9038.925781	59.253281
593.952576	946.393738	14647.073242	9137.228516	59.784149
594.292969	931.756042	14668.471680	9259.010742	60.620419
594.633484	916.375427	14728.210938	9397.139648	61.402153
594.973877	915.037903	14760.309570	9541.807617	62.308418
595.314209	940.598145	14870.946289	9705.125000	62.916790
595.654480	958.802246	15055.588867	9927.140625	63.619728
595.994812	959.322449	15249.370117	10133.776367	64.201706
596.335022	943.495911	15441.815430	10313.663086	64.629333
596.675171	946.468079	15561.515625	10363.965820	64.436996
597.015320	942.530029	15602.308594	10291.892578	63.775604
597.355408	949.068665	15548.809570	10075.597656	62.511581
597.695496	934.133789	15451.844727	9794.288086	61.029968
598.035461	943.793152	15270.100586	9479.020508	59.577301
598.375366	938.146179	15046.375000	9177.872070	58.403687
598.715271	942.381409	14787.208008	8917.069336	57.600491
599.055176	949.960266	14528.114258	8690.000977	57.003628
599.395081	944.239014	14259.659180	8536.565430	57.019051
599.734802	942.604309	14013.866211	8412.553711	57.147881
600.074524	932.053406	13775.948242	8369.086914	57.903259
600.414246	933.539368	13573.843750	8331.862305	58.529625
600.753906	946.765320	13398.191406	8367.006836	59.593510
601.093506	939.855164	13262.218750	8400.888672	60.548725
601.433044	949.365906	13178.403320	8503.722656	61.773930
601.772583	940.969666	13131.890625	8637.691406	63.134869
602.112122	963.706299	13226.106445	8842.321289	64.250191
602.451538	962.071594	13383.628906	9056.684570	65.165840
602.790894	964.672302	13608.096680	9279.592773	65.764786
603.130310	948.399963	13846.980469	9552.134766	66.702957
603.469604	945.204895	14100.872070	9827.500000	67.516876
603.808838	938.740540	14359.149414	10091.275391	68.198631
604.148010	932.499084	14612.299805	10240.475586	68.041756
604.487305	939.855042	14829.932617	10284.610352	67.276482
604.826416	947.805481	14955.949219	10206.593750	66.095757
605.165527	953.972656	14945.620117	10027.226563	64.847649
605.504456	942.975891	14861.956055	9783.215820	63.512123
605.843445	935.248352	14705.624023	9485.114258	62.088837
606.182434	931.013184	14549.737305	9190.949219	60.651314
606.521423	936.065735	14318.952148	8932.003906	59.747482
606.860229	938.146179	14085.417969	8724.253906	59.222233
607.199036	943.644531	13865.110352	8577.728516	59.080635
607.537903	938.591980	13769.186523	8519.995117	59.088478
607.876648	952.486572	13807.674805	8565.542969	59.221664
608.215271	956.944824	13982.805664	8671.721680	59.226616
608.553955	954.121277	14314.269531	8803.311523	58.750774
608.892578	957.910706	14861.360352	8917.515625	57.249138
609.231140	953.378235	15708.635742	8991.446289	54.475956
609.569641	956.721863	16787.435547	8994.864258	50.775616
609.908081	940.077942	18065.740234	8919.447266	46.593056
610.246521	945.353516	19368.863281	8780.426758	42.527580
610.584961	948.251282	20556.146484	8554.992188	38.794277
610.923340	945.056335	21424.744141	8332.678711	36.072926
611.261597	942.158508	21820.552734	8084.359375	34.208572
611.599854	947.434021	21872.119141	7898.156738	33.217812
611.938110	952.783691	21638.587891	7712.696777	32.678993
612.276245	957.613464	21229.402344	7598.716309	32.760319
612.614319	944.387512	20518.919922	7480.872559	33.392799
612.952393	940.598145	19631.746094	7370.087402	34.398579
613.290466	931.013123	18686.689453	7258.335938	35.635494
613.628479	939.483582	17781.234375	7166.052246	36.971031
613.966370	945.873596	16905.875000	7124.739746	38.714699
614.304260	937.105957	16036.754883	7093.681152	40.772972
614.642151	929.081238	15205.829102	7055.786621	42.913872
614.979980	920.387756	14491.854492	7000.059082	44.797451
615.317749	924.771667	13866.077148	6982.746582	46.811157
615.655396	933.242188	13398.191406	6995.154785	48.631668
615.993164	934.579590	12947.323242	7005.260254	50.535336
616.330811	951.446289	12592.824219	7019.452637	52.124470
616.668396	944.759094	12242.041992	6998.722168	53.587776
617.005859	960.362610	11984.583008	7014.622559	54.917801
617.343445	957.985046	11755.582031	7010.759277	56.056683
617.680908	965.117981	11555.708008	7029.631348	57.263226
618.018311	969.724792	11413.343750	7033.495605	58.061970
618.355652	971.136536	11263.325195	7015.588379	58.728535
618.692993	974.554504	11147.710938	7000.282715	59.231647
619.030273	957.836426	11009.136719	6974.275879	59.857323
619.367554	943.198730	10911.725586	6936.828125	60.125526
619.704712	933.465149	10851.690430	6912.159668	60.279877
620.041870	939.557922	10811.789063	6880.283691	60.176117
620.379028	928.635315	10749.002930	6853.906250	60.336552
620.716064	927.446533	10709.473633	6823.070801	60.269962
621.053040	922.096680	10652.929688	6803.899902	60.445011
621.389954	935.842712	10648.397461	6791.342285	60.287945
621.726929	935.545593	10603.667969	6763.479980	60.279903
622.063843	932.276184	10590.070313	6745.572754	60.192799
622.400635	927.372253	10560.125977	6738.588379	60.327675
622.737427	930.195801	10581.673828	6765.188965	60.456989
623.074219	939.037781	10596.682617	6803.825684	60.726898
623.410889	949.365906	10627.666992	6821.807129	60.676369
623.747559	953.601074	10668.012695	6859.850098	60.798832
624.084167	954.418396	10698.997070	6914.017090	61.158092
624.420715	951.520569	10775.157227	7012.021973	61.693054
624.757324	958.950867	10872.716797	7084.912598	61.792484
625.093750	962.888916	10984.616211	7166.868652	61.905289
625.430176	963.260498	11092.652344	7266.360840	62.225857
625.766602	965.489563	11184.416992	7405.751953	63.022877
626.102905	954.121277	11331.164063	7504.277832	63.121613
626.439209	955.978821	11450.420898	7578.134766	63.101551
626.775452	941.861328	11548.648438	7606.518066	62.833889
627.111694	934.356750	11593.304688	7584.747559	62.392559
627.447876	925.811829	11600.809570	7526.643066	61.834496
627.783997	930.641541	11553.182617	7425.145996	61.138897
628.120056	932.127625	11478.656250	7340.291504	60.760887
628.456055	940.969666	11371.139648	7231.363770	60.309601
628.792053	933.019226	11291.859375	7117.829590	59.705631
629.128052	932.424805	11230.113281	7019.378418	59.109901
629.463928	931.979004	11191.476563	6942.474609	58.584694
629.799744	933.465088	11142.510742	6885.558594	58.302155
630.135559	931.458984	11084.480469	6801.744629	57.818115
630.471375	923.880066	11030.758789	6728.854980	57.435883
630.807068	940.078064	10951.625977	6685.016113	57.383114
631.142700	948.177002	10862.909180	6661.016113	57.619698
631.478333	952.783875	10709.102539	6613.610840	58.022163
631.813965	938.963562	10560.200195	6542.429199	58.240601
632.149475	938.814880	10366.122070	6501.041504	59.001221
632.484924	940.969666	10228.809570	6512.558594	59.987995
632.820435	938.963440	10065.493164	6528.608887	61.246124
633.155884	941.935547	9923.351563	6550.899902	62.450779
633.491150	961.254333	9832.254883	6595.035645	63.507843
633.826477	967.570129	9732.319336	6611.753906	64.396408
634.161804	966.975586	9655.787109	6609.228027	64.936989
634.497009	945.873596	9515.652344	6522.664551	65.075089
634.832153	940.449524	9384.879883	6453.562500	65.286972
635.167297	926.183411	9245.264648	6367.222656	65.404327
635.502380	918.530273	9121.030273	6291.508301	65.504150
635.837463	928.783997	9033.055664	6239.868652	65.534386
636.172424	939.409241	8937.725586	6204.946777	65.833076
636.507324	951.074890	8858.295898	6166.160156	65.953453
636.842224	945.799316	8775.967773	6119.646484	66.075806
637.177124	946.616699	8675.362305	6059.164063	66.149773
637.511963	932.722107	8594.000977	6023.943848	66.453941
637.846741	922.394043	8501.940430	5964.799316	66.526482
638.181396	917.564270	8423.104492	5896.291504	66.334030
638.516113	927.966614	8335.500977	5839.822266	66.308914
638.850769	927.075012	8253.026367	5812.032715	66.680183
639.185303	930.121399	8204.432617	5771.909668	66.560089
639.519836	925.886230	8098.625000	5745.011719	67.186684
639.854370	925.291748	8025.660156	5695.303223	67.179779
640.188843	929.824219	7967.109375	5677.099121	67.458893
640.523254	933.019226	7954.031738	5649.532715	67.177116
640.857605	945.056335	7907.963379	5605.842285	66.937355
641.191895	930.567200	7827.791504	5547.886719	66.944603
641.526184	922.839783	7743.829590	5494.388672	67.021782
641.860413	916.821289	7695.234863	5476.259277	67.264084
642.194580	924.771667	7660.685059	5482.203125	67.658699
642.528748	919.570496	7625.763184	5459.317871	67.694855
642.862793	931.681824	7598.642090	5443.565430	67.675278
643.196838	929.972900	7554.208984	5421.498047	67.804428
643.530823	939.037781	7524.859375	5418.749512	68.020546
643.864746	929.155518	7489.343262	5423.950195	68.516258
644.198669	931.904724	7484.810059	5430.117188	68.644554
644.532532	937.848938	7472.921875	5421.052246	68.602188
644.866333	937.180176	7453.825684	5412.358887	68.673042
645.200073	943.495911	7416.303223	5389.770996	68.691605
645.533813	932.722107	7402.705566	5413.399414	69.253304
645.867554	923.880066	7409.541504	5400.470703	69.022888
646.201172	923.805725	7449.738770	5418.080566	68.867928
646.534729	930.790100	7452.116699	5411.393066	68.706924
646.868225	935.471191	7450.259277	5423.652832	68.892212
647.201782	923.285645	7416.748535	5404.111328	69.005180
647.535217	917.118469	7428.562988	5400.916504	68.860268
647.868591	923.954346	7437.925781	5403.070801	68.761681
648.201965	933.167786	7439.113770	5412.210449	68.845367
648.535278	933.316406	7444.463379	5385.238281	68.373848
648.868591	921.502258	7448.921875	5367.851563	68.118027
649.201782	921.205078	7474.779785	5346.452148	67.524170
649.534912	922.616882	7496.550781	5354.551270	67.416779
649.868103	918.232910	7482.952637	5333.003418	67.249947
650.201172	919.867676	7503.607910	5366.439941	67.538696
650.534180	929.304138	7498.259277	5378.328125	67.728027
650.867188	942.752930	7525.304688	5403.590332	67.767601
651.200134	937.254456	7520.178223	5395.789063	67.728790
651.533020	926.406250	7493.355469	5383.677734	67.874313
651.865845	941.786926	7475.671387	5367.479980	67.734482
652.198608	958.133545	7443.052246	5343.108398	67.618034
652.531433	957.687805	7401.219238	5301.795898	67.418121
652.864136	942.009949	7329.740723	5277.647949	67.874466
653.196777	2715.392822	9191.618164	6379.705566	56.580994
653.529358	2799.652344	9184.485352	6390.702637	56.243450
653.861938	2795.491211	9131.359375	6346.343750	56.043663
654.194519	1000.411804	7151.785645	5164.559082	67.694588
654.526978	927.372314	7081.495605	5115.445313	68.053131
654.859375	922.171143	7023.984863	5088.695801	68.283379
655.191833	934.430969	6995.378418	5081.266113	68.418922
655.524170	920.759277	6938.239746	5071.680664	68.981056
655.856445	934.802490	6920.927246	5078.888184	69.228188
656.188660	984.436707	6961.421875	5147.098145	69.644836
656.520874	996.845215	6957.037598	5165.004395	69.933296
656.853088	990.826721	6998.572754	5217.165527	70.348160
657.185181	932.796387	6961.644531	5214.787598	71.025032
657.517212	924.697327	7048.207031	5298.824707	71.431702
657.849243	931.904785	7117.309082	5415.331543	72.483971
658.181274	943.793152	7242.063965	5575.527832	73.539787
658.513123	940.523743	7336.873535	5696.417969	74.353256
658.844971	936.660095	7454.644043	5799.921875	74.612976
659.176819	930.121399	7543.806641	5854.385254	74.455673
659.508667	930.047180	7615.880371	5888.787598	74.167877
659.840393	930.270020	7656.970215	5889.084473	73.718384
660.172058	932.276184	7670.789551	5839.599121	72.825005
660.503662	941.638367	7651.396973	5748.950684	71.646576
660.835266	942.455750	7607.781250	5615.650879	70.112030
661.166931	938.591980	7500.933594	5457.758301	68.865150
661.498413	935.025452	7393.937500	5347.121582	68.310204
661.829773	938.740540	7264.725098	5218.131348	67.647820
662.161194	951.817871	7169.915527	5159.804199	67.673210
662.492615	944.090332	7048.281250	5061.724121	67.455849
662.823975	948.622803	6941.285156	4995.668945	67.533363
663.155212	933.687988	6811.775879	4911.112793	67.665283
663.486450	934.505310	6694.525879	4844.834473	67.887413
663.817627	931.979004	6578.763184	4804.116699	68.572441
664.148743	936.288574	6482.392090	4759.237793	68.930359
664.479858	939.706543	6409.798340	4725.652832	69.211754
664.810913	932.573425	6342.628906	4680.253906	69.272491
665.141907	930.418640	6280.585938	4660.563965	69.720161
665.472778	932.722107	6243.509277	4658.632324	70.157402
665.803711	957.985046	6224.636719	4696.897949	70.992218
666.134583	957.613464	6197.070313	4708.117676	71.581924
666.465454	973.365540	6154.346191	4711.832520	72.157524
666.796143	943.495911	6109.986816	4663.461426	72.001785
667.126831	953.972656	6112.438965	4658.482910	71.814178
667.457458	944.387634	6104.935059	4644.812012	71.706039
667.788147	948.474304	6101.441895	4632.700684	71.497177
668.118774	948.771423	6089.479980	4618.434570	71.384384
668.449219	950.183105	6094.234863	4623.784180	71.414543
668.779663	955.978821	6094.532715	4652.316406	71.933426
669.110107	935.248352	6083.164063	4664.278809	72.437675
669.440552	934.356689	6072.314941	4666.656738	72.641701
669.770874	919.570496	6058.123535	4642.359863	72.448196
670.101135	926.926453	6030.408691	4607.808594	72.124908
670.431396	917.044250	5989.244629	4555.797363	71.739151
670.761597	915.409607	5926.682129	4525.333496	72.036072
671.091797	913.031921	5902.682129	4499.772949	71.883614
671.421875	906.790466	5866.274902	4492.490723	72.299858
671.751892	914.220703	5856.466309	4498.063477	72.514458
672.081909	923.434265	5809.209473	4499.104004	73.185303
672.411865	931.161682	5782.535156	4482.385742	73.200386
672.741821	920.536438	5738.473145	4442.931152	73.110031
673.071716	911.768555	5729.037109	4423.835449	72.905777
673.401550	908.276367	5700.133301	4409.718262	73.070671
673.731262	912.511719	5682.300781	4406.448730	73.251396
674.060974	909.985413	5623.453125	4363.056152	73.259666
674.390625	920.387756	5607.552246	4344.703125	73.057289
674.720276	923.211243	5567.726074	4308.963867	72.897881
675.049927	933.985168	5552.345215	4308.220703	73.061340
675.379395	928.412415	5531.169434	4290.239258	73.039421
675.708923	935.768494	5501.894043	4276.642090	73.166489
676.038330	931.087402	5486.587402	4263.638672	73.154457
676.367737	930.047119	5453.299805	4252.716309	73.457512
676.697083	944.684875	5459.615234	4265.719238	73.556717
677.026428	946.245178	5445.795410	4269.508301	73.857674
677.355652	939.929504	5452.333984	4278.127441	73.978256
677.684875	934.653992	5477.671387	4318.103027	74.475807
678.013977	924.920227	5487.033203	4335.563965	74.760178
678.343079	933.687927	5512.444824	4368.183105	75.009338
678.672180	921.725281	5519.131348	4386.609863	75.366074
679.001221	923.805664	5576.865234	4446.497559	75.707001
679.330139	921.056458	5634.523926	4516.937012	76.289497
679.659058	914.220703	5695.080566	4578.979980	76.654816
679.987976	920.164856	5747.538574	4624.155273	76.728897
680.316772	921.502380	5779.710938	4653.133789	76.810852
680.645630	921.056458	5805.643066	4664.873535	76.645531
680.974304	909.688171	5817.011719	4650.607422	76.231354
681.302979	902.257996	5815.822754	4626.013184	75.785202
681.631653	907.013367	5804.751953	4579.425293	74.981781
681.960266	925.514709	5807.427246	4556.837402	74.383202
682.288757	936.883057	5788.404785	4500.887695	73.461586
682.617249	933.390808	5762.027344	4452.664551	72.883377
682.945679	930.790222	5693.520996	4400.059082	72.842003
683.274109	933.242188	5627.836426	4357.409180	72.938507
683.602478	942.604309	5533.100098	4293.285645	72.991714
683.930725	936.511536	5437.918457	4214.599121	72.823624
684.259033	925.068848	5349.572754	4145.943359	72.796288
684.587280	917.935852	5289.164551	4098.612793	72.763916
684.915344	924.325867	5241.091309	4054.848389	72.520096
685.243469	934.430969	5213.524902	4044.148438	72.672340
685.571533	940.078064	5184.249512	4017.994141	72.521011
685.899536	939.334961	5172.286621	4009.449219	72.528923
686.227539	919.867676	5123.023926	3989.015869	73.020081
686.555420	913.031921	5112.026855	4019.480225	73.980751
686.883301	911.397156	5106.454590	4055.145264	74.939331
687.211121	920.387878	5151.036133	4076.618896	74.603951
687.538940	928.783997	5186.701660	4096.011719	74.384430
687.866638	922.245422	5204.979980	4085.014893	73.849304
688.194336	917.712891	5183.729004	4074.984375	74.009834
688.521973	909.836853	5149.327637	4026.167236	73.507187
688.849609	913.700500	5107.643066	3996.669189	73.510040
689.177063	919.273254	5093.971191	3964.124268	72.935844
689.504578	924.028625	5036.684082	3914.787354	72.720871
689.832031	920.462097	4960.672363	3876.075439	73.154938
690.159485	921.353699	4872.549316	3829.710938	73.607018
690.486816	918.158691	4817.714355	3801.996094	73.952972
690.814087	942.827332	4792.451172	3789.141846	73.937469
691.141296	951.297852	4733.528809	3766.999268	74.445518
691.468506	948.548523	4682.854004	3752.510498	75.086571
691.795715	921.873779	4618.285645	3698.566650	75.118599
692.122803	911.025635	4576.304688	3664.461670	75.122139
692.449829	905.898743	4540.787598	3639.867432	75.214645
692.776855	907.013367	4500.738281	3614.158936	75.329796
693.103821	900.103210	4477.185059	3588.821533	75.165131
693.430664	901.812073	4440.924805	3548.400391	74.781128
693.757568	901.886414	4422.051758	3535.546143	74.816360
694.084351	907.087585	4401.767578	3521.651611	74.815552
694.411133	918.530273	4380.219238	3515.558838	75.022011
694.737854	922.839844	4364.393066	3518.679688	75.426407
695.064575	919.496277	4353.693359	3527.447266	75.940636
695.391174	914.740784	4346.263184	3559.471924	77.071655
695.717773	909.242432	4340.393066	3564.598877	77.389679
696.044250	914.146423	4341.953613	3586.592041	77.963707
696.370789	910.282654	4366.102051	3606.282471	78.013329
696.697205	917.787170	4419.302734	3645.142822	77.890717
697.023621	916.524109	4470.052246	3709.043213	78.584412
697.349915	935.619873	4550.298340	3818.788330	79.762794
697.676208	925.291809	4630.545410	3947.257813	81.558952
698.002380	927.075012	4766.965332	4080.111084	82.112663
698.328674	906.418762	4903.459473	4209.472168	82.637474
698.654724	910.876953	5045.005859	4336.381348	82.859161
698.980896	911.025635	5151.185059	4419.748535	82.749794
699.306946	929.155518	5207.357422	4429.482422	81.817711
699.632935	935.248291	5210.478027	4380.591309	80.588493
699.958862	939.112061	5177.339355	4277.161621	78.760506
700.284729	920.610657	5096.200684	4146.166016	77.247902
700.610596	919.644775	5018.479980	4015.987549	75.542023
700.936340	918.678772	4886.815430	3903.716553	75.225174
701.262146	919.421875	4754.779785	3787.507080	74.780121
701.587830	917.192810	4618.954590	3673.823975	74.468086
701.913513	911.917297	4491.376465	3575.669922	74.417740
702.239075	914.146301	4385.197754	3488.438477	74.164619
702.564697	914.294922	4277.013184	3440.364502	75.119873
702.890137	913.626221	4187.850098	3380.105225	75.330185
703.215698	910.579834	4122.018066	3333.666016	75.451744
703.541016	903.000977	4043.702393	3270.285889	75.374405
703.866455	906.864685	3992.062256	3234.322998	75.439522
704.191711	920.759277	3955.133789	3216.416016	75.655022
704.517029	922.468262	3928.905029	3200.292236	75.764908
704.842163	927.298035	3919.988525	3198.360596	75.886986
705.167419	922.542542	3908.620361	3198.509033	76.219261
705.492493	930.641541	3916.125000	3198.137695	75.950722
705.817566	923.359863	3922.143799	3167.599365	74.838318
706.142578	920.164978	3931.431396	3149.840820	74.044456
706.467590	923.582825	3958.403320	3132.973877	72.801376
706.792480	932.424805	3971.108643	3128.739014	72.278473
707.117371	935.545593	3996.000000	3112.986572	71.147636
707.442200	947.136719	4030.625244	3135.649170	70.975212
707.766907	940.821106	4055.071045	3145.531250	70.794258
708.091675	946.245178	4075.578369	3172.428955	71.139236
708.416321	930.047180	4063.392822	3149.543945	70.834724
708.741028	936.437195	4077.807617	3156.156982	70.660873
709.065552	928.932617	4084.271729	3159.500732	70.691864
709.390137	929.229919	4072.903564	3169.085205	71.249611
709.714600	932.053284	4057.820068	3188.552734	72.190269
710.039063	938.146179	4042.587891	3221.022705	73.535812
710.363403	950.777588	4075.058350	3276.155518	74.429222
710.687744	943.718933	4107.900391	3319.399658	75.080421
711.012085	937.477356	4140.816406	3336.043213	74.877052
711.336304	933.836609	4171.354980	3350.680908	74.651138
711.660461	930.864441	4175.738281	3352.910156	74.642212
711.984619	933.316467	4183.391602	3352.315674	74.429024
712.308716	916.598450	4165.410645	3326.532471	74.178925
712.632751	914.369324	4150.772949	3297.034424	73.620766
712.956726	921.056458	4121.720703	3275.041016	73.546753
713.280701	930.195801	4060.420898	3253.121826	74.209549
713.604553	949.068665	4008.854492	3212.329346	73.967941
713.928467	947.879883	3938.341064	3182.013672	74.708672
714.252258	947.136780	3871.320313	3161.580811	75.728630
714.575989	940.003723	3812.621094	3173.617920	77.755371
714.899719	931.904785	3766.999268	3166.261963	78.810677
715.223267	929.675720	3746.491455	3162.769531	79.277245
715.546936	931.533203	3728.584717	3147.908936	79.239716
715.870422	924.400146	3716.102295	3147.686279	79.639091
716.193970	921.502380	3687.867188	3128.292969	79.772217
716.517395	917.267090	3659.260498	3125.915283	80.548996
716.840820	918.678772	3604.127686	3098.720703	81.179794
717.164124	922.616882	3579.012939	3074.423828	81.004745
717.487488	922.616882	3545.948486	3033.260010	80.456589
717.810730	923.359863	3528.190186	2996.480225	79.587540
718.133972	919.198914	3478.110352	2953.458984	79.497086
718.457092	912.214539	3428.550537	2902.338623	79.088173
718.780212	908.945129	3380.847900	2861.843750	79.003860
719.103210	907.756348	3332.105469	2816.444580	78.729927
719.426208	905.155762	3281.133789	2794.079346	79.500885
719.749207	928.412598	3250.372314	2793.782471	80.336014
720.072083	934.356689	3219.982666	2771.788818	80.390762
720.394958	937.105957	3195.165771	2745.634521	80.092148
720.717773	915.260925	3144.194092	2677.127197	79.045273
721.040527	907.682068	3127.327148	2669.102295	79.355942
721.363281	909.242371	3106.076416	2659.666016	79.679375
721.685913	924.623047	3108.751221	2677.498535	80.255157
722.008545	938.517639	3069.891357	2668.062012	81.146935
722.331055	935.248352	3041.507568	2656.396729	81.715889
722.653503	917.861511	3011.860596	2628.087158	81.672699
722.976013	916.078308	3017.730713	2614.118408	80.795479
723.298401	925.811951	3025.012451	2602.229736	79.859825
723.620789	926.257751	3004.430420	2607.505371	80.900284
723.943115	918.381653	2990.461670	2615.158447	81.887611
724.265381	905.898743	2977.904297	2616.421631	82.553970
724.587585	907.533508	2990.981689	2607.505371	81.594154
724.909790	905.007141	2991.279053	2620.805420	82.242317
725.231873	913.403381	2981.619385	2617.239014	82.381897
725.553894	937.180237	2979.687500	2641.015869	83.418831
725.875916	1515.403931	3505.379639	3048.120361	77.021866
726.197937	1547.651367	3538.592773	3077.395752	76.835228
726.519775	1529.967407	3541.713623	3071.005859	76.602028
726.841675	949.514465	3028.133545	2663.158203	82.441452
727.163513	921.130859	3007.031250	2662.861084	83.500160
727.485291	916.969910	3018.250977	2680.767822	83.939171
727.806946	932.796387	3060.603516	2710.191650	83.531784
728.128662	930.418701	3083.265625	2725.126465	83.364395
728.450256	933.242188	3106.968506	2746.674561	83.425056
728.771790	931.087402	3089.507080	2737.014893	83.668968
729.093323	917.787170	3091.216064	2721.262939	82.978363
729.414795	924.028564	3089.061279	2707.294189	82.366684
729.736145	911.025696	3089.507080	2702.687256	82.243599
730.057495	914.369324	3075.538330	2706.922363	82.943680
730.378845	908.945251	3069.965576	2707.888428	83.245087
730.700134	911.545837	3076.132813	2719.330811	83.516396
731.021301	915.558167	3097.606201	2740.135742	83.617661
731.342468	918.307373	3111.575195	2760.717529	84.002975
731.663574	925.217529	3121.011475	2764.878662	83.781136
731.984680	926.183411	3144.862549	2779.590576	83.536514
732.305664	916.152527	3150.361084	2775.281006	83.211945
732.626648	910.877014	3156.305420	2780.036377	83.242882
732.947571	904.264160	3142.261963	2779.516357	83.791512
733.268433	906.790466	3131.488281	2769.262451	83.717979
733.589233	901.514954	3106.893799	2754.699219	84.030197
733.909973	917.192871	3103.847656	2730.773682	82.938599
734.230713	935.768494	3097.680420	2727.727295	82.887688
734.551331	936.362976	3063.798096	2693.399170	82.589417
734.871948	926.406311	3007.179688	2645.325439	82.609627
735.192505	918.010071	2955.985107	2588.335449	81.960052
735.513062	920.164856	2928.864502	2563.146729	81.793304
735.833435	929.675598	2896.840088	2536.323486	81.673286
736.153931	921.948181	2865.261475	2506.156250	81.520981
736.474304	930.492981	2838.661133	2481.562256	81.285774
736.794617	930.047119	2833.385742	2475.469482	81.195343
737.114807	945.427917	2836.729248	2478.367432	81.052101
737.434998	940.375244	2831.230713	2480.076416	81.428810
737.755188	937.477478	2824.097900	2489.512695	82.265366
738.075256	926.480652	2800.766846	2500.806396	83.996017
738.395325	917.935852	2802.327393	2516.707275	84.842850
738.715271	928.338196	2819.119385	2539.666992	85.220268
739.035278	925.068848	2830.264893	2550.812500	85.332092
739.355164	926.332031	2826.846924	2553.933350	85.640022
739.675049	915.186707	2813.546875	2536.843506	85.424088
739.994873	920.387878	2824.692383	2533.648438	84.716522
740.314636	927.000732	2826.326904	2510.688721	83.381569
740.634277	925.514648	2820.531250	2481.264893	82.096916
740.953979	915.558105	2782.710938	2450.206299	82.191887
741.273499	916.969910	2756.259521	2431.705078	82.354355
741.593140	923.211243	2717.399170	2414.987061	83.144905
741.912598	922.393860	2693.993896	2388.089600	82.732880
742.232117	920.462097	2669.028320	2371.668701	82.994087
742.551453	906.938965	2650.229492	2343.879395	82.426903
742.870850	921.576660	2639.678467	2344.696777	82.830956
743.190063	922.319641	2613.152344	2327.012695	83.076996
743.509338	928.932617	2586.106201	2322.406006	84.087349
743.828552	921.502380	2559.951904	2298.554688	84.046059
744.147705	915.706726	2543.827881	2280.796387	83.844475
744.466797	922.542664	2525.995117	2266.827393	83.836891
744.785828	933.985168	2514.924316	2268.239014	84.396278
745.104858	944.090332	2516.558838	2266.827393	84.118507
745.423706	943.644531	2521.760254	2257.985596	83.285469
745.742615	942.307129	2517.376221	2239.781250	82.375694
746.061401	951.372009	2516.038818	2232.945557	81.907120
746.380249	944.981995	2492.038818	2230.047607	83.065186
746.698975	940.449524	2481.339355	2220.760010	83.089035
747.017639	928.783997	2463.878174	2213.700928	83.702812
747.336304	932.276184	2456.076416	2218.084717	84.381699
747.654907	938.443359	2451.766846	2233.019775	85.545250
747.973389	941.266846	2451.098145	2248.994873	86.614182
748.291931	940.226563	2449.463623	2244.165283	86.397209
748.610352	933.242188	2439.209717	2229.824463	86.096298
748.928711	934.430969	2433.265625	2225.366455	86.129280
749.247070	940.895325	2460.683350	2240.078369	85.484489
749.565308	934.208008	2465.661865	2238.889648	85.192360
749.883545	930.418640	2461.797607	2220.833984	84.264923
750.201782	923.657043	2443.444824	2202.704346	84.159599
750.519836	931.681824	2442.627441	2201.961182	84.071808
750.837952	933.910889	2435.420166	2200.772461	84.372543
751.155884	934.059509	2414.689697	2190.072998	84.829659
751.473877	925.366028	2399.829346	2177.441406	84.917366
751.791809	912.585999	2384.820068	2169.119385	85.348755
752.109619	909.465332	2383.111084	2163.918213	85.125809
752.427490	910.356934	2375.829346	2166.667236	85.727325
752.745300	929.155579	2388.906982	2190.444092	86.404335
753.062988	926.852112	2377.092773	2187.249268	86.909515
753.380615	929.304138	2359.408691	2182.939697	87.660416
753.698303	927.966614	2350.566406	2177.218262	87.814697
754.015808	926.034851	2360.968994	2182.865234	87.588020
754.333374	926.703552	2362.232178	2178.704346	87.215317
754.650757	924.028625	2345.662598	2162.952393	87.147873
754.968262	924.102966	2345.513916	2166.147461	87.381096
755.285583	932.722107	2362.752197	2174.172119	86.812859
755.602905	928.486816	2376.646729	2170.754150	85.782471
755.920105	928.338196	2360.003174	2168.079346	86.594360
756.237305	909.093811	2341.575928	2165.255615	87.691277
756.554443	909.539551	2317.427490	2169.119385	89.465912
756.871582	913.997742	2320.102295	2170.159668	89.336311
757.188599	922.171143	2316.015869	2158.048096	88.666763
757.505615	927.446594	2349.377686	2174.394775	87.693993
757.822510	937.254578	2370.777100	2187.323486	87.202599
758.139465	945.427795	2406.962402	2220.165527	87.219131
758.456238	942.009949	2408.002686	2223.360352	87.404961
758.773010	929.229797	2407.928467	2233.540039	88.206627
759.089783	927.446533	2408.151367	2249.960693	89.316528
759.406433	919.496155	2419.370850	2251.149658	88.784317
759.723145	920.907959	2426.206787	2244.313721	87.916481
760.039673	917.638672	2438.763916	2241.787354	87.050606
760.356201	926.926453	2435.940186	2253.006836	87.877289
760.672668	930.195740	2449.760498	2269.205078	88.117950
760.989136	925.143127	2442.033203	2260.288818	88.018616
761.305481	923.508484	2432.745361	2266.827393	89.006500
761.621826	927.892334	2432.522461	2279.310303	89.817291
761.938049	949.365906	2464.546875	2317.055908	90.265785
762.254333	943.644531	2507.048096	2336.374756	89.083221
762.570496	931.087402	2535.134521	2374.046387	89.957397
762.886597	906.270264	2574.292236	2444.114014	92.195656
763.202637	911.099915	2664.495850	2577.115479	95.016510
763.518677	919.644775	2808.197266	2738.055420	96.285950
763.834656	927.297852	2958.214111	2882.796875	96.286545
764.150574	918.678772	3083.637451	2968.764893	94.694008
764.466370	920.536377	3126.955811	2981.842529	93.423134
764.782288	918.232971	3118.930908	2913.038330	90.644218
765.097961	936.362854	3072.045898	2806.264893	87.555222
765.413696	925.291809	2993.953857	2682.031006	84.921516
765.729309	925.514709	2885.620361	2561.883545	83.483704
766.044861	924.920349	2777.064209	2471.531494	83.503838
766.360474	932.796387	2692.656250	2385.042969	82.520584
766.675903	930.567200	2605.201904	2328.350098	83.467926
766.991394	918.455872	2531.791016	2272.622803	83.935875
767.306763	919.867676	2467.296387	2257.539551	86.444817
767.622131	923.508545	2421.005615	2228.338623	87.134064
767.937378	918.604553	2368.993652	2199.360596	88.304306
768.252625	928.263855	2332.362305	2164.364014	88.035149
768.567810	920.610657	2295.879883	2147.348633	89.199844
768.882996	934.951172	2257.985352	2144.227783	91.401764
769.197998	925.366150	2225.812256	2119.708008	91.840935
769.513062	936.511536	2205.601807	2109.677002	92.441452
769.828064	929.452820	2190.592773	2074.977783	90.832504
770.142944	926.034851	2175.732178	2070.965576	91.616638
770.457825	925.514648	2161.837646	2047.263062	90.732635
770.772705	917.564270	2134.048584	2033.665527	91.748100
771.087402	918.753113	2126.023682	2010.780273	90.454216
771.402100	916.226868	2102.024170	1994.359375	90.920471
771.716736	924.474426	2090.804443	1981.579468	90.635147
772.031372	930.195801	2066.953125	1970.805298	91.541924
772.345947	926.629211	2061.231934	1962.037720	91.257355
772.660461	931.236023	2069.479492	1961.889038	90.547684
772.974854	929.304138	2057.219727	1951.932617	90.665344
773.289246	934.951111	2051.795410	1943.090454	90.266785
773.603638	933.985168	2033.591187	1920.799683	89.742561
773.917908	927.372314	2022.891602	1912.031860	89.880623
774.232178	922.616943	2002.978516	1907.573730	91.169182
774.546265	920.313477	1988.935181	1908.613892	92.483658
774.860474	925.440430	1978.978516	1904.304321	92.912056
775.174561	936.585876	1977.566895	1896.205444	92.184158
775.488586	937.848938	1978.755859	1897.319946	92.176437
775.802551	939.037842	1972.365845	1895.536621	92.564873
776.116516	932.276184	1953.344238	1892.415894	94.032883
776.430359	929.675598	1936.254517	1888.255249	95.231445
776.744202	940.003723	1942.570313	1894.050659	95.160454
777.057922	934.876892	1944.799316	1884.094116	93.989120
777.371704	933.985168	1944.130737	1872.948608	92.953278
777.685303	922.245422	1928.824219	1852.738281	92.441132
777.998962	922.839844	1924.737793	1840.775391	91.619667
778.312500	924.102966	1913.295044	1831.784790	91.759918
778.626038	923.062683	1898.954712	1819.376465	91.845589
778.939453	925.514648	1904.824585	1833.345337	92.701057
779.252869	939.260681	1923.920288	1849.617798	92.453995
779.566223	943.124329	1926.446655	1850.286499	92.254814
779.879578	936.362854	1924.440430	1834.831421	90.930977
780.192749	922.245422	1908.613892	1826.955444	91.721306
780.505920	911.917297	1908.836914	1837.654907	92.859802
780.819031	912.214539	1889.889648	1842.484497	95.151237
781.132141	957.019043	1933.282593	1876.960938	94.230896
781.445190	961.625793	1933.133911	1875.697876	94.087952
781.758118	972.176819	1943.462036	1880.973267	93.566383
782.071045	925.960510	1882.385132	1833.196777	94.857056
782.383911	922.096741	1867.598755	1815.289673	94.467583
782.696838	911.768738	1846.942749	1793.073242	94.239624
783.009583	916.078308	1843.896484	1779.698853	93.080795
783.322266	917.712891	1826.212280	1768.182007	93.612511
783.634888	915.186584	1819.822266	1759.562866	93.338821
783.947510	900.623230	1806.819336	1749.457642	93.670059
784.260132	897.131042	1801.320923	1744.925171	93.762840
784.572571	897.948303	1788.540894	1737.346191	94.251617
784.885010	910.505554	1774.794922	1736.454468	95.563934
785.197449	924.102844	1783.042358	1733.705200	94.256035
785.509766	935.917053	1787.351929	1735.339966	93.891258
785.822083	932.721985	1779.029907	1728.281250	94.003525
786.134277	931.013000	1760.974487	1731.030396	96.392113
786.446533	930.641602	1751.092163	1734.374023	97.962318
786.758606	947.954102	1759.414063	1747.897095	98.580711
787.070740	948.474182	1769.593628	1745.445313	97.059097
787.382690	936.882996	1770.262329	1743.661987	96.808136
787.694641	912.734558	1778.286987	1750.794922	96.823753
788.006653	901.663574	1793.964844	1778.881470	98.309608
788.318481	912.065918	1830.670410	1808.676880	97.605766
788.630310	912.363220	1859.128418	1839.438110	97.920258
788.942017	908.945251	1867.598999	1857.270874	98.922646
789.253784	909.019531	1876.663696	1868.713501	99.178398
789.565430	915.558105	1879.264526	1862.992065	98.311470
789.877014	922.914063	1879.561646	1842.410156	96.116493
790.188538	918.455872	1860.168579	1823.240112	96.078583
790.500061	917.935791	1827.252563	1800.726196	97.082825
790.811462	920.610657	1801.989624	1778.361328	97.319168
791.122925	929.081238	1791.215820	1761.643188	96.569839
791.434204	929.452637	1786.683228	1730.733398	93.473190
791.745483	928.783997	1776.429565	1707.179321	91.830284
792.056702	914.294983	1748.788940	1685.408569	92.404930
792.367920	916.152588	1731.030640	1681.247681	93.890747
792.678955	911.397156	1713.272095	1681.024780	95.978508
792.990112	917.341370	1705.173218	1683.476685	97.246048
793.301086	914.815125	1694.473633	1671.885376	97.102798
793.612122	927.818115	1704.281616	1671.142456	95.732040
793.922974	924.400208	1699.228882	1661.408813	95.118912
794.233826	923.434265	1707.773804	1672.851563	95.547562
794.544556	918.307312	1703.241211	1673.520142	96.213554
794.855286	921.279480	1698.783203	1670.547974	96.368477
795.166016	930.864502	1702.052368	1677.012329	96.753059
795.476624	924.548767	1694.993774	1682.510742	98.379761
795.787292	916.003906	1709.854126	1691.501465	97.688148
796.097778	904.189758	1718.176147	1697.594116	97.471451
796.408264	904.784241	1740.095337	1713.123535	96.771049
796.718689	913.031921	1764.689819	1740.021118	97.103447
797.029053	918.976135	1765.135376	1747.154175	97.874962
797.339355	921.428040	1764.095337	1741.953003	97.372353
797.649658	927.223633	1745.073853	1729.172852	98.055756
797.959839	920.016357	1736.306030	1714.312500	97.305672
798.270020	920.387878	1726.349487	1703.984375	97.225037
798.580078	925.737610	1732.739380	1707.179321	96.832710
798.890137	929.527039	1719.885132	1695.365234	96.897621
799.200195	929.898621	1711.265991	1681.990845	96.253342
799.510071	921.428040	1684.442749	1663.415039	97.244125
799.820007	918.753113	1676.343628	1648.628906	96.341728
800.129883	912.660339	1665.495483	1643.353149	97.058807
800.439575	907.310547	1669.359253	1627.749634	94.539772
800.749329	909.093750	1663.637817	1639.860962	96.848846
801.058960	907.904968	1653.607056	1639.860962	98.156624
801.368591	908.127869	1638.820801	1632.059204	99.074631
801.678162	912.065857	1635.848633	1625.223267	98.531967
801.987671	916.301086	1624.257446	1620.319458	99.443756
802.297119	920.982239	1616.232788	1631.464844	102.190872
802.606506	913.180481	1595.873901	1607.242188	101.665215
802.915894	910.654114	1595.650879	1605.235962	101.399292
803.225159	901.812073	1585.397095	1578.784302	99.032631
803.534424	905.230042	1597.137085	1587.180542	98.560997
803.843628	901.366272	1596.468140	1569.793579	96.162498
804.152771	914.146301	1607.464966	1585.471313	96.827774
804.461792	924.251465	1616.604126	1600.332031	97.649742
804.770874	929.898621	1621.508301	1613.632202	98.861191
805.079773	921.873840	1617.421509	1610.065796	98.942459
805.388733	914.666504	1606.127563	1608.802612	100.386871
805.697571	913.626221	1606.276367	1608.505249	100.321793
806.006470	914.517883	1624.331909	1619.947876	99.382370
806.315125	909.465332	1640.752563	1622.697266	97.531029
806.623901	903.075256	1648.554321	1629.978882	97.508255
806.932495	898.171326	1641.718384	1618.164551	96.832237
807.241150	904.932861	1634.288208	1607.687988	96.352913
807.549622	915.706787	1617.198853	1601.446655	97.754471
807.858154	921.799622	1607.019409	1596.171265	98.416840
808.166565	919.496277	1595.428101	1586.660278	98.702850
808.474915	915.855408	1599.960327	1577.298218	96.687332
808.783264	920.239197	1597.211304	1579.527222	97.387772
809.091492	920.313477	1577.818237	1572.319946	99.163765
809.399719	914.666504	1561.174438	1563.775024	100.402252
809.707825	904.487000	1557.162109	1545.793823	98.258202
810.015930	897.279602	1564.072266	1538.660645	96.188980
810.323975	908.425110	1572.319946	1536.431641	94.594276
810.632080	912.660339	1548.022949	1531.824829	97.450569
810.939880	911.694397	1530.636108	1525.063354	99.099632
811.247864	908.647949	1520.753906	1523.205688	100.400551
811.555664	903.149597	1517.410156	1509.162598	98.657318
811.863464	914.517883	1519.639282	1510.871582	98.551086
812.171143	907.013367	1500.320679	1498.834473	99.749504
812.478882	918.530273	1496.754028	1506.338989	101.657654
812.786438	927.595215	1501.435181	1512.283203	101.890427
813.094055	931.161682	1505.298828	1521.645386	102.847153
813.401489	921.873840	1507.973633	1515.255371	101.242409
813.708984	904.487000	1491.106934	1505.596069	102.469933
814.016357	919.867676	1498.091431	1503.738647	100.976646
814.323730	934.876892	1500.023438	1505.298828	100.933456
814.630981	933.836609	1504.035645	1503.887085	99.973946
814.938232	928.486816	1494.747925	1494.599243	99.973740
815.245361	914.072021	1481.224731	1485.162720	100.694344
815.552490	917.341370	1487.466187	1482.562134	99.139832
815.859619	913.477600	1487.912109	1472.902832	97.387123
816.166565	916.449707	1500.394897	1474.463257	95.559235
816.473572	915.186584	1496.456665	1468.890503	95.257599
816.780457	910.802734	1490.809937	1487.614868	99.449135
817.087341	907.756348	1489.175171	1495.193726	101.035149
817.394043	907.087646	1494.599243	1506.859253	102.086769
817.700806	909.168152	1495.267944	1497.720093	100.418381
818.007507	908.870911	1513.323608	1502.772583	98.254448
818.314209	910.951355	1513.100586	1515.032593	100.320854
818.620667	905.750183	1529.670288	1529.670044	99.999962
818.927246	902.332214	1524.320313	1541.558594	102.771484
819.233704	899.805908	1549.063110	1557.756470	101.338966
819.540161	898.691406	1578.784180	1585.471313	100.983269
819.846497	911.694397	1620.691040	1651.823853	104.391106
820.152832	913.403381	1664.232422	1714.683960	106.719444
820.458984	916.598328	1724.046265	1783.488159	107.361702
820.765259	908.127869	1785.494507	1846.051147	106.902092
821.071350	913.180420	1863.140991	1925.555054	106.570175
821.377502	902.480774	1960.254395	2034.185547	106.989319
821.683472	908.127869	2167.856201	2259.694580	107.290329
821.989441	906.344543	2538.180908	2716.879150	110.950745
822.295349	907.682068	3145.531250	3461.243408	114.107841
822.601196	909.985413	3918.576904	4382.448730	115.418236
822.907043	912.957520	4671.040527	5213.004883	114.421295
823.212769	919.124695	5158.243652	5709.718750	113.009193
823.518494	929.452698	5283.220703	5710.015625	109.802887
823.824097	916.003906	5040.250488	5278.465332	105.775963
824.129700	914.666504	4609.295410	4599.041016	99.722450
824.435242	900.177429	4088.507080	3913.449951	94.509438
824.740723	905.378723	3635.557861	3342.953857	89.282608
825.046082	897.799805	3259.437500	2920.542969	85.650017
825.351501	894.604797	2959.774658	2598.737549	82.517799
825.656799	891.186829	2725.572510	2380.882324	81.209503
825.962036	896.833801	2524.806396	2247.806152	82.984955
826.267212	910.802734	2394.256592	2203.521729	87.142517
826.572449	924.028625	2328.127197	2225.886475	92.718407
826.877502	928.486816	2364.089844	2336.969238	98.110855
827.182495	936.214294	2503.630127	2541.450195	102.412895
827.487488	936.660095	2669.399414	2782.339844	106.518028
827.792419	938.220459	2829.150391	2964.083984	107.135834
828.097290	915.781067	2868.902344	3015.352783	107.498276
828.402100	910.431335	2834.574463	2926.115479	104.757492
828.706848	919.198975	2687.380859	2731.665283	102.504517
829.011597	922.022522	2506.453857	2463.432373	97.284737
829.316223	910.208313	2294.393799	2203.670166	93.445702
829.620789	904.264160	2136.723389	2003.127075	89.160187
829.925354	910.356934	2010.260132	1857.270874	86.090660
830.229797	931.013184	1920.056641	1760.528687	83.870483
830.534302	954.046936	1841.741577	1690.981323	83.016655
830.838562	942.752930	1743.736328	1638.375000	86.846001
831.142944	928.561096	1668.318970	1599.217407	90.658897
831.447144	903.446777	1593.644897	1542.821655	92.636429
831.751404	905.378662	1570.165039	1518.896118	92.287910
832.055542	913.180420	1549.360352	1502.995483	92.711990
832.359619	909.985352	1538.363647	1525.063477	97.883415
832.663635	922.319641	1542.821655	1544.827759	100.323303
832.967651	916.895569	1568.901978	1588.369263	102.985748
833.271545	915.260925	1616.455688	1653.458496	105.277107
833.575439	903.446777	1695.365234	1776.132324	110.198914
833.879211	900.103210	1820.119507	1933.579712	112.332420
834.183044	902.926697	1968.353516	2095.856689	111.967331
834.486694	896.685242	2095.262451	2203.298584	109.013702
834.790344	920.462158	2173.428955	2246.022705	105.793747
835.093933	920.387878	2166.072998	2208.945557	103.441689
835.397522	930.641602	2088.129639	2107.299561	101.656166
835.700928	902.555176	1971.177124	1965.678589	99.485458
836.004395	919.124695	1876.218140	1837.506226	95.955261
836.307739	918.307373	1787.129272	1721.891235	92.491203
836.611023	921.279480	1716.764282	1631.687622	89.305054
836.914307	907.459167	1640.827026	1552.926880	88.014183
837.217529	920.016296	1601.297974	1516.518555	87.555893
837.520691	926.926453	1546.313843	1480.407593	89.359444
837.823730	919.198975	1491.775757	1437.683228	90.552788
838.126831	909.539612	1429.955688	1404.544312	95.117104
838.429749	908.870911	1397.931274	1392.210083	98.830170
838.732727	918.753235	1381.287476	1387.306030	101.301216
839.035522	916.003967	1369.622070	1372.519897	100.638824
839.338379	916.672668	1355.578857	1340.421021	96.546455
839.641113	910.431335	1357.436401	1332.470703	94.414894
839.943848	909.093811	1378.389648	1359.293945	95.930984
840.246460	902.852356	1405.361694	1407.516479	100.428802
840.549072	903.669678	1437.014526	1456.704712	103.691833
840.851563	911.917297	1454.772827	1479.144165	104.489471
841.154053	916.078308	1462.277466	1481.893433	103.591354
841.456482	922.245422	1437.609009	1461.460083	104.628006
841.758850	916.672668	1410.117065	1420.816528	102.168320
842.061157	911.694336	1378.686890	1367.838745	97.677017
842.363403	903.966858	1359.962646	1327.195190	92.814087
842.665588	896.462341	1327.715210	1290.415405	91.350830
842.967712	904.041260	1308.025024	1282.316406	93.636223
843.269775	906.939148	1282.910767	1259.282471	93.715401
843.571777	912.437500	1271.988281	1241.226929	91.444504
843.873840	913.106140	1263.592163	1230.601563	90.587189
844.175659	920.907959	1260.842896	1228.223999	90.404373
844.477600	936.660156	1267.455933	1247.171143	93.867882
844.779297	937.700378	1247.914185	1244.199097	98.802414
845.081116	939.855164	1237.140259	1236.768799	99.875046
845.382751	924.548767	1221.536743	1222.651245	100.375267
845.684387	910.877014	1214.849487	1209.351074	98.191147
845.985962	899.954529	1196.050903	1198.800171	100.928505
846.287537	901.737793	1174.205811	1188.323364	105.181358
846.588989	908.499329	1172.794067	1181.784790	103.401779
846.890381	909.539612	1175.394653	1181.264648	102.207970
847.191711	907.236145	1179.630005	1172.794067	97.490425
847.493042	915.112305	1178.218262	1166.404175	95.509758
847.794250	925.811829	1193.450317	1172.199707	92.059959
848.095459	930.270020	1189.363647	1175.840576	94.780624
848.396606	920.462097	1184.385376	1179.258545	98.057457
848.697693	907.459167	1161.574585	1170.045044	103.333313
848.998657	909.168152	1160.237061	1165.809692	102.219566
849.299622	920.016296	1157.562134	1170.119263	105.286194
849.600464	929.972839	1151.171997	1163.506226	105.576073
849.901367	921.576660	1147.011108	1147.159790	100.065956
850.202087	915.483826	1151.469238	1131.184570	91.404274
850.502808	911.768738	1157.636353	1127.618042	87.790863
850.803467	911.545837	1161.054199	1135.345581	89.696289
851.104065	927.298035	1166.255493	1149.091553	92.817154
851.404663	928.858398	1170.490723	1153.178223	92.835190
851.705139	929.007019	1164.472290	1154.589966	95.803062
852.005615	916.301086	1149.983276	1147.456909	98.918884
852.306030	912.586121	1144.410522	1143.518921	99.615395
852.606384	918.753174	1149.611694	1138.094727	95.011246
852.906616	924.697327	1156.819092	1144.187500	94.558205
853.206909	931.013123	1158.007935	1142.924438	93.355133
853.506958	925.068848	1152.732422	1145.153564	96.671028
853.807129	917.267090	1138.763550	1130.441528	96.242821
854.107178	909.093750	1134.230957	1132.150513	99.075920
854.407166	909.093750	1134.230957	1129.995728	98.118820
854.707092	905.081482	1136.162964	1124.051636	94.758850
855.007019	901.737793	1134.008179	1111.717285	90.403038
855.306763	910.951355	1127.246582	1110.602661	92.305000
855.606567	909.911133	1120.262085	1110.379883	95.302040
855.906250	908.945251	1110.305542	1113.203369	101.439125
856.205933	900.177429	1110.082642	1114.243652	101.982330
856.505493	905.824463	1115.655273	1111.717285	98.123253
856.805054	916.969788	1124.274414	1112.311646	94.229378
857.104492	923.434265	1125.389038	1108.002075	91.390663
857.403931	922.096741	1119.073242	1113.723511	97.284073
857.703308	912.288757	1120.782104	1118.033081	98.681480
858.002563	906.493164	1123.011353	1110.305542	94.131760
858.301819	909.911133	1129.327026	1105.252930	89.028099
858.601013	918.307312	1126.652222	1103.841309	89.051369
858.900208	922.245361	1121.525269	1110.008301	94.220711
859.199219	918.381653	1118.924683	1126.800781	103.927383
859.498291	923.137024	1122.491211	1129.698608	103.615372
859.797302	924.102966	1129.772949	1137.128784	103.576523
860.096191	933.019226	1141.958618	1139.283691	98.719757
860.395020	926.257751	1132.224854	1126.132080	97.041870
860.693787	917.489990	1125.983398	1110.379883	92.516060
860.992554	899.805969	1111.642944	1079.098389	84.636978
861.291260	902.480896	1116.844116	1087.123047	86.135185
861.589844	911.025696	1122.119629	1089.054932	84.336502
861.888428	923.582825	1127.543823	1100.497559	86.739494
862.186890	919.347595	1131.110352	1103.915527	87.157883
862.485413	912.511719	1127.469604	1106.293213	90.148582
862.783813	907.013367	1127.395142	1102.578003	88.739021
863.082153	908.499329	1127.395142	1093.067383	84.317764
863.380371	912.437439	1130.441528	1089.649414	81.288368
863.678589	908.350769	1123.902954	1088.757813	83.695297
863.976746	904.338379	1119.296265	1090.020874	86.380875
864.274902	909.836731	1116.026855	1097.674194	91.099159
864.572937	918.010071	1122.342651	1100.126099	89.127258
864.870911	931.161682	1128.138184	1103.618286	87.551865
865.168884	915.855286	1124.943237	1100.646118	88.379471
865.466736	897.428223	1109.934082	1093.215942	92.132858
865.764587	881.601807	1098.862915	1078.652588	90.697678
866.062317	886.208496	1102.206665	1074.194458	87.031273
866.360107	900.103088	1113.946411	1080.658813	84.433655
866.657715	900.474609	1114.615112	1086.008667	86.641273
866.955322	900.549011	1103.395386	1087.568848	92.197769
867.252808	901.514954	1095.519409	1082.664917	93.374123
867.550293	912.660217	1095.445190	1085.785767	94.715416
867.847717	907.607727	1099.308716	1083.928101	91.976768
868.145081	910.802734	1098.119995	1081.178955	90.955963
868.442383	903.223877	1097.971313	1082.442139	92.025993
868.739624	914.072083	1101.091919	1076.126343	86.650841
869.036804	923.062683	1109.785400	1085.934204	87.226410
869.333984	922.393982	1106.144653	1081.624756	86.655884
869.631042	911.322937	1103.172485	1078.429688	87.103020
869.928101	900.846191	1095.519409	1077.463745	90.725143
870.224976	897.799805	1088.757813	1079.395630	95.097260
870.521851	943.644592	1121.005127	1117.810059	98.198547
870.818726	939.186340	1121.748169	1112.088745	94.708954
871.115479	947.954102	1136.162964	1125.091675	94.117554
871.412231	917.787170	1110.528442	1104.584351	96.916023
871.708862	921.279480	1113.946411	1104.064209	94.870834
872.005493	915.929688	1111.568726	1095.816528	91.948334
872.302063	908.499329	1105.921753	1090.169556	92.021072
872.598572	909.093750	1108.819458	1095.593628	93.378006
872.895020	906.938965	1107.184937	1097.971313	95.398849
873.191406	913.700500	1116.695679	1104.212769	93.850639
873.487671	913.329041	1110.454102	1103.989868	96.720741
873.783997	915.558044	1114.020630	1108.522339	97.229561
874.080200	900.549011	1101.909302	1099.383179	98.745468
874.376343	893.415955	1104.732788	1093.736084	94.796104
874.672424	906.195984	1114.392212	1092.027222	89.257736
874.968445	925.663269	1126.503540	1100.943481	87.273438
875.264465	927.966614	1129.698608	1098.417114	84.493538
875.560364	917.415710	1122.639771	1091.878540	85.010902
875.856201	898.022644	1117.884399	1078.652466	82.156090
876.152039	901.514954	1121.079468	1086.677368	84.331665
876.447754	897.502625	1122.713989	1080.807495	81.392372
876.743469	910.505554	1137.871826	1093.810425	80.620956
877.039063	899.285828	1130.441528	1091.284058	83.060135
877.334595	903.595398	1123.382813	1093.364502	86.342117
877.630127	898.245605	1108.522339	1090.243774	91.307373
877.925537	909.836853	1117.735840	1086.454468	84.953575
878.221008	905.601563	1121.822388	1087.420288	84.089371
878.516296	898.245605	1111.122925	1084.076538	87.294846
878.811646	894.753418	1113.723511	1091.209595	89.718269
879.106812	900.846191	1122.416870	1112.534546	95.539879
879.401978	905.304382	1128.807007	1125.760498	98.636925
879.697083	905.527344	1134.528320	1144.782104	104.477615
879.992126	905.750183	1155.333008	1160.534180	102.083946
880.287109	909.985535	1197.759888	1186.911621	96.230286
880.582031	918.233093	1244.199097	1237.066040	97.811714
880.876892	917.267090	1318.204590	1320.507935	100.574493
881.171753	913.180420	1467.330078	1484.865601	103.164398
881.466492	919.050293	1712.454712	1753.841431	105.216347
881.761230	916.152527	2033.665527	2096.376953	105.611694
882.055786	913.923523	2360.597412	2435.717529	105.192612
882.350403	898.617188	2598.217529	2649.263672	103.003418
882.644958	895.124939	2687.455322	2683.442871	99.776131
882.939453	900.400391	2630.390625	2541.004395	94.833138
883.233826	908.722229	2487.209229	2310.665771	88.815651
883.528137	907.087585	2315.495850	2069.999268	82.569214
883.822449	908.870911	2153.070068	1860.094238	76.452652
884.116577	900.177429	2001.640991	1686.820313	71.417961
884.410828	897.799805	1866.038452	1548.542969	67.208961
884.704956	902.332275	1750.794922	1448.828735	64.410194
884.999023	903.669678	1635.031250	1374.600464	64.390968
885.292969	908.350830	1529.744263	1315.752563	65.562607
885.586914	901.663574	1431.962036	1270.056274	69.468933
885.880798	909.688232	1367.021484	1238.403442	71.876518
886.174622	913.774841	1331.653320	1218.936157	73.026329
886.468384	910.431152	1292.792969	1201.623657	76.156273
886.762085	903.149597	1262.848999	1187.580322	79.074562
887.055664	897.279602	1223.171387	1166.032471	82.466904
887.349304	893.861633	1208.385132	1149.165771	81.171722
887.642822	897.056641	1195.456543	1127.543701	77.240997
887.936340	896.833801	1189.809448	1121.673828	76.743591
888.229736	901.737793	1174.280273	1114.689453	78.135216
888.523071	896.611023	1163.952026	1107.704956	78.960556
888.816284	921.873840	1170.193481	1116.398438	78.336372
889.109619	931.607483	1175.469116	1112.906128	74.344879
889.402710	946.245117	1161.351563	1109.116699	75.716736
889.695862	924.400085	1132.299194	1078.652710	74.195908
889.988892	909.465271	1112.460327	1064.609497	76.427589
890.281921	886.951538	1113.649170	1056.138916	74.631294
>>>>>End Processed Spectral Data<<<<<
